"subID","keyboard_condition","trial_type","trial_number","correct_num","response_num","response_rt","correct_space","response_space","probe_space","correct_width","response_width","probe_width","adjustment_duration","stim_length","exp_version","number_deviation","width_deviation","spacing_deviation","response_stim_length","compression_rate","actual_pooled_width","response_pooled_width","pooled_width_deviation","actual_width_density","response_width_density","width_density_deviation"
"1","left_right_width","match",1,4,3,2.92675460013561,0.466666666666667,0.75,1.3,0.25,0.25,0.1,7.27211120002903,1.65,"Exp1A",-1,0,0.283333333333333,1.75,1.06060606060606,1,0.75,-0.25,0.606060606060606,0.428571428571429,-0.177489177489178
"1","left_right_width","match",2,3,3,2.49829599983059,1,1,0.5,0.1,0.1,0.15,9.11644969996996,2.1,"Exp1A",0,1.38777878078145e-17,0,2.1,1,0.3,0.3,0,0.142857142857143,0.142857142857143,0
"1","left_right_width","match",3,4,3,4.42918620002456,0.6,0.65,1.3,0.4,0.35,0.15,6.93804990011267,2.2,"Exp1A",-1,-0.05,0.0499999999999999,1.65,0.75,1.6,1.05,-0.55,0.727272727272727,0.636363636363636,-0.0909090909090911
"1","left_right_width","match",5,5,4,1.58405849989504,0.675,0.6,1.2,0.4,0.4,0.4,3.98432980012149,3.1,"Exp1A",-1,0,-0.0750000000000001,2.2,0.709677419354839,2,1.6,-0.4,0.645161290322581,0.727272727272727,0.0821114369501468
"1","left_right_width","initial",6,3,3,1.13310929993168,0.5,0.65,1.2,0.4,0.4,0.15,6.59089780016802,1.4,"Exp1A",0,-5.55111512312578e-17,0.15,1.7,1.21428571428571,1.2,1.2,-2.22044604925031e-16,0.857142857142857,0.705882352941177,-0.151260504201681
"1","left_right_width","match",7,5,4,1.08213890017942,0.675,0.9,1.3,0.25,0.25,0.25,4.45910259988159,2.95,"Exp1A",-1,0,0.225,2.95,1,1.25,1,-0.25,0.423728813559322,0.338983050847458,-0.0847457627118644
"1","left_right_width","initial",8,4,4,1.16977070015855,0.7,0.7,1.2,0.1,0.1,0.45,12.2902154000476,2.2,"Exp1A",0,6.93889390390723e-17,0,2.2,1,0.4,0.4,2.77555756156289e-16,0.181818181818182,0.181818181818182,1.38777878078145e-16
"1","left_right_width","match",9,3,2,1.06274560000747,1.4,1.4,1.6,0.1,0.1,0.45,5.84709669998847,2.9,"Exp1A",-1,6.93889390390723e-17,0,1.5,0.517241379310345,0.3,0.2,-0.0999999999999999,0.103448275862069,0.133333333333333,0.0298850574712645
"1","left_right_width","initial",10,3,3,1.09673670004122,0.5,0.7,0.8,0.25,0.25,0.4,5.81985140009783,1.25,"Exp1A",0,5.55111512312578e-17,0.2,1.65,1.32,0.75,0.75,2.22044604925031e-16,0.6,0.454545454545455,-0.145454545454545
"1","left_right_width","match",11,5,5,1.59398759994656,0.525,0.5,0.5,0.4,0.35,0.1,5.48144650016911,2.5,"Exp1A",0,-0.05,-0.025,2.35,0.94,2,1.75,-0.25,0.8,0.74468085106383,-0.0553191489361703
"1","left_right_width","match",12,3,2,1.1902366001159,1,1.3,1.6,0.25,0.4,0.1,7.21995349996723,2.25,"Exp1A",-1,0.15,0.3,1.7,0.755555555555556,0.75,0.8,0.0499999999999999,0.333333333333333,0.470588235294118,0.137254901960784
"1","left_right_width","initial",13,3,2,1.91726119979285,0.5,1.1,1.6,0.1,0.1,0.4,4.9766136999242,1.1,"Exp1A",-1,6.93889390390723e-17,0.6,1.2,1.09090909090909,0.3,0.2,-0.0999999999999999,0.272727272727273,0.166666666666667,-0.106060606060606
"1","left_right_width","initial",14,3,3,1.12536599999294,0.7,0.8,1,0.25,0.25,0.2,4.326524999924,1.65,"Exp1A",0,0,0.1,1.85,1.12121212121212,0.75,0.75,0,0.454545454545455,0.405405405405405,-0.0491400491400492
"1","left_right_width","initial",15,4,3,1.50443420000374,0.7,0.8,0.8,0.4,0.4,0.1,2.62465899996459,2.5,"Exp1A",-1,-5.55111512312578e-17,0.1,2,0.8,1.6,1.2,-0.4,0.64,0.6,-0.04
"1","left_right_width","initial",16,5,4,0.946618600049987,0.9,1,1,0.1,0.1,0.35,5.32355220010504,3.7,"Exp1A",-1,1.38777878078145e-17,0.1,3.1,0.837837837837838,0.5,0.4,-0.0999999999999999,0.135135135135135,0.129032258064516,-0.00610287707061896
"1","left_right_width","match",17,5,5,1.12747790012509,0.675,0.85,1.3,0.1,0.1,0.15,6.36113320011646,2.8,"Exp1A",0,-1.38777878078145e-17,0.175,3.5,1.25,0.5,0.5,-5.55111512312578e-17,0.178571428571429,0.142857142857143,-0.0357142857142857
"1","left_right_width","initial",18,5,5,1.16934060002677,0.7,0.9,0.9,0.1,0.0500000000000001,0.4,4.68828419991769,2.9,"Exp1A",0,-0.0499999999999999,0.2,3.65,1.25862068965517,0.5,0.25,-0.25,0.172413793103448,0.0684931506849316,-0.103920642418517
"1","left_right_width","match",19,5,4,1.58190759993158,0.375,0.7,1.3,0.1,0.1,0.35,9.01927680009976,1.6,"Exp1A",-1,1.38777878078145e-17,0.325,2.2,1.375,0.5,0.4,-0.0999999999999999,0.3125,0.181818181818182,-0.130681818181818
"1","left_right_width","initial",20,4,3,1.75716729997657,0.5,0.8,0.7,0.1,0.1,0.1,2.45334429992363,1.6,"Exp1A",-1,0,0.3,1.7,1.0625,0.4,0.3,-0.1,0.25,0.176470588235294,-0.0735294117647059
"1","left_right_width","initial",21,3,2,2.30452980007976,0.7,1.1,1.6,0.1,0.2,0.3,6.49605270009488,1.5,"Exp1A",-1,0.1,0.4,1.3,0.866666666666667,0.3,0.4,0.1,0.2,0.307692307692308,0.107692307692308
"1","left_right_width","match",22,3,3,1.95809129998088,1.8,1.6,0.5,0.1,0.1,0.35,12.1180954000447,3.7,"Exp1A",0,1.38777878078145e-17,-0.2,3.3,0.891891891891892,0.3,0.3,0,0.0810810810810811,0.0909090909090909,0.00982800982800983
"1","left_right_width","initial",23,5,4,1.87627330003306,0.5,0.5,0.8,0.4,0.35,0.15,4.56711399997585,2.4,"Exp1A",-1,-0.05,0,1.85,0.770833333333333,2,1.4,-0.6,0.833333333333333,0.756756756756757,-0.0765765765765767
"1","left_right_width","initial",24,5,4,0.947251399978995,0.5,0.5,1,0.1,0.1,0.3,4.46165139996447,2.1,"Exp1A",-1,1.38777878078145e-17,0,1.6,0.761904761904762,0.5,0.4,-0.0999999999999999,0.238095238095238,0.25,0.011904761904762
"1","left_right_width","match",25,5,4,0.992679900024086,0.4125,0.5,1.1,0.25,0.25,0.35,3.82956839981489,1.9,"Exp1A",-1,0,0.0875,1.75,0.921052631578947,1.25,1,-0.25,0.657894736842105,0.571428571428571,-0.0864661654135339
"1","left_right_width","match",26,5,4,0.999083600006998,0.525,0.8,0.4,0.25,0.35,0.2,5.16706739994697,2.35,"Exp1A",-1,0.1,0.275,2.75,1.17021276595745,1.25,1.4,0.15,0.531914893617021,0.509090909090909,-0.0228239845261123
"1","left_right_width","match",27,4,3,1.14286290016025,0.333333333333333,0.5,0.6,0.25,0.3,0.3,7.01656769984402,1.25,"Exp1A",-1,0.05,0.166666666666667,1.3,1.04,1,0.9,-0.1,0.8,0.692307692307692,-0.107692307692308
"1","left_right_width","initial",28,4,3,1.52226769994013,0.5,0.65,0.6,0.4,0.4,0.3,4.33920829999261,1.9,"Exp1A",-1,-5.55111512312578e-17,0.15,1.7,0.894736842105263,1.6,1.2,-0.4,0.842105263157895,0.705882352941177,-0.136222910216718
"1","left_right_width","match",29,3,2,0.716631199931726,1.4,2.2,1.6,0.25,0.25,0.35,3.53333649993874,3.05,"Exp1A",-1,0,0.8,2.45,0.80327868852459,0.75,0.5,-0.25,0.245901639344262,0.204081632653061,-0.0418200066912011
"1","left_right_width","match",30,3,2,1.07678120001219,1.475,3.3,1.6,0.25,0.1,0.15,5.04944289987907,3.2,"Exp1A",-1,-0.15,1.825,3.4,1.0625,0.75,0.2,-0.55,0.234375,0.0588235294117647,-0.175551470588235
"1","left_right_width","initial",31,3,2,3.02513940003701,0.9,1.6,1.6,0.4,0.45,0.45,1.33583780005574,2.2,"Exp1A",-1,0.05,0.7,2.05,0.931818181818182,1.2,0.9,-0.3,0.545454545454546,0.439024390243902,-0.106430155210643
"1","left_right_width","match",32,4,3,1.04848320013843,0.466666666666667,0.65,0.5,0.4,0.45,0.45,2.68573069991544,1.8,"Exp1A",-1,0.05,0.183333333333333,1.75,0.972222222222222,1.6,1.35,-0.25,0.888888888888889,0.771428571428571,-0.117460317460317
"1","left_right_width","initial",33,4,4,1.38703270000406,0.5,0.5,0.7,0.25,0.3,0.15,3.69610309996642,1.75,"Exp1A",0,0.05,0,1.8,1.02857142857143,1,1.2,0.2,0.571428571428571,0.666666666666667,0.0952380952380952
"1","left_right_width","match",34,3,3,0.849759300006554,1.8,1.65,0.8,0.4,0.25,0.25,6.3964756000787,4,"Exp1A",0,-0.15,-0.15,3.55,0.8875,1.2,0.75,-0.45,0.3,0.211267605633803,-0.0887323943661972
"1","left_right_width","match",35,4,4,1.52001390000805,0.6,0.5,0.3,0.25,0.15,0.3,5.32821649988182,2.05,"Exp1A",0,-0.1,-0.0999999999999999,1.65,0.804878048780488,1,0.6,-0.4,0.487804878048781,0.363636363636364,-0.124168514412417
"1","left_right_width","initial",36,5,4,1.06937410007231,0.9,0.9,0.9,0.4,0.4,0.4,1.4397054000292,4,"Exp1A",-1,0,0,3.1,0.775,2,1.6,-0.4,0.5,0.516129032258065,0.0161290322580645
"1","left_right_width","initial",37,4,3,1.08013239991851,0.7,0.95,1.2,0.25,0.2,0.35,3.24426559987478,2.35,"Exp1A",-1,-0.05,0.25,2.1,0.893617021276596,1,0.6,-0.4,0.425531914893617,0.285714285714286,-0.139817629179331
"1","left_right_width","match",38,4,4,1.01469140010886,0.333333333333333,0.5,0.7,0.1,0.1,0.4,5.13278550002724,1.1,"Exp1A",0,6.93889390390723e-17,0.166666666666667,1.6,1.45454545454545,0.4,0.4,2.77555756156289e-16,0.363636363636364,0.25,-0.113636363636363
"1","left_right_width","match",39,3,3,1.05851319991052,1,1,0.9,0.4,0.45,0.45,1.78114450001158,2.4,"Exp1A",0,0.05,1.11022302462516e-16,2.45,1.02083333333333,1.2,1.35,0.15,0.5,0.551020408163265,0.0510204081632651
"1","left_right_width","match",40,5,4,0.96649430016987,0.375,0.5,0.4,0.25,0.35,0.1,4.92461250000633,1.75,"Exp1A",-1,0.1,0.125,1.85,1.05714285714286,1.25,1.4,0.15,0.714285714285714,0.756756756756757,0.0424710424710424
"1","left_right_width","initial",41,5,4,1.05675629992038,0.7,0.6,0.4,0.25,0.25,0.2,4.98117210017517,3.05,"Exp1A",-1,0,-0.1,2.05,0.672131147540984,1.25,1,-0.25,0.409836065573771,0.487804878048781,0.07796881247501
"1","left_right_width","initial",42,4,3,1.62668929994106,0.9,0.9,0.7,0.25,0.15,0.45,6.34494749992155,2.95,"Exp1A",-1,-0.0999999999999999,0,1.95,0.661016949152542,1,0.45,-0.55,0.338983050847458,0.230769230769231,-0.108213820078227
"1","left_right_width","match",43,4,3,0.907228100113571,0.383333333333333,0.5,0.6,0.25,0.3,0.3,1.87531180004589,1.4,"Exp1A",-1,0.05,0.116666666666667,1.3,0.928571428571429,1,0.9,-0.1,0.714285714285714,0.692307692307692,-0.0219780219780221
"1","left_right_width","match",44,4,4,0.99335250002332,0.6,0.6,1.2,0.1,0.1,0.15,8.34235499985516,1.9,"Exp1A",0,-1.38777878078145e-17,0,1.9,1,0.4,0.4,-5.55111512312578e-17,0.210526315789474,0.210526315789474,-2.77555756156289e-17
"1","left_right_width","match",45,5,5,1.47563640004955,0.525,0.65,1,0.1,0.0500000000000001,0.4,9.2528649000451,2.2,"Exp1A",0,-0.0499999999999999,0.125,2.65,1.20454545454545,0.5,0.25,-0.25,0.227272727272727,0.0943396226415096,-0.132933104631218
"1","left_right_width","initial",46,3,2,0.99924959987402,0.9,1.3,1.6,0.25,0.35,0.45,2.9590646000579,2.05,"Exp1A",-1,0.1,0.4,1.65,0.804878048780488,0.75,0.7,-0.0499999999999999,0.365853658536585,0.424242424242424,0.0583887657058388
"1","left_right_width","match",47,3,2,1.43513240013272,1.8,1.9,1.6,0.25,0.3,0.2,4.83147520013154,3.85,"Exp1A",-1,0.05,0.0999999999999999,2.2,0.571428571428571,0.75,0.6,-0.15,0.194805194805195,0.272727272727273,0.0779220779220779
"1","left_right_width","initial",48,4,4,2.42819519992918,0.9,0.8,1.3,0.4,0.3,0.35,3.7661117000971,3.1,"Exp1A",0,-0.1,-0.1,2.7,0.870967741935484,1.6,1.2,-0.4,0.516129032258065,0.444444444444444,-0.0716845878136201
"1","left_right_width","match",49,4,4,0.99808119982481,0.466666666666667,0.5,0.7,0.1,0.1,0.4,3.29360279999673,1.5,"Exp1A",0,6.93889390390723e-17,0.0333333333333333,1.6,1.06666666666667,0.4,0.4,2.77555756156289e-16,0.266666666666667,0.25,-0.0166666666666665
"1","left_right_width","initial",50,4,3,1.18610000004992,0.9,1.05,1.3,0.1,0.1,0.4,5.66522550000809,2.8,"Exp1A",-1,6.93889390390723e-17,0.15,2.2,0.785714285714286,0.4,0.3,-0.0999999999999998,0.142857142857143,0.136363636363636,-0.00649350649350641
"1","left_right_width","initial",51,5,5,1.78310500015505,0.9,0.85,0.8,0.25,0.15,0.25,3.19685070007108,3.85,"Exp1A",0,-0.1,-0.05,3.55,0.922077922077922,1.25,0.75,-0.5,0.324675324675325,0.211267605633803,-0.113407719041522
"1","left_right_width","initial",52,3,2,0.999651100020856,0.7,0.8,1.6,0.4,0.5,0.1,6.0314301000908,1.8,"Exp1A",-1,0.0999999999999999,0.1,1.3,0.722222222222222,1.2,1,-0.2,0.666666666666667,0.769230769230769,0.102564102564102
"1","left_right_width","initial",53,5,4,1.01467720000073,0.7,0.8,1.1,0.4,0.5,0.15,8.26961109996773,3.2,"Exp1A",-1,0.0999999999999999,0.1,2.9,0.90625,2,2,-2.22044604925031e-16,0.625,0.689655172413793,0.0646551724137929
"1","left_right_width","initial",54,3,2,1.11946600000374,0.9,1.5,1.6,0.1,0.1,0.1,4.83249770011753,1.9,"Exp1A",-1,1.38777878078145e-17,0.6,1.6,0.842105263157895,0.3,0.2,-0.1,0.157894736842105,0.125,-0.0328947368421053
"1","left_right_width","match",1,4,3,1.09546769992448,0.6,0.6,0.4,0.25,0.25,0.25,3.96054459991865,2.05,"Exp1A",-1,0,1.11022302462516e-16,1.45,0.707317073170732,1,0.75,-0.25,0.487804878048781,0.517241379310345,0.0294365012615643
"1","left_right_width","match",2,5,4,0.696975100087002,0.4125,0.6,0.7,0.25,0.25,0.1,2.13931869994849,1.9,"Exp1A",-1,0,0.1875,2.05,1.07894736842105,1.25,1,-0.25,0.657894736842105,0.487804878048781,-0.170089858793325
"1","left_right_width","initial",3,4,4,0.735368900001049,0.9,0.8,0.5,0.1,0.1,0.3,4.57628379995003,2.8,"Exp1A",0,1.38777878078145e-17,-0.1,2.5,0.892857142857143,0.4,0.4,5.55111512312578e-17,0.142857142857143,0.16,0.0171428571428572
"1","left_right_width","initial",4,3,2,1.11599460011348,0.7,1.1,1.6,0.25,0.3,0.45,5.00464840000495,1.65,"Exp1A",-1,0.05,0.4,1.4,0.848484848484849,0.75,0.6,-0.15,0.454545454545455,0.428571428571429,-0.025974025974026
"1","left_right_width","match",6,3,2,0.908857499947771,1.4,1.9,1.6,0.25,0.15,0.25,2.79199289996177,3.05,"Exp1A",-1,-0.1,0.5,2.05,0.672131147540984,0.75,0.3,-0.45,0.245901639344262,0.146341463414634,-0.0995601759296281
"1","left_right_width","initial",7,3,2,1.03983850008808,0.5,0.7,1.6,0.4,0.45,0.25,7.34726330009289,1.4,"Exp1A",-1,0.0499999999999999,0.2,1.15,0.821428571428571,1.2,0.9,-0.3,0.857142857142857,0.782608695652174,-0.0745341614906833
"1","left_right_width","match",8,3,2,1.11219300003722,1.8,2.7,1.6,0.1,0.0500000000000001,0.45,5.56159040005878,3.7,"Exp1A",-1,-0.0499999999999999,0.9,2.75,0.743243243243243,0.3,0.1,-0.2,0.0810810810810811,0.0363636363636364,-0.0447174447174447
"1","left_right_width","initial",9,4,3,2.12675270019099,0.9,1,0.8,0.4,0.35,0.15,4.39126689988188,3.1,"Exp1A",-1,-0.05,0.1,2.35,0.758064516129032,1.6,1.05,-0.55,0.516129032258065,0.446808510638298,-0.0693205216197667
"1","left_right_width","initial",10,5,4,2.68746259994805,0.9,1,0.7,0.1,0.1,0.1,1.74554969999008,3.7,"Exp1A",-1,0,0.1,3.1,0.837837837837838,0.5,0.4,-0.1,0.135135135135135,0.129032258064516,-0.00610287707061899
"1","left_right_width","initial",11,4,4,0.889356400119141,0.9,0.7,1.1,0.25,0.2,0.1,3.07560229999945,2.95,"Exp1A",0,-0.05,-0.2,2.3,0.779661016949152,1,0.8,-0.2,0.338983050847458,0.347826086956522,0.00884303610906417
"1","left_right_width","match",12,3,3,1.13193739997223,1.475,1.05,0.9,0.25,0.2,0.2,1.91832149983384,3.2,"Exp1A",0,-0.05,-0.425,2.3,0.71875,0.75,0.6,-0.15,0.234375,0.260869565217391,0.0264945652173913
"1","left_right_width","match",13,5,4,0.749981800094247,0.375,0.4,0.5,0.1,0.1,0.25,2.76646910002455,1.6,"Exp1A",-1,1.38777878078145e-17,0.025,1.3,0.8125,0.5,0.4,-0.0999999999999999,0.3125,0.307692307692308,-0.00480769230769229
"1","left_right_width","match",14,3,3,1.38505619997159,1,0.8,1.2,0.25,0.15,0.25,3.79208920011297,2.25,"Exp1A",0,-0.1,-0.2,1.75,0.777777777777778,0.75,0.45,-0.3,0.333333333333333,0.257142857142857,-0.0761904761904761
"1","left_right_width","match",15,5,4,2.26578569994308,0.675,0.7,0.7,0.1,0.1,0.3,4.01327180000953,2.8,"Exp1A",-1,1.38777878078145e-17,0.025,2.2,0.785714285714286,0.5,0.4,-0.0999999999999999,0.178571428571429,0.181818181818182,0.0032467532467533
"1","left_right_width","match",16,4,3,1.00881840009242,0.466666666666667,0.5,0.5,0.25,0.3,0.15,1.65385639993474,1.65,"Exp1A",-1,0.05,0.0333333333333333,1.3,0.787878787878788,1,0.9,-0.1,0.606060606060606,0.692307692307692,0.0862470862470861
"1","left_right_width","initial",17,4,3,0.933273300062865,0.5,0.45,0.3,0.25,0.25,0.15,2.81543289986439,1.75,"Exp1A",-1,0,-0.05,1.15,0.657142857142857,1,0.75,-0.25,0.571428571428571,0.652173913043478,0.0807453416149069
"1","left_right_width","initial",18,5,4,0.847747099818662,0.5,0.5,1.2,0.1,0.1,0.2,4.7482108999975,2.1,"Exp1A",-1,1.38777878078145e-17,0,1.6,0.761904761904762,0.5,0.4,-0.0999999999999999,0.238095238095238,0.25,0.011904761904762
"1","left_right_width","initial",19,5,5,3.34923040005378,0.5,0.45,0.8,0.25,0.2,0.2,4.38231900008395,2.25,"Exp1A",0,-0.05,-0.05,2,0.888888888888889,1.25,1,-0.25,0.555555555555556,0.5,-0.0555555555555556
"1","left_right_width","match",20,3,2,0.876184300053865,1.8,4.1,1.6,0.4,0.4,0.4,7.70309289987199,4,"Exp1A",-1,0,2.3,4.5,1.125,1.2,0.8,-0.4,0.3,0.177777777777778,-0.122222222222222
"1","left_right_width","initial",21,3,2,0.864854499930516,0.7,0.8,1.6,0.4,0.4,0.3,8.09136560000479,1.8,"Exp1A",-1,-5.55111512312578e-17,0.1,1.2,0.666666666666667,1.2,0.8,-0.4,0.666666666666667,0.666666666666667,-1.11022302462516e-16
"1","left_right_width","initial",22,5,4,1.0239338001702,0.7,0.6,0.7,0.25,0.25,0.4,13.573447200004,3.05,"Exp1A",-1,5.55111512312578e-17,-0.1,2.05,0.672131147540984,1.25,1,-0.25,0.409836065573771,0.487804878048781,0.0779688124750101
"1","left_right_width","match",23,5,4,0.783489999826998,0.525,0.7,0.4,0.25,0.35,0.1,9.11866240017116,2.35,"Exp1A",-1,0.1,0.175,2.45,1.04255319148936,1.25,1.4,0.15,0.531914893617021,0.571428571428572,0.0395136778115502
"1","left_right_width","match",24,4,3,1.07543399999849,0.333333333333333,0.35,0.3,0.25,0.25,0.25,2.24677970004268,1.25,"Exp1A",-1,0,0.0166666666666667,0.95,0.76,1,0.75,-0.25,0.8,0.789473684210526,-0.0105263157894737
"1","left_right_width","match",25,5,4,0.970006000017747,0.675,0.7,0.5,0.4,0.4,0.4,1.87345189996995,3.1,"Exp1A",-1,0,0.0249999999999999,2.5,0.806451612903226,2,1.6,-0.4,0.645161290322581,0.64,-0.0051612903225805
"1","left_right_width","initial",26,3,2,0.669487399980426,0.5,0.5,1.6,0.1,0.0500000000000001,0.45,6.41799629991874,1.1,"Exp1A",-1,-0.0499999999999999,0,0.55,0.5,0.3,0.1,-0.2,0.272727272727273,0.181818181818182,-0.0909090909090907
"1","left_right_width","match",27,5,4,0.727418900001794,0.675,0.7,0.9,0.25,0.25,0.4,2.48866609996185,2.95,"Exp1A",-1,5.55111512312578e-17,0.0249999999999999,2.35,0.796610169491525,1.25,1,-0.25,0.423728813559322,0.425531914893617,0.00180310133429518
"1","left_right_width","initial",28,3,2,0.76027309987694,0.9,1.6,1.6,0.25,0.2,0.45,5.0315243001096,2.05,"Exp1A",-1,-0.0499999999999999,0.7,1.8,0.878048780487805,0.75,0.4,-0.35,0.365853658536585,0.222222222222222,-0.143631436314363
"1","left_right_width","match",29,4,3,1.00018989993259,0.333333333333333,0.4,0.7,0.1,0.1,0.3,3.29469330003485,1.1,"Exp1A",-1,1.38777878078145e-17,0.0666666666666667,0.9,0.818181818181818,0.4,0.3,-0.1,0.363636363636364,0.333333333333333,-0.0303030303030303
"1","left_right_width","initial",30,5,4,0.727967099985108,0.9,1,0.7,0.4,0.45,0.15,3.38431639992632,4,"Exp1A",-1,0.0499999999999999,0.1,3.45,0.8625,2,1.8,-0.2,0.5,0.521739130434782,0.0217391304347825
"1","left_right_width","initial",31,4,3,0.955396400066093,0.7,0.95,0.9,0.4,0.4,0.25,3.63427179981954,2.5,"Exp1A",-1,-5.55111512312578e-17,0.25,2.3,0.92,1.6,1.2,-0.4,0.64,0.521739130434783,-0.118260869565217
"1","left_right_width","initial",32,3,2,1.30709499982186,0.9,1.3,1.6,0.1,0.15,0.35,2.90126299997792,1.9,"Exp1A",-1,0.05,0.4,1.45,0.763157894736842,0.3,0.3,0,0.157894736842105,0.206896551724138,0.0490018148820326
"1","left_right_width","match",33,4,3,0.770770699949935,0.383333333333333,0.5,0.3,0.25,0.3,0.2,3.20146839995869,1.4,"Exp1A",-1,0.05,0.116666666666667,1.3,0.928571428571429,1,0.9,-0.1,0.714285714285714,0.692307692307692,-0.0219780219780221
"1","left_right_width","match",34,4,3,1.26350670005195,0.6,0.7,0.6,0.4,0.4,0.35,1.99645750015043,2.2,"Exp1A",-1,-5.55111512312578e-17,0.0999999999999999,1.8,0.818181818181818,1.6,1.2,-0.4,0.727272727272727,0.666666666666667,-0.0606060606060606
"1","left_right_width","initial",35,5,4,1.07077479991131,0.5,0.5,0.7,0.4,0.35,0.15,9.79393509984948,2.4,"Exp1A",-1,-0.05,0,1.85,0.770833333333333,2,1.4,-0.6,0.833333333333333,0.756756756756757,-0.0765765765765767
"1","left_right_width","initial",36,4,3,0.939079000148922,0.7,0.75,0.7,0.1,0.1,0.25,3.55482920003124,2.2,"Exp1A",-1,1.38777878078145e-17,0.05,1.6,0.727272727272727,0.4,0.3,-0.1,0.181818181818182,0.1875,0.00568181818181818
"1","left_right_width","initial",37,4,3,0.638713999884203,0.5,0.7,0.7,0.4,0.4,0.25,5.22061840002425,1.9,"Exp1A",-1,-5.55111512312578e-17,0.2,1.8,0.947368421052632,1.6,1.2,-0.4,0.842105263157895,0.666666666666667,-0.175438596491228
"1","left_right_width","match",38,5,4,1.13032569992356,0.525,0.4,0.3,0.1,0.1,0.3,4.10715099982917,2.2,"Exp1A",-1,1.38777878078145e-17,-0.125,1.3,0.590909090909091,0.5,0.4,-0.0999999999999999,0.227272727272727,0.307692307692308,0.0804195804195804
"1","left_right_width","initial",39,4,4,0.831938600167632,0.7,0.6,0.5,0.25,0.2,0.3,2.36690470017493,2.35,"Exp1A",0,-0.05,-0.1,2,0.851063829787234,1,0.8,-0.2,0.425531914893617,0.4,-0.025531914893617
"1","left_right_width","initial",40,3,2,0.917987399967387,0.5,0.5,1.6,0.25,0.25,0.15,4.81518150004558,1.25,"Exp1A",-1,0,0,0.75,0.6,0.75,0.5,-0.25,0.6,0.666666666666667,0.0666666666666667
"1","left_right_width","match",41,5,4,1.24063990009017,0.375,0.5,0.9,0.25,0.2,0.35,6.40514899999835,1.75,"Exp1A",-1,-0.05,0.125,1.7,0.971428571428571,1.25,0.8,-0.45,0.714285714285714,0.470588235294118,-0.243697478991597
"1","left_right_width","match",42,4,4,1.1262085000053,0.466666666666667,0.4,0.7,0.1,0.1,0.1,1.91165269981138,1.5,"Exp1A",0,0,-0.0666666666666667,1.3,0.866666666666667,0.4,0.4,0,0.266666666666667,0.307692307692308,0.041025641025641
"1","left_right_width","initial",43,3,2,0.785891099832952,0.7,0.8,1.6,0.1,0.1,0.4,3.95343339978717,1.5,"Exp1A",-1,6.93889390390723e-17,0.1,0.9,0.6,0.3,0.2,-0.0999999999999999,0.2,0.222222222222222,0.0222222222222223
"1","left_right_width","initial",44,3,2,0.889532099943608,0.9,1.4,1.6,0.4,0.8,0.1,5.53567179990932,2.2,"Exp1A",-1,0.4,0.5,2.2,1,1.2,1.6,0.4,0.545454545454546,0.727272727272727,0.181818181818182
"1","left_right_width","initial",45,4,3,0.957848600111902,0.5,0.6,0.6,0.1,0.05,0.3,3.95780980004929,1.6,"Exp1A",-1,-0.05,0.1,1.25,0.78125,0.4,0.15,-0.25,0.25,0.12,-0.13
"1","left_right_width","initial",46,5,4,1.07294209999964,0.9,0.8,0.6,0.25,0.1,0.4,4.24417389999144,3.85,"Exp1A",-1,-0.15,-0.1,2.5,0.649350649350649,1.25,0.4,-0.85,0.324675324675325,0.16,-0.164675324675325
"1","left_right_width","match",47,4,3,0.849978799931705,0.466666666666667,0.55,0.9,0.4,0.45,0.25,5.13447689986788,1.8,"Exp1A",-1,0.0499999999999999,0.0833333333333334,1.55,0.861111111111111,1.6,1.35,-0.25,0.888888888888889,0.870967741935484,-0.0179211469534052
"1","left_right_width","match",48,5,4,1.06677629984915,0.525,0.6,1.1,0.4,0.45,0.25,12.0775383000728,2.5,"Exp1A",-1,0.0499999999999999,0.075,2.25,0.9,2,1.8,-0.2,0.8,0.8,-1.11022302462516e-16
"1","left_right_width","initial",50,5,4,0.723445200128481,0.7,0.7,0.5,0.1,0.1,0.1,1.45984999998473,2.9,"Exp1A",-1,0,0,2.2,0.758620689655172,0.5,0.4,-0.1,0.172413793103448,0.181818181818182,0.00940438871473356
"1","left_right_width","match",51,3,3,2.45958499982953,1.4,1.1,1.1,0.1,0.1,0.35,3.39940929994918,2.9,"Exp1A",0,1.38777878078145e-17,-0.3,2.3,0.793103448275862,0.3,0.3,0,0.103448275862069,0.130434782608696,0.0269865067466267
"1","left_right_width","match",53,3,2,0.824699399992824,1.8,2.3,1.6,0.25,0.2,0.35,3.39864280004986,3.85,"Exp1A",-1,-0.05,0.5,2.5,0.649350649350649,0.75,0.4,-0.35,0.194805194805195,0.16,-0.0348051948051948
"1","left_right_width","initial",54,5,4,0.79923120001331,0.7,0.7,0.4,0.4,0.4,0.1,2.4636782000307,3.2,"Exp1A",-1,-5.55111512312578e-17,0,2.5,0.78125,2,1.6,-0.4,0.625,0.64,0.015
"1","left_right_width","match",1,4,3,0.945002000080422,0.466666666666667,0.65,1.1,0.25,0.25,0.35,2.31448019994423,1.65,"Exp1A",-1,0,0.183333333333333,1.55,0.939393939393939,1,0.75,-0.25,0.606060606060606,0.483870967741935,-0.122189638318671
"1","left_right_width","initial",2,3,2,0.654136400204152,0.7,0.8,1.6,0.25,0.3,0.2,3.70014349999838,1.65,"Exp1A",-1,0.05,0.1,1.1,0.666666666666667,0.75,0.6,-0.15,0.454545454545455,0.545454545454545,0.0909090909090908
"1","left_right_width","match",3,3,3,0.7274466000963,1,0.8,0.5,0.25,0.3,0.4,4.58542750007473,2.25,"Exp1A",0,0.05,-0.2,1.9,0.844444444444445,0.75,0.9,0.15,0.333333333333333,0.473684210526316,0.140350877192983
"1","left_right_width","initial",4,4,3,0.762745999963954,0.9,1.2,1.3,0.1,0.15,0.35,4.4911984000355,2.8,"Exp1A",-1,0.05,0.3,2.55,0.910714285714286,0.4,0.45,0.05,0.142857142857143,0.176470588235294,0.0336134453781513
"1","left_right_width","match",5,5,3,0.900055800098926,0.525,0.7,0.5,0.4,0.5,0.45,3.27969820005819,2.5,"Exp1A",-2,0.1,0.175,1.9,0.76,2,1.5,-0.5,0.8,0.789473684210526,-0.0105263157894737
"1","left_right_width","initial",6,5,4,0.728724399814382,0.5,0.6,0.8,0.4,0.5,0.1,3.4988563999068,2.4,"Exp1A",-1,0.0999999999999999,0.1,2.3,0.958333333333333,2,2,-2.22044604925031e-16,0.833333333333333,0.869565217391304,0.036231884057971
"1","left_right_width","initial",7,5,4,0.807305400026962,0.7,0.6,1.2,0.4,0.35,0.3,6.35829110001214,3.2,"Exp1A",-1,-0.05,-0.1,2.15,0.671875,2,1.4,-0.6,0.625,0.651162790697674,0.0261627906976744
"1","left_right_width","match",8,3,2,0.712160700000823,1.4,2,1.6,0.25,0.35,0.45,2.4431652999483,3.05,"Exp1A",-1,0.1,0.6,2.35,0.770491803278689,0.75,0.7,-0.0499999999999999,0.245901639344262,0.297872340425532,0.0519707010812696
"1","left_right_width","initial",10,3,2,1.65732860006392,0.9,1.1,1.6,0.1,0.2,0.4,2.53126959991641,1.9,"Exp1A",-1,0.1,0.2,1.3,0.68421052631579,0.3,0.4,0.1,0.157894736842105,0.307692307692308,0.149797570850202
"1","left_right_width","match",11,3,3,1.04338899999857,1.8,1.45,0.7,0.4,0.4,0.3,5.44985710014589,4,"Exp1A",0,-5.55111512312578e-17,-0.35,3.3,0.825,1.2,1.2,-2.22044604925031e-16,0.3,0.363636363636364,0.0636363636363636
"1","left_right_width","initial",12,3,3,1.74923820002005,0.9,1.3,0.3,0.25,0.3,0.15,6.49444569996558,2.05,"Exp1A",0,0.05,0.4,2.9,1.41463414634146,0.75,0.9,0.15,0.365853658536585,0.310344827586207,-0.0555088309503786
"1","left_right_width","match",14,5,4,0.735566399991512,0.675,0.7,0.6,0.4,0.35,0.15,3.20040900004096,3.1,"Exp1A",-1,-0.05,0.0249999999999999,2.45,0.790322580645161,2,1.4,-0.6,0.645161290322581,0.571428571428572,-0.0737327188940091
"1","left_right_width","initial",15,4,3,0.945641699945554,0.7,1,1.1,0.25,0.4,0.1,5.09896180010401,2.35,"Exp1A",-1,0.15,0.3,2.4,1.02127659574468,1,1.2,0.2,0.425531914893617,0.5,0.0744680851063829
"1","left_right_width","match",16,3,3,1.25542740011588,1.8,1.35,0.9,0.25,0.3,0.3,2.48271330003627,3.85,"Exp1A",0,0.05,-0.45,3,0.779220779220779,0.75,0.9,0.15,0.194805194805195,0.3,0.105194805194805
"1","left_right_width","initial",17,4,4,0.775474299909547,0.9,1,0.6,0.4,0.3,0.15,2.56600079988129,3.1,"Exp1A",0,-0.1,0.1,3.3,1.06451612903226,1.6,1.2,-0.4,0.516129032258065,0.363636363636364,-0.152492668621701
"1","left_right_width","initial",20,5,5,1.18871739995666,0.5,0.75,0.9,0.1,0.15,0.15,2.18046780000441,2.1,"Exp1A",0,0.05,0.25,3.15,1.5,0.5,0.75,0.25,0.238095238095238,0.238095238095238,2.77555756156289e-17
"1","left_right_width","match",21,4,4,1.71155459992588,0.6,0.6,1.1,0.4,0.35,0.45,5.13057909999043,2.2,"Exp1A",0,-0.05,-1.11022302462516e-16,2.15,0.977272727272727,1.6,1.4,-0.2,0.727272727272727,0.651162790697674,-0.0761099365750528
"1","left_right_width","match",22,3,3,1.11962180002593,1,0.95,1.3,0.1,0.1,0.3,4.7515266998671,2.1,"Exp1A",0,1.38777878078145e-17,-0.05,2,0.952380952380952,0.3,0.3,0,0.142857142857143,0.15,0.00714285714285715
"1","left_right_width","initial",23,3,2,0.784298700047657,0.9,1.6,1.6,0.4,0.6,0.2,3.34386610006914,2.2,"Exp1A",-1,0.2,0.7,2.2,1,1.2,1.2,-2.22044604925031e-16,0.545454545454546,0.545454545454545,-1.11022302462516e-16
"1","left_right_width","initial",24,4,3,0.844900500029325,0.9,1.05,1,0.25,0.35,0.15,2.00998060009442,2.95,"Exp1A",-1,0.1,0.15,2.45,0.830508474576271,1,1.05,0.0499999999999998,0.338983050847458,0.428571428571428,0.0895883777239709
"1","left_right_width","match",25,5,4,0.944282500073314,0.375,0.3,1.2,0.25,0.15,0.3,4.13673650007695,1.75,"Exp1A",-1,-0.1,-0.075,1.05,0.6,1.25,0.6,-0.65,0.714285714285714,0.571428571428572,-0.142857142857143
"1","left_right_width","initial",26,3,3,0.922737600049004,0.5,0.45,0.9,0.4,0.35,0.4,6.29047570005059,1.4,"Exp1A",0,-0.05,-0.05,1.25,0.892857142857143,1.2,1.05,-0.15,0.857142857142857,0.84,-0.0171428571428571
"1","left_right_width","initial",27,4,4,0.869111099978909,0.5,0.5,1,0.4,0.4,0.4,3.8173478001263,1.9,"Exp1A",0,0,0,1.9,1,1.6,1.6,0,0.842105263157895,0.842105263157895,0
"1","left_right_width","initial",30,3,2,1.57436099997722,0.5,0.7,1.6,0.1,0.2,0.35,4.72602099995129,1.1,"Exp1A",-1,0.1,0.2,0.9,0.818181818181818,0.3,0.4,0.1,0.272727272727273,0.444444444444445,0.171717171717172
"1","left_right_width","match",32,5,4,0.696195799857378,0.675,0.6,0.6,0.1,0.05,0.35,3.5004511999432,2.8,"Exp1A",-1,-0.05,-0.075,1.85,0.660714285714286,0.5,0.2,-0.3,0.178571428571429,0.108108108108108,-0.0704633204633204
"1","left_right_width","initial",34,3,2,1.03677319991402,0.7,1,1.6,0.4,0.5,0.2,4.49914839980192,1.8,"Exp1A",-1,0.0999999999999999,0.3,1.5,0.833333333333333,1.2,1,-0.2,0.666666666666667,0.666666666666667,-1.11022302462516e-16
"1","left_right_width","match",35,3,3,1.12487429985777,1.475,1.05,0.9,0.25,0.2,0.35,2.42351499991491,3.2,"Exp1A",0,-0.05,-0.425,2.3,0.71875,0.75,0.6,-0.15,0.234375,0.260869565217391,0.0264945652173913
"1","left_right_width","initial",36,4,3,0.808018099982291,0.7,1.2,1.2,0.4,0.45,0.3,3.11098150000907,2.5,"Exp1A",-1,0.0499999999999999,0.5,2.85,1.14,1.6,1.35,-0.25,0.64,0.473684210526316,-0.166315789473684
"1","left_right_width","initial",37,5,4,0.794850299833342,0.9,0.8,0.3,0.1,0.1,0.25,2.61798200011253,3.7,"Exp1A",-1,1.38777878078145e-17,-0.1,2.5,0.675675675675676,0.5,0.4,-0.0999999999999999,0.135135135135135,0.16,0.0248648648648649
"1","left_right_width","initial",38,5,4,6.04999840003438,0.5,0.8,0.8,0.25,0.15,0.15,1.08683349983767,2.25,"Exp1A",-1,-0.1,0.3,2.55,1.13333333333333,1.25,0.6,-0.65,0.555555555555556,0.235294117647059,-0.320261437908497
"1","left_right_width","match",39,4,4,1.51499049994163,0.466666666666667,0.4,0.3,0.1,0.1,0.2,2.23781260009855,1.5,"Exp1A",0,1.38777878078145e-17,-0.0666666666666667,1.3,0.866666666666667,0.4,0.4,5.55111512312578e-17,0.266666666666667,0.307692307692308,0.041025641025641
"1","left_right_width","match",40,3,2,1.19075169996358,1.4,1.6,1.6,0.1,0.1,0.4,2.08334750006907,2.9,"Exp1A",-1,6.93889390390723e-17,0.2,1.7,0.586206896551724,0.3,0.2,-0.0999999999999999,0.103448275862069,0.117647058823529,0.0141987829614605
"1","left_right_width","match",41,3,2,0.697480999864638,1,1.6,1.6,0.4,0.45,0.3,1.62822529999539,2.4,"Exp1A",-1,0.0499999999999999,0.6,2.05,0.854166666666667,1.2,0.9,-0.3,0.5,0.439024390243902,-0.0609756097560977
"1","left_right_width","match",42,5,4,0.892371700145304,0.525,0.7,1,0.25,0.25,0.1,2.48731540003791,2.35,"Exp1A",-1,0,0.175,2.35,1,1.25,1,-0.25,0.531914893617021,0.425531914893617,-0.106382978723404
"1","left_right_width","match",43,4,3,0.87072390015237,0.6,0.75,0.5,0.1,0.1,0.45,5.41055110003799,1.9,"Exp1A",-1,6.93889390390723e-17,0.15,1.6,0.842105263157895,0.4,0.3,-0.0999999999999998,0.210526315789474,0.1875,-0.0230263157894736
"1","left_right_width","initial",44,4,4,1.84272640012205,0.7,0.8,0.6,0.1,0.15,0.45,6.27777760010213,2.2,"Exp1A",0,0.0500000000000001,0.1,2.55,1.15909090909091,0.4,0.6,0.2,0.181818181818182,0.235294117647059,0.0534759358288771
"1","left_right_width","match",45,4,4,1.7092633000575,0.466666666666667,0.4,1.3,0.4,0.3,0.1,5.9570983001031,1.8,"Exp1A",0,-0.1,-0.0666666666666667,1.5,0.833333333333333,1.6,1.2,-0.4,0.888888888888889,0.8,-0.0888888888888891
"1","left_right_width","match",47,5,4,0.699263399932534,0.375,0.5,0.5,0.1,0.15,0.2,2.79949999996461,1.6,"Exp1A",-1,0.05,0.125,1.65,1.03125,0.5,0.6,0.1,0.3125,0.363636363636364,0.0511363636363637
"1","left_right_width","initial",49,5,4,0.786243200069293,0.7,0.8,0.6,0.1,0.1,0.1,2.77009040000848,2.9,"Exp1A",-1,0,0.1,2.5,0.862068965517242,0.5,0.4,-0.1,0.172413793103448,0.16,-0.0124137931034483
"1","left_right_width","initial",50,3,2,1.04556780005805,0.5,0.6,1.6,0.25,0.25,0.45,7.00216709985398,1.25,"Exp1A",-1,5.55111512312578e-17,0.1,0.85,0.68,0.75,0.5,-0.25,0.6,0.588235294117647,-0.0117647058823529
"1","left_right_width","initial",51,4,3,1.41963590006344,0.5,0.5,0.4,0.1,0.1,0.35,2.40258260001428,1.6,"Exp1A",-1,1.38777878078145e-17,0,1.1,0.6875,0.4,0.3,-0.1,0.25,0.272727272727273,0.0227272727272728
"1","left_right_width","initial",52,5,4,0.922500399872661,0.9,1,1,0.4,0.35,0.2,1.74656559992582,4,"Exp1A",-1,-0.05,0.1,3.35,0.8375,2,1.4,-0.6,0.5,0.417910447761194,-0.082089552238806
"1","left_right_width","match",1,5,4,0.915512999985367,0.375,0.5,1.2,0.1,0.1,0.3,3.93123580003157,1.6,"Exp1A",-1,1.38777878078145e-17,0.125,1.6,1,0.5,0.4,-0.0999999999999999,0.3125,0.25,-0.0624999999999999
"1","left_right_width","match",3,4,3,0.877561500063166,0.466666666666667,0.4,0.4,0.1,0.2,0.2,1.19379710010253,1.5,"Exp1A",-1,0.1,-0.0666666666666667,1,0.666666666666667,0.4,0.6,0.2,0.266666666666667,0.6,0.333333333333333
"1","left_right_width","match",4,4,3,1.07208170020021,0.466666666666667,0.5,0.8,0.25,0.2,0.3,2.72540870006196,1.65,"Exp1A",-1,-0.05,0.0333333333333333,1.2,0.727272727272727,1,0.6,-0.4,0.606060606060606,0.5,-0.106060606060606
"1","left_right_width","match",5,5,4,0.845633700024337,0.675,0.7,0.7,0.1,0.15,0.35,4.16987080010585,2.8,"Exp1A",-1,0.05,0.025,2.25,0.803571428571428,0.5,0.6,0.1,0.178571428571429,0.266666666666667,0.0880952380952382
"1","left_right_width","initial",6,4,3,0.859077099943534,0.7,0.65,0.6,0.4,0.35,0.15,2.88802780001424,2.5,"Exp1A",-1,-0.05,-0.0499999999999999,1.65,0.66,1.6,1.05,-0.55,0.64,0.636363636363636,-0.00363636363636377
"1","left_right_width","match",7,4,3,1.17889990005642,0.6,0.7,0.8,0.4,0.4,0.25,7.77007809979841,2.2,"Exp1A",-1,-5.55111512312578e-17,0.0999999999999999,1.8,0.818181818181818,1.6,1.2,-0.4,0.727272727272727,0.666666666666667,-0.0606060606060606
"1","left_right_width","match",8,5,4,0.774925600038841,0.4125,0.5,0.6,0.25,0.3,0.4,3.42862750007771,1.9,"Exp1A",-1,0.05,0.0875,1.8,0.947368421052632,1.25,1.2,-0.0499999999999998,0.657894736842105,0.666666666666667,0.00877192982456143
"1","left_right_width","match",9,3,3,0.901846599997953,1,0.85,0.8,0.25,0.2,0.4,2.14302760013379,2.25,"Exp1A",0,-0.0499999999999999,-0.15,1.9,0.844444444444444,0.75,0.6,-0.15,0.333333333333333,0.315789473684211,-0.0175438596491227
"1","left_right_width","initial",10,3,2,1.49562530010007,0.7,1.3,1.6,0.1,0.15,0.3,4.82623849995434,1.5,"Exp1A",-1,0.05,0.6,1.45,0.966666666666667,0.3,0.3,0,0.2,0.206896551724138,0.00689655172413789
"1","left_right_width","initial",11,3,3,0.834439200116321,0.7,1,1.1,0.25,0.3,0.3,1.51772339991294,1.65,"Exp1A",0,0.05,0.3,2.3,1.39393939393939,0.75,0.9,0.15,0.454545454545455,0.391304347826087,-0.0632411067193676
"1","left_right_width","match",12,3,2,0.69125029980205,1.475,2,1.6,0.25,0.25,0.4,2.10104510001838,3.2,"Exp1A",-1,5.55111512312578e-17,0.525,2.25,0.703125,0.75,0.5,-0.25,0.234375,0.222222222222222,-0.0121527777777777
"1","left_right_width","initial",13,5,4,1.01201910013333,0.7,0.8,0.4,0.1,0.15,0.3,2.9540277000051,2.9,"Exp1A",-1,0.05,0.1,2.55,0.879310344827586,0.5,0.6,0.1,0.172413793103448,0.235294117647059,0.0628803245436105
"1","left_right_width","match",15,3,2,1.25495390011929,1.8,2.4,1.6,0.4,0.3,0.3,2.3551120001357,4,"Exp1A",-1,-0.1,0.6,2.7,0.675,1.2,0.6,-0.6,0.3,0.222222222222222,-0.0777777777777778
"1","left_right_width","match",16,5,5,2.18167500011623,0.675,1,1,0.25,0.25,0.25,2.8620289999526,2.95,"Exp1A",0,0,0.325,4.25,1.44067796610169,1.25,1.25,0,0.423728813559322,0.294117647058824,-0.129611166500498
"1","left_right_width","initial",17,3,2,0.743614599807188,0.5,0.8,1.6,0.1,0.25,0.35,3.04953729989938,1.1,"Exp1A",-1,0.15,0.3,1.05,0.954545454545454,0.3,0.5,0.2,0.272727272727273,0.476190476190476,0.203463203463203
"1","left_right_width","initial",18,5,4,0.903514500008896,0.7,0.7,0.7,0.25,0.3,0.15,1.47450969996862,3.05,"Exp1A",-1,0.05,0,2.4,0.786885245901639,1.25,1.2,-0.05,0.409836065573771,0.5,0.0901639344262296
"1","left_right_width","initial",19,5,4,0.797754700062796,0.9,0.9,0.6,0.4,0.3,0.4,2.12588110007346,4,"Exp1A",-1,-0.1,0,3,0.75,2,1.2,-0.8,0.5,0.4,-0.0999999999999999
"1","left_right_width","match",20,5,4,0.750123099889606,0.675,0.7,0.5,0.4,0.3,0.2,1.90194289991632,3.1,"Exp1A",-1,-0.1,0.0249999999999999,2.4,0.774193548387097,2,1.2,-0.8,0.645161290322581,0.5,-0.145161290322581
"1","left_right_width","initial",21,3,2,0.886374199995771,0.5,0.5,1.6,0.4,0.4,0.15,9.58596020005643,1.4,"Exp1A",-1,-5.55111512312578e-17,0,0.9,0.642857142857143,1.2,0.8,-0.4,0.857142857142857,0.888888888888889,0.0317460317460317
"1","left_right_width","initial",22,4,4,1.4448261000216,0.9,0.8,0.3,0.25,0.2,0.2,2.05805839993991,2.95,"Exp1A",0,-0.05,-0.1,2.6,0.88135593220339,1,0.8,-0.2,0.338983050847458,0.307692307692308,-0.03129074315515
"1","left_right_width","initial",23,5,4,0.976398499915376,0.5,0.8,0.8,0.1,0.15,0.45,4.82451139995828,2.1,"Exp1A",-1,0.0500000000000001,0.3,2.55,1.21428571428571,0.5,0.6,0.1,0.238095238095238,0.235294117647059,-0.00280112044817915
"1","left_right_width","match",24,4,3,2.25321710016578,0.383333333333333,0.65,1.3,0.25,0.35,0.45,4.04731120006181,1.4,"Exp1A",-1,0.1,0.266666666666667,1.65,1.17857142857143,1,1.05,0.05,0.714285714285714,0.636363636363636,-0.0779220779220779
"1","left_right_width","match",25,4,4,1.09496579994448,0.333333333333333,0.4,1.1,0.1,0.1,0.1,4.04156069993041,1.1,"Exp1A",0,0,0.0666666666666667,1.3,1.18181818181818,0.4,0.4,0,0.363636363636364,0.307692307692308,-0.055944055944056
"1","left_right_width","initial",26,3,2,0.990603300044313,0.9,0.8,1.6,0.25,0.15,0.15,2.85483750002459,2.05,"Exp1A",-1,-0.1,-0.1,0.95,0.463414634146342,0.75,0.3,-0.45,0.365853658536585,0.315789473684211,-0.0500641848523749
"1","left_right_width","initial",27,5,4,1.17900749994442,0.7,0.8,1,0.4,0.35,0.35,2.82748909993097,3.2,"Exp1A",-1,-0.05,0.1,2.75,0.859375,2,1.4,-0.6,0.625,0.509090909090909,-0.115909090909091
"1","left_right_width","initial",28,5,5,1.43591380002908,0.9,1.05,1.1,0.1,0.2,0.45,4.099638100015,3.7,"Exp1A",0,0.1,0.15,4.4,1.18918918918919,0.5,1,0.5,0.135135135135135,0.227272727272727,0.0921375921375922
"1","left_right_width","match",29,3,2,1.48601699993014,1,1.6,1.6,0.4,0.1,0.1,6.8332631001249,2.4,"Exp1A",-1,-0.3,0.6,1.7,0.708333333333333,1.2,0.2,-1,0.5,0.117647058823529,-0.382352941176471
"1","left_right_width","match",30,3,2,1.88911109999754,1.4,2.3,1.6,0.25,0.35,0.35,2.02183849993162,3.05,"Exp1A",-1,0.1,0.9,2.65,0.868852459016394,0.75,0.7,-0.05,0.245901639344262,0.264150943396226,0.0182493040519641
"1","left_right_width","match",31,3,2,0.89626509998925,1,1.9,1.6,0.1,0.1,0.25,1.74080240004696,2.1,"Exp1A",-1,1.38777878078145e-17,0.9,2,0.952380952380952,0.3,0.2,-0.1,0.142857142857143,0.1,-0.0428571428571429
"1","left_right_width","initial",32,4,3,1.0900583001785,0.5,0.7,1.1,0.4,0.45,0.45,2.1024533000309,1.9,"Exp1A",-1,0.05,0.2,1.85,0.973684210526316,1.6,1.35,-0.25,0.842105263157895,0.72972972972973,-0.112375533428165
"1","left_right_width","initial",33,3,2,0.948319799965248,0.9,0.6,1.6,0.4,0.3,0.3,2.63158619985916,2.2,"Exp1A",-1,-0.1,-0.3,0.9,0.409090909090909,1.2,0.6,-0.6,0.545454545454546,0.666666666666667,0.121212121212121
"1","left_right_width","initial",34,3,2,1.02499050018378,0.9,1.5,1.6,0.1,0.4,0.4,8.72643499984406,1.9,"Exp1A",-1,0.3,0.6,1.9,1,0.3,0.8,0.5,0.157894736842105,0.421052631578947,0.263157894736842
"1","left_right_width","match",35,5,4,1.05820259987377,0.525,0.6,0.3,0.1,0.25,0.25,3.54257460008375,2.2,"Exp1A",-1,0.15,0.075,2.05,0.931818181818182,0.5,1,0.5,0.227272727272727,0.487804878048781,0.260532150776053
"1","left_right_width","match",36,3,2,0.911014300072566,1.8,2.3,1.6,0.1,0.15,0.25,3.04966319981031,3.7,"Exp1A",-1,0.05,0.5,2.45,0.662162162162162,0.3,0.3,0,0.0810810810810811,0.122448979591837,0.0413678985107557
"1","left_right_width","initial",37,5,5,1.63953849999234,0.5,0.5,0.5,0.4,0.25,0.15,2.18402149993926,2.4,"Exp1A",0,-0.15,0,2.25,0.9375,2,1.25,-0.75,0.833333333333333,0.555555555555556,-0.277777777777778
"1","left_right_width","initial",38,4,3,0.926837099948898,0.7,0.9,0.9,0.1,0.2,0.3,2.34432159992866,2.2,"Exp1A",-1,0.1,0.2,2,0.909090909090909,0.4,0.6,0.2,0.181818181818182,0.3,0.118181818181818
"1","left_right_width","initial",39,4,3,1.16296890005469,0.9,0.95,0.6,0.4,0.45,0.45,1.932104999898,3.1,"Exp1A",-1,0.05,0.0499999999999999,2.35,0.758064516129032,1.6,1.35,-0.25,0.516129032258065,0.574468085106383,0.0583390528483185
"1","left_right_width","initial",40,4,3,0.752923199906945,0.9,1.2,1.2,0.1,0.15,0.35,2.22592979995534,2.8,"Exp1A",-1,0.05,0.3,2.55,0.910714285714286,0.4,0.45,0.05,0.142857142857143,0.176470588235294,0.0336134453781513
"1","left_right_width","initial",41,4,3,0.960859100101516,0.7,0.8,0.6,0.25,0.25,0.1,2.32710710004903,2.35,"Exp1A",-1,0,0.1,1.85,0.787234042553192,1,0.75,-0.25,0.425531914893617,0.405405405405405,-0.0201265094882117
"1","left_right_width","match",42,4,3,1.84868549997918,0.466666666666667,1.05,0.4,0.4,0.6,0.1,13.2754443001468,1.8,"Exp1A",-1,0.2,0.583333333333333,2.7,1.5,1.6,1.8,0.2,0.888888888888889,0.666666666666667,-0.222222222222222
"1","left_right_width","match",45,4,3,1.03199260006659,0.333333333333333,0.45,0.7,0.25,0.25,0.25,2.08031210000627,1.25,"Exp1A",-1,0,0.116666666666667,1.15,0.92,1,0.75,-0.25,0.8,0.652173913043478,-0.147826086956522
"1","left_right_width","match",46,4,3,0.721586300060153,0.6,0.75,0.9,0.1,0.1,0.35,2.3413903999608,1.9,"Exp1A",-1,1.38777878078145e-17,0.15,1.6,0.842105263157895,0.4,0.3,-0.1,0.210526315789474,0.1875,-0.0230263157894737
"1","left_right_width","initial",48,3,2,0.701999900164083,0.5,0.7,1.6,0.25,0.4,0.4,2.52908330014907,1.25,"Exp1A",-1,0.15,0.2,1.1,0.88,0.75,0.8,0.05,0.6,0.727272727272727,0.127272727272727
"1","left_right_width","match",49,4,3,0.716263600159436,0.6,0.6,0.4,0.25,0.3,0.15,1.98000430013053,2.05,"Exp1A",-1,0.05,1.11022302462516e-16,1.5,0.731707317073171,1,0.9,-0.1,0.487804878048781,0.6,0.112195121951219
"1","left_right_width","initial",50,5,4,1.01010549999774,0.5,0.5,1.1,0.25,0.2,0.2,2.20116410008632,2.25,"Exp1A",-1,-0.05,0,1.7,0.755555555555556,1.25,0.8,-0.45,0.555555555555556,0.470588235294118,-0.0849673202614379
"1","left_right_width","match",51,5,4,0.855460699880496,0.375,0.4,0.4,0.25,0.25,0.1,4.40586899989285,1.75,"Exp1A",-1,0,0.025,1.45,0.828571428571429,1.25,1,-0.25,0.714285714285714,0.689655172413793,-0.0246305418719213
"1","left_right_width","initial",52,4,3,1.10477350000292,0.5,0.9,0.9,0.1,0.1,0.25,2.68950690003112,1.6,"Exp1A",-1,1.38777878078145e-17,0.4,1.9,1.1875,0.4,0.3,-0.1,0.25,0.157894736842105,-0.0921052631578947
"1","left_right_width","match",53,3,2,0.644707199884579,1.8,1.7,1.6,0.25,0.3,0.15,2.07397069991566,3.85,"Exp1A",-1,0.05,-0.1,2,0.519480519480519,0.75,0.6,-0.15,0.194805194805195,0.3,0.105194805194805
"1","left_right_width","match",54,3,2,1.0011136000976,1.4,1.6,1.6,0.1,0.0500000000000001,0.4,2.84698190004565,2.9,"Exp1A",-1,-0.0499999999999999,0.2,1.65,0.568965517241379,0.3,0.1,-0.2,0.103448275862069,0.0606060606060607,-0.0428422152560083
"1","left_right_width","initial",1,5,4,0.868894800078124,0.7,0.6,0.6,0.25,0.25,0.4,1.89495510002598,3.05,"Exp1A",-1,5.55111512312578e-17,-0.1,2.05,0.672131147540984,1.25,1,-0.25,0.409836065573771,0.487804878048781,0.0779688124750101
"1","left_right_width","match",2,4,3,0.673416200093925,0.383333333333333,0.55,1.3,0.25,0.3,0.3,3.90995200001635,1.4,"Exp1A",-1,0.05,0.166666666666667,1.4,1,1,0.9,-0.1,0.714285714285714,0.642857142857143,-0.0714285714285716
"1","left_right_width","initial",3,5,4,0.981913499999791,0.5,0.6,1.3,0.4,0.45,0.45,2.28675279999152,2.4,"Exp1A",-1,0.05,0.1,2.25,0.9375,2,1.8,-0.2,0.833333333333333,0.8,-0.0333333333333333
"1","left_right_width","match",4,5,4,0.927030599908903,0.375,0.4,0.4,0.1,0.1,0.3,5.51326659996994,1.6,"Exp1A",-1,1.38777878078145e-17,0.025,1.3,0.8125,0.5,0.4,-0.0999999999999999,0.3125,0.307692307692308,-0.00480769230769229
"1","left_right_width","initial",5,3,2,1.19295209995471,0.7,0.7,1.6,0.25,0.4,0.4,3.28905860008672,1.65,"Exp1A",-1,0.15,0,1.1,0.666666666666667,0.75,0.8,0.05,0.454545454545455,0.727272727272727,0.272727272727273
"1","left_right_width","initial",6,3,2,1.0516876000911,0.5,0.6,1.6,0.25,0.1,0.1,3.68135179998353,1.25,"Exp1A",-1,-0.15,0.1,0.7,0.56,0.75,0.2,-0.55,0.6,0.285714285714286,-0.314285714285714
"1","left_right_width","match",7,3,2,0.752250500023365,1,1.6,1.6,0.4,0.5,0.15,3.26489160000347,2.4,"Exp1A",-1,0.0999999999999999,0.6,2.1,0.875,1.2,1,-0.2,0.5,0.476190476190476,-0.023809523809524
"1","left_right_width","match",8,3,2,0.983394700102508,1,1.6,1.6,0.1,0.1,0.4,2.22377280006185,2.1,"Exp1A",-1,6.93889390390723e-17,0.6,1.7,0.80952380952381,0.3,0.2,-0.0999999999999999,0.142857142857143,0.117647058823529,-0.0252100840336134
"1","left_right_width","match",9,4,4,1.19077989994548,0.6,0.8,0.8,0.1,0.1,0.3,2.78925989987329,1.9,"Exp1A",0,1.38777878078145e-17,0.2,2.5,1.31578947368421,0.4,0.4,5.55111512312578e-17,0.210526315789474,0.16,-0.0505263157894737
"1","left_right_width","match",10,5,4,1.07085500005633,0.675,1.3,1.3,0.1,0.1,0.3,3.80634339991957,2.8,"Exp1A",-1,1.38777878078145e-17,0.625,4,1.42857142857143,0.5,0.4,-0.0999999999999999,0.178571428571429,0.1,-0.0785714285714286
"1","left_right_width","initial",11,4,4,1.89864509995095,0.9,0.9,0.9,0.25,0.25,0.15,1.40261629992165,2.95,"Exp1A",0,0,0,2.95,1,1,1,0,0.338983050847458,0.338983050847458,0
"1","left_right_width","initial",12,5,4,0.702133999904618,0.9,1,0.8,0.4,0.4,0.4,2.01390799996443,4,"Exp1A",-1,0,0.1,3.4,0.85,2,1.6,-0.4,0.5,0.470588235294118,-0.0294117647058823
"1","left_right_width","match",13,3,2,1.05675700004213,1.475,1.6,1.6,0.25,0.2,0.2,1.42669059988111,3.2,"Exp1A",-1,-0.05,0.125,1.8,0.5625,0.75,0.4,-0.35,0.234375,0.222222222222222,-0.0121527777777778
"1","left_right_width","match",14,3,2,0.808936199871823,1.8,2.3,1.6,0.4,0.4,0.35,2.18408509995788,4,"Exp1A",-1,-5.55111512312578e-17,0.5,2.7,0.675,1.2,0.8,-0.4,0.3,0.296296296296296,-0.00370370370370376
"1","left_right_width","initial",15,5,4,1.02074010018259,0.9,1.2,0.4,0.25,0.25,0.1,5.79475579992868,3.85,"Exp1A",-1,0,0.3,3.85,1,1.25,1,-0.25,0.324675324675325,0.25974025974026,-0.0649350649350649
"1","left_right_width","initial",16,3,3,1.36169059993699,0.7,0.75,0.8,0.1,0.1,0.3,2.32671499997377,1.5,"Exp1A",0,1.38777878078145e-17,0.05,1.6,1.06666666666667,0.3,0.3,0,0.2,0.1875,-0.0125
"1","left_right_width","initial",17,3,3,1.50753719988279,0.9,0.7,0.7,0.4,0.35,0.1,2.24551589996554,2.2,"Exp1A",0,-0.05,-0.2,1.75,0.795454545454545,1.2,1.05,-0.15,0.545454545454546,0.6,0.0545454545454543
"1","left_right_width","match",18,5,4,0.904919800115749,0.4125,0.5,0.9,0.25,0.3,0.3,1.84292449988425,1.9,"Exp1A",-1,0.05,0.0875,1.8,0.947368421052632,1.25,1.2,-0.05,0.657894736842105,0.666666666666667,0.00877192982456132
"1","left_right_width","match",19,5,4,1.10622580000199,0.675,0.7,0.5,0.25,0.25,0.25,1.82942750002258,2.95,"Exp1A",-1,0,0.0249999999999999,2.35,0.796610169491525,1.25,1,-0.25,0.423728813559322,0.425531914893617,0.00180310133429507
"1","left_right_width","initial",20,4,4,1.94017529999837,0.7,0.6,1,0.4,0.3,0.45,3.1579352999106,2.5,"Exp1A",0,-0.1,-0.1,2.1,0.84,1.6,1.2,-0.4,0.64,0.571428571428572,-0.0685714285714284
"1","left_right_width","initial",21,3,2,4.8415190000087,0.5,1.2,1.6,0.4,0.3,0.2,4.98350739991292,1.4,"Exp1A",-1,-0.1,0.7,1.5,1.07142857142857,1.2,0.6,-0.6,0.857142857142857,0.4,-0.457142857142857
"1","left_right_width","match",22,5,4,1.01598869985901,0.525,0.5,0.9,0.4,0.4,0.4,3.26275100000203,2.5,"Exp1A",-1,0,-0.025,1.9,0.76,2,1.6,-0.4,0.8,0.842105263157895,0.0421052631578948
"1","left_right_width","initial",23,3,2,1.19879259984009,0.5,0.7,1.6,0.1,0.15,0.25,3.17958409991115,1.1,"Exp1A",-1,0.05,0.2,0.85,0.772727272727273,0.3,0.3,0,0.272727272727273,0.352941176470588,0.0802139037433156
"1","left_right_width","match",24,4,4,1.7456625001505,0.333333333333333,0.4,0.4,0.1,0.1,0.3,3.28990060021169,1.1,"Exp1A",0,1.38777878078145e-17,0.0666666666666667,1.3,1.18181818181818,0.4,0.4,5.55111512312578e-17,0.363636363636364,0.307692307692308,-0.0559440559440559
"1","left_right_width","initial",25,4,4,0.755807699868456,0.5,0.5,1.1,0.4,0.4,0.45,10.9478768999688,1.9,"Exp1A",0,0,0,1.9,1,1.6,1.6,0,0.842105263157895,0.842105263157895,0
"1","left_right_width","initial",26,5,5,1.48888020007871,0.5,0.7,1.3,0.1,0.0999999999999999,0.4,5.71660079993308,2.1,"Exp1A",0,-6.93889390390723e-17,0.2,2.9,1.38095238095238,0.5,0.5,-3.33066907387547e-16,0.238095238095238,0.172413793103448,-0.0656814449917899
"1","left_right_width","initial",27,3,3,1.26433349982835,0.9,1.05,1,0.25,0.2,0.2,1.19718150002882,2.05,"Exp1A",0,-0.05,0.15,2.3,1.1219512195122,0.75,0.6,-0.15,0.365853658536585,0.260869565217391,-0.104984093319194
"1","left_right_width","match",28,4,3,1.09766509989277,0.466666666666667,0.75,1.2,0.1,0.15,0.4,2.73241749987938,1.5,"Exp1A",-1,0.0500000000000001,0.283333333333333,1.65,1.1,0.4,0.45,0.0500000000000002,0.266666666666667,0.272727272727273,0.00606060606060621
"1","left_right_width","initial",29,4,4,1.18030630005524,0.9,0.8,0.8,0.4,0.4,0.1,2.04535129992291,3.1,"Exp1A",0,-5.55111512312578e-17,-0.1,2.8,0.903225806451613,1.6,1.6,-2.22044604925031e-16,0.516129032258065,0.571428571428571,0.0552995391705068
"1","left_right_width","match",33,3,2,0.805520500056446,1.4,2.2,1.6,0.25,0.25,0.25,1.45949209993705,3.05,"Exp1A",-1,0,0.8,2.45,0.80327868852459,0.75,0.5,-0.25,0.245901639344262,0.204081632653061,-0.0418200066912011
"1","left_right_width","initial",35,5,4,0.8917612999212,0.5,0.6,0.6,0.25,0.35,0.15,1.46004400006495,2.25,"Exp1A",-1,0.1,0.1,2.15,0.955555555555555,1.25,1.4,0.15,0.555555555555556,0.651162790697674,0.0956072351421188
"1","left_right_width","match",36,3,2,0.655034400057048,1.4,1.7,1.6,0.1,0.1,0.4,2.25975049985573,2.9,"Exp1A",-1,6.93889390390723e-17,0.3,1.8,0.620689655172414,0.3,0.2,-0.0999999999999999,0.103448275862069,0.111111111111111,0.00766283524904221
"1","left_right_width","match",37,4,4,1.0897859998513,0.333333333333333,0.4,1.2,0.25,0.3,0.1,6.13426150009036,1.25,"Exp1A",0,0.05,0.0666666666666667,1.5,1.2,1,1.2,0.2,0.8,0.8,-2.22044604925031e-16
"1","left_right_width","match",38,3,3,0.903932499932125,1.8,1.4,1.1,0.1,0.15,0.15,1.80962439998984,3.7,"Exp1A",0,0.05,-0.4,2.95,0.797297297297297,0.3,0.45,0.15,0.0810810810810811,0.152542372881356,0.0714612918002749
"1","left_right_width","initial",39,4,3,0.800813599955291,0.7,0.8,0.5,0.25,0.25,0.15,1.98443000018597,2.35,"Exp1A",-1,0,0.1,1.85,0.787234042553192,1,0.75,-0.25,0.425531914893617,0.405405405405405,-0.0201265094882117
"1","left_right_width","match",40,5,4,1.35352299991064,0.525,0.5,0.3,0.25,0.1,0.1,2.3722529001534,2.35,"Exp1A",-1,-0.15,-0.025,1.6,0.680851063829787,1.25,0.4,-0.85,0.531914893617021,0.25,-0.281914893617021
"1","left_right_width","match",42,4,4,0.927090200129896,0.6,0.7,0.5,0.4,0.45,0.45,1.49723520013504,2.2,"Exp1A",0,0.05,0.0999999999999999,2.55,1.15909090909091,1.6,1.8,0.2,0.727272727272727,0.705882352941177,-0.0213903743315508
"1","left_right_width","initial",43,3,2,0.735107399988919,0.7,1.6,1.6,0.4,0.55,0.1,3.27896089991555,1.8,"Exp1A",-1,0.15,0.9,2.15,1.19444444444444,1.2,1.1,-0.1,0.666666666666667,0.511627906976744,-0.155038759689923
"1","left_right_width","initial",44,5,4,1.00886949989945,0.7,0.8,0.4,0.1,0.1,0.1,2.7580864999909,2.9,"Exp1A",-1,0,0.1,2.5,0.862068965517242,0.5,0.4,-0.1,0.172413793103448,0.16,-0.0124137931034483
"1","left_right_width","match",45,4,4,2.99364590016194,0.6,0.9,0.9,0.25,0.25,0.35,3.6570682998281,2.05,"Exp1A",0,0,0.3,2.95,1.4390243902439,1,1,0,0.487804878048781,0.338983050847458,-0.148821827201323
"1","left_right_width","match",46,4,3,1.6952795998659,0.466666666666667,0.4,0.9,0.4,0.25,0.2,5.03494079993106,1.8,"Exp1A",-1,-0.15,-0.0666666666666667,1.05,0.583333333333333,1.6,0.75,-0.85,0.888888888888889,0.714285714285714,-0.174603174603175
"1","left_right_width","initial",47,4,3,1.42545099998824,0.9,1.3,1.3,0.1,0.1,0.2,1.25677730003372,2.8,"Exp1A",-1,1.38777878078145e-17,0.4,2.7,0.964285714285714,0.4,0.3,-0.1,0.142857142857143,0.111111111111111,-0.0317460317460317
"1","left_right_width","match",48,3,2,0.843959699850529,1.8,2.1,1.6,0.25,0.3,0.15,1.92919990001246,3.85,"Exp1A",-1,0.05,0.3,2.4,0.623376623376623,0.75,0.6,-0.15,0.194805194805195,0.25,0.0551948051948052
"1","left_right_width","initial",49,4,3,0.81443229992874,0.5,0.5,0.4,0.25,0.3,0.3,1.35425990005024,1.75,"Exp1A",-1,0.05,0,1.3,0.742857142857143,1,0.9,-0.1,0.571428571428571,0.692307692307692,0.120879120879121
"1","left_right_width","initial",50,3,2,0.706817799946293,0.9,1.6,1.6,0.1,0.1,0.35,2.05080730002373,1.9,"Exp1A",-1,1.38777878078145e-17,0.7,1.7,0.894736842105263,0.3,0.2,-0.1,0.157894736842105,0.117647058823529,-0.0402476780185759
"1","left_right_width","match",51,5,4,1.02068299986422,0.375,0.5,0.7,0.25,0.4,0.4,1.07477940013632,1.75,"Exp1A",-1,0.15,0.125,1.9,1.08571428571429,1.25,1.6,0.35,0.714285714285714,0.842105263157895,0.12781954887218
"1","left_right_width","match",52,4,3,1.09169269981794,0.466666666666667,0.45,0.8,0.25,0.3,0.3,1.81580520002171,1.65,"Exp1A",-1,0.05,-0.0166666666666667,1.2,0.727272727272727,1,0.9,-0.1,0.606060606060606,0.75,0.143939393939394
"1","left_right_width","initial",53,4,4,0.736957800108939,0.7,0.8,0.8,0.1,0.0500000000000001,0.4,1.79512130003422,2.2,"Exp1A",0,-0.0499999999999999,0.1,2.45,1.11363636363636,0.4,0.2,-0.2,0.181818181818182,0.0816326530612246,-0.100185528756957
"1","left_right_width","match",54,5,4,0.723643299890682,0.525,0.5,0.5,0.1,0.0500000000000001,0.45,2.26205290015787,2.2,"Exp1A",-1,-0.0499999999999999,-0.025,1.55,0.704545454545454,0.5,0.2,-0.3,0.227272727272727,0.129032258064516,-0.0982404692082109
"1","left_right_width","initial",1,3,2,2.33178960019723,0.7,1.6,1.6,0.4,0.2,0.45,2.2181216001045,1.8,"Exp1A",-1,-0.2,0.9,1.8,1,1.2,0.4,-0.8,0.666666666666667,0.222222222222222,-0.444444444444444
"1","left_right_width","match",2,4,3,2.1828345998656,0.466666666666667,1.1,1.3,0.25,0.15,0.3,2.95936520001851,1.65,"Exp1A",-1,-0.1,0.633333333333333,2.35,1.42424242424242,1,0.45,-0.55,0.606060606060606,0.191489361702128,-0.414571244358478
"1","left_right_width","match",3,4,3,1.71359579986893,0.383333333333333,0.4,0.3,0.25,0.25,0.15,2.09063039999455,1.4,"Exp1A",-1,0,0.0166666666666667,1.05,0.75,1,0.75,-0.25,0.714285714285714,0.714285714285714,0
"1","left_right_width","initial",4,3,2,0.650913299992681,0.5,0.8,1.6,0.25,0.3,0.4,2.67264449992217,1.25,"Exp1A",-1,0.05,0.3,1.1,0.88,0.75,0.6,-0.15,0.6,0.545454545454546,-0.0545454545454545
"1","left_right_width","match",5,3,3,0.907536499900743,1.4,0.9,0.9,0.25,0.25,0.45,1.74818070000038,3.05,"Exp1A",0,5.55111512312578e-17,-0.5,2.05,0.672131147540984,0.75,0.75,2.22044604925031e-16,0.245901639344262,0.365853658536585,0.119952019192323
"1","left_right_width","initial",6,4,3,0.902868300210685,0.7,0.7,0.7,0.4,0.4,0.15,1.71189169981517,2.5,"Exp1A",-1,-5.55111512312578e-17,0,1.8,0.72,1.6,1.2,-0.4,0.64,0.666666666666667,0.0266666666666667
"1","left_right_width","initial",7,4,4,0.901935199974105,0.9,0.8,0.5,0.4,0.35,0.35,1.13652719999664,3.1,"Exp1A",0,-0.05,-0.1,2.75,0.887096774193548,1.6,1.4,-0.2,0.516129032258065,0.509090909090909,-0.00703812316715557
"1","left_right_width","match",8,4,3,1.37571789999492,0.466666666666667,0.45,0.4,0.4,0.35,0.15,1.78334860014729,1.8,"Exp1A",-1,-0.05,-0.0166666666666667,1.25,0.694444444444444,1.6,1.05,-0.55,0.888888888888889,0.84,-0.0488888888888891
"1","left_right_width","initial",9,5,4,0.768798799952492,0.9,1.3,1.3,0.4,0.45,0.2,1.56670639989898,4,"Exp1A",-1,0.0499999999999999,0.4,4.35,1.0875,2,1.8,-0.2,0.5,0.413793103448276,-0.0862068965517243
"1","left_right_width","match",11,5,4,0.81559420004487,0.525,0.5,0.3,0.25,0.2,0.1,2.09460989991203,2.35,"Exp1A",-1,-0.05,-0.025,1.7,0.723404255319149,1.25,0.8,-0.45,0.531914893617021,0.470588235294118,-0.0613266583229036
"1","left_right_width","match",12,3,2,0.861227799905464,1.8,1.7,1.6,0.1,0.1,0.2,2.05692539992742,3.7,"Exp1A",-1,1.38777878078145e-17,-0.1,1.8,0.486486486486486,0.3,0.2,-0.1,0.0810810810810811,0.111111111111111,0.03003003003003
"1","left_right_width","initial",13,5,4,1.1556910998188,0.7,0.9,0.9,0.25,0.3,0.45,1.42991150007583,3.05,"Exp1A",-1,0.05,0.2,3,0.983606557377049,1.25,1.2,-0.0499999999999998,0.409836065573771,0.4,-0.00983606557377043
"1","left_right_width","match",15,4,3,0.808160799788311,0.6,0.8,0.8,0.4,0.35,0.1,1.78364349994808,2.2,"Exp1A",-1,-0.05,0.2,1.95,0.886363636363636,1.6,1.05,-0.55,0.727272727272727,0.538461538461538,-0.188811188811189
"1","left_right_width","initial",16,3,2,1.30809090007097,0.7,1.1,1.6,0.25,0.35,0.35,1.94187949993648,1.65,"Exp1A",-1,0.1,0.4,1.45,0.878787878787879,0.75,0.7,-0.05,0.454545454545455,0.482758620689655,0.0282131661442005
"1","left_right_width","initial",17,5,4,1.00768499984406,0.7,0.8,0.3,0.1,0.15,0.15,1.44364389986731,2.9,"Exp1A",-1,0.05,0.1,2.55,0.879310344827586,0.5,0.6,0.1,0.172413793103448,0.235294117647059,0.0628803245436105
"1","left_right_width","initial",19,4,3,0.826255700085312,0.5,0.8,0.8,0.25,0.3,0.1,1.4650606000796,1.75,"Exp1A",-1,0.05,0.3,1.9,1.08571428571429,1,0.9,-0.1,0.571428571428571,0.473684210526316,-0.0977443609022557
"1","left_right_width","initial",20,3,2,0.814773899968714,0.7,1.1,1.6,0.1,0.1,0.15,1.83893369999714,1.5,"Exp1A",-1,-1.38777878078145e-17,0.4,1.2,0.8,0.3,0.2,-0.1,0.2,0.166666666666667,-0.0333333333333334
"1","left_right_width","initial",21,5,4,0.996481199981645,0.9,1.2,1.3,0.25,0.25,0.45,1.64516760013066,3.85,"Exp1A",-1,5.55111512312578e-17,0.3,3.85,1,1.25,1,-0.25,0.324675324675325,0.25974025974026,-0.0649350649350648
"1","left_right_width","match",22,5,4,1.1699806000106,0.675,1.3,1.3,0.4,0.45,0.15,1.69872119999491,3.1,"Exp1A",-1,0.0499999999999999,0.625,4.35,1.40322580645161,2,1.8,-0.2,0.645161290322581,0.413793103448276,-0.231368186874305
"1","left_right_width","initial",23,5,4,1.50917969993316,0.5,0.5,0.5,0.4,0.4,0.3,1.27267799992114,2.4,"Exp1A",-1,-5.55111512312578e-17,0,1.9,0.791666666666667,2,1.6,-0.4,0.833333333333333,0.842105263157895,0.00877192982456132
"1","left_right_width","initial",24,5,4,0.871759600006044,0.5,0.7,0.3,0.25,0.35,0.25,3.47561650001444,2.25,"Exp1A",-1,0.1,0.2,2.45,1.08888888888889,1.25,1.4,0.15,0.555555555555556,0.571428571428572,0.0158730158730159
"1","left_right_width","match",25,4,4,0.906916599953547,0.333333333333333,0.3,0.5,0.1,0.2,0.2,8.21336840000004,1.1,"Exp1A",0,0.1,-0.0333333333333334,1.1,1,0.4,0.8,0.4,0.363636363636364,0.727272727272727,0.363636363636364
"1","left_right_width","initial",26,3,2,0.831963200122118,0.5,1,1.6,0.1,0.1,0.25,1.70993260014802,1.1,"Exp1A",-1,1.38777878078145e-17,0.5,1.1,1,0.3,0.2,-0.1,0.272727272727273,0.181818181818182,-0.0909090909090909
"1","left_right_width","match",27,3,2,0.977818399900571,1,1.6,1.6,0.1,0.1,0.3,1.22616429999471,2.1,"Exp1A",-1,1.38777878078145e-17,0.6,1.7,0.80952380952381,0.3,0.2,-0.1,0.142857142857143,0.117647058823529,-0.0252100840336135
"1","left_right_width","initial",28,5,4,0.996681400109082,0.9,1.2,1.2,0.1,0.1,0.45,1.72620459995233,3.7,"Exp1A",-1,6.93889390390723e-17,0.3,3.7,1,0.5,0.4,-0.0999999999999997,0.135135135135135,0.108108108108108,-0.0270270270270269
"1","left_right_width","initial",31,4,3,1.05416150018573,0.5,1,1,0.1,0.15,0.25,3.47491590003483,1.6,"Exp1A",-1,0.05,0.5,2.15,1.34375,0.4,0.45,0.05,0.25,0.209302325581395,-0.0406976744186046
"1","left_right_width","initial",32,3,2,0.862379299942404,0.9,1.6,1.6,0.4,0.35,0.25,1.50164679996669,2.2,"Exp1A",-1,-0.05,0.7,1.95,0.886363636363636,1.2,0.7,-0.5,0.545454545454546,0.358974358974359,-0.186480186480187
"1","left_right_width","initial",33,5,4,1.01386710000224,0.7,0.7,0.4,0.4,0.3,0.3,1.06606990005821,3.2,"Exp1A",-1,-0.1,0,2.4,0.75,2,1.2,-0.8,0.625,0.5,-0.125
"1","left_right_width","initial",36,3,2,0.974973100004718,0.5,0.6,1.6,0.4,0.45,0.45,2.32717909989879,1.4,"Exp1A",-1,0.05,0.1,1.05,0.75,1.2,0.9,-0.3,0.857142857142857,0.857142857142857,-1.11022302462516e-16
"1","left_right_width","match",38,5,4,0.751492700073868,0.525,0.9,1.2,0.1,0.1,0.1,1.39328359998763,2.2,"Exp1A",-1,0,0.375,2.8,1.27272727272727,0.5,0.4,-0.1,0.227272727272727,0.142857142857143,-0.0844155844155844
"1","left_right_width","match",39,5,4,1.03955029998906,0.675,0.9,1.2,0.25,0.25,0.1,1.78208279982209,2.95,"Exp1A",-1,0,0.225,2.95,1,1.25,1,-0.25,0.423728813559322,0.338983050847458,-0.0847457627118644
"1","left_right_width","match",40,3,3,0.915994199924171,1.8,1.1,0.5,0.25,0.2,0.2,2.83120390004478,3.85,"Exp1A",0,-0.05,-0.7,2.4,0.623376623376623,0.75,0.6,-0.15,0.194805194805195,0.25,0.0551948051948052
"1","left_right_width","match",41,5,4,0.918495200108737,0.675,1,1.1,0.1,0.05,0.25,1.80856320005842,2.8,"Exp1A",-1,-0.05,0.325,3.05,1.08928571428571,0.5,0.2,-0.3,0.178571428571429,0.0655737704918033,-0.112997658079625
"1","left_right_width","match",42,4,3,0.874401599867269,0.466666666666667,0.7,0.7,0.1,0.1,0.35,1.59144430002198,1.5,"Exp1A",-1,1.38777878078145e-17,0.233333333333333,1.5,1,0.4,0.3,-0.1,0.266666666666667,0.2,-0.0666666666666666
"1","left_right_width","match",43,5,3,0.985018600011244,0.525,0.7,0.9,0.4,0.55,0.25,4.3368939999491,2.5,"Exp1A",-2,0.15,0.175,1.95,0.78,2,1.65,-0.35,0.8,0.846153846153846,0.0461538461538462
"1","left_right_width","match",44,4,4,0.956630300031975,0.6,0.5,0.4,0.1,0.15,0.3,3.81459359987639,1.9,"Exp1A",0,0.05,-0.1,1.65,0.868421052631579,0.4,0.6,0.2,0.210526315789474,0.363636363636364,0.15311004784689
"1","left_right_width","match",46,5,4,0.891648099990562,0.375,0.4,1.3,0.25,0.3,0.3,3.52623870014213,1.75,"Exp1A",-1,0.05,0.025,1.5,0.857142857142857,1.25,1.2,-0.05,0.714285714285714,0.8,0.0857142857142855
"1","left_right_width","match",47,3,3,1.12030049995519,1.475,0.55,0.6,0.25,0.25,0.25,8.03412920003757,3.2,"Exp1A",0,0,-0.925,1.35,0.421875,0.75,0.75,0,0.234375,0.555555555555555,0.321180555555555
"1","left_right_width","match",49,4,3,1.81307350005955,0.333333333333333,0.6,1,0.25,0.35,0.35,2.97127339988947,1.25,"Exp1A",-1,0.1,0.266666666666667,1.55,1.24,1,1.05,0.0499999999999998,0.8,0.67741935483871,-0.12258064516129
"1","left_right_width","match",50,3,2,0.653581199934706,1.4,1.6,1.6,0.1,0.1,0.4,1.66657410003245,2.9,"Exp1A",-1,6.93889390390723e-17,0.2,1.7,0.586206896551724,0.3,0.2,-0.0999999999999999,0.103448275862069,0.117647058823529,0.0141987829614605
"1","left_right_width","match",51,3,3,0.848566399887204,1.8,1.1,0.6,0.4,0.35,0.35,2.37574839987792,4,"Exp1A",0,-0.05,-0.7,2.55,0.6375,1.2,1.05,-0.15,0.3,0.411764705882353,0.111764705882353
"1","left_right_width","initial",52,4,3,0.73174410010688,0.5,0.5,0.9,0.4,0.4,0.4,2.02983330003917,1.9,"Exp1A",-1,0,0,1.4,0.736842105263158,1.6,1.2,-0.4,0.842105263157895,0.857142857142857,0.0150375939849625
"1","left_right_width","match",53,3,2,0.868424599990249,1,1.6,1.6,0.4,0.45,0.15,1.83737790002488,2.4,"Exp1A",-1,0.0499999999999999,0.6,2.05,0.854166666666667,1.2,0.9,-0.3,0.5,0.439024390243902,-0.0609756097560977
"10","up_down_width","match",1,4,4,2.51947049994487,0.6,0.6,0.6,0.1,0.1,0.45,10.1588341000024,1.9,"Exp1A",0,6.93889390390723e-17,0,1.9,1,0.4,0.4,2.77555756156289e-16,0.210526315789474,0.210526315789474,1.38777878078145e-16
"10","up_down_width","initial",2,3,3,2.36933110002428,0.5,0.8,0.9,0.1,0.1,0.25,13.8079316000221,1.1,"Exp1A",0,1.38777878078145e-17,0.3,1.7,1.54545454545455,0.3,0.3,0,0.272727272727273,0.176470588235294,-0.0962566844919786
"10","up_down_width","match",3,4,4,6.04166470002383,0.466666666666667,0.5,0.3,0.25,0.15,0.15,5.47676489991136,1.65,"Exp1A",0,-0.1,0.0333333333333333,1.65,1,1,0.6,-0.4,0.606060606060606,0.363636363636364,-0.242424242424242
"10","up_down_width","initial",4,3,3,2.41426210000645,0.9,1,1,0.1,0.1,0.2,6.28526679996867,1.9,"Exp1A",0,1.38777878078145e-17,0.1,2.1,1.10526315789474,0.3,0.3,0,0.157894736842105,0.142857142857143,-0.0150375939849624
"10","up_down_width","initial",5,4,4,1.73018100007903,0.7,0.6,0.5,0.1,0.1,0.15,6.69730410003103,2.2,"Exp1A",0,-1.38777878078145e-17,-0.1,1.9,0.863636363636364,0.4,0.4,-5.55111512312578e-17,0.181818181818182,0.210526315789474,0.0287081339712918
"10","up_down_width","match",6,4,4,2.00638260005508,0.333333333333333,0.6,0.9,0.25,0.2,0.2,5.23714230000041,1.25,"Exp1A",0,-0.05,0.266666666666667,2,1.6,1,0.8,-0.2,0.8,0.4,-0.4
"10","up_down_width","match",7,4,4,3.46773669996765,0.383333333333333,0.5,0.9,0.25,0.15,0.15,4.35236340004485,1.4,"Exp1A",0,-0.1,0.116666666666667,1.65,1.17857142857143,1,0.6,-0.4,0.714285714285714,0.363636363636364,-0.350649350649351
"10","up_down_width","initial",8,5,4,3.21091479994357,0.5,0.8,1.1,0.4,0.35,0.35,10.8420508999843,2.4,"Exp1A",-1,-0.05,0.3,2.75,1.14583333333333,2,1.4,-0.6,0.833333333333333,0.509090909090909,-0.324242424242424
"10","up_down_width","match",9,5,5,3.04828079999425,0.675,0.7,1,0.1,0.15,0.15,7.8696881000651,2.8,"Exp1A",0,0.05,0.025,2.95,1.05357142857143,0.5,0.75,0.25,0.178571428571429,0.254237288135593,0.0756658595641647
"10","up_down_width","initial",10,3,3,2.72562949999701,0.9,0.95,0.7,0.4,0.25,0.25,4.69318619999103,2.2,"Exp1A",0,-0.15,0.0499999999999999,2.15,0.977272727272727,1.2,0.75,-0.45,0.545454545454546,0.348837209302326,-0.19661733615222
"10","up_down_width","initial",11,5,5,2.04986149992328,0.9,0.7,0.5,0.1,0.15,0.35,8.59801840002183,3.7,"Exp1A",0,0.05,-0.2,2.95,0.797297297297297,0.5,0.75,0.25,0.135135135135135,0.254237288135593,0.119102153000458
"10","up_down_width","initial",12,3,3,2.29840179998428,0.5,0.9,1.3,0.25,0.25,0.45,11.3414929000428,1.25,"Exp1A",0,5.55111512312578e-17,0.4,2.05,1.64,0.75,0.75,2.22044604925031e-16,0.6,0.365853658536585,-0.234146341463415
"10","up_down_width","match",13,4,4,3.97538640000857,0.333333333333333,0.4,0.4,0.1,0.15,0.3,5.71972880000249,1.1,"Exp1A",0,0.05,0.0666666666666667,1.35,1.22727272727273,0.4,0.6,0.2,0.363636363636364,0.444444444444444,0.0808080808080808
"10","up_down_width","match",14,3,3,2.45826569991186,1.8,1.5,1.3,0.1,0.15,0.35,7.55888060003053,3.7,"Exp1A",0,0.05,-0.3,3.15,0.851351351351351,0.3,0.45,0.15,0.0810810810810811,0.142857142857143,0.0617760617760618
"10","up_down_width","initial",15,4,4,1.87232699990273,0.9,1.2,0.6,0.1,0.1,0.2,5.15574299998116,2.8,"Exp1A",0,1.38777878078145e-17,0.3,3.7,1.32142857142857,0.4,0.4,5.55111512312578e-17,0.142857142857143,0.108108108108108,-0.0347490347490347
"10","up_down_width","initial",16,3,3,2.55109399999492,0.7,1.3,1.3,0.25,0.2,0.35,4.73307379998732,1.65,"Exp1A",0,-0.05,0.6,2.8,1.6969696969697,0.75,0.6,-0.15,0.454545454545455,0.214285714285714,-0.24025974025974
"10","up_down_width","match",17,5,5,1.62704390008003,0.4125,0.95,1,0.25,0.15,0.35,10.7451274999185,1.9,"Exp1A",0,-0.1,0.5375,3.95,2.07894736842105,1.25,0.75,-0.5,0.657894736842105,0.189873417721519,-0.468021319120586
"10","up_down_width","initial",18,5,4,2.54040599998552,0.5,0.7,0.6,0.1,0.2,0.45,6.86987579998095,2.1,"Exp1A",-1,0.1,0.2,2.3,1.0952380952381,0.5,0.8,0.3,0.238095238095238,0.347826086956522,0.109730848861284
"10","up_down_width","initial",19,4,5,2.72416950005572,0.7,0.85,0.9,0.25,0.2,0.2,7.41439320007339,2.35,"Exp1A",1,-0.05,0.15,3.6,1.53191489361702,1,1,0,0.425531914893617,0.277777777777778,-0.147754137115839
"10","up_down_width","match",20,3,3,2.17508770001587,1.4,1.15,0.8,0.1,0.15,0.2,12.3859243000625,2.9,"Exp1A",0,0.05,-0.25,2.45,0.844827586206896,0.3,0.45,0.15,0.103448275862069,0.183673469387755,0.0802251935256862
"10","up_down_width","initial",22,5,4,2.92574350000359,0.7,0.6,1.3,0.4,0.25,0.3,6.54968259995803,3.2,"Exp1A",-1,-0.15,-0.1,2.05,0.640625,2,1,-1,0.625,0.487804878048781,-0.137195121951219
"10","up_down_width","match",23,4,4,2.59641960007139,0.6,0.7,0.8,0.4,0.45,0.45,3.25881490006577,2.2,"Exp1A",0,0.05,0.0999999999999999,2.55,1.15909090909091,1.6,1.8,0.2,0.727272727272727,0.705882352941177,-0.0213903743315508
"10","up_down_width","match",24,5,5,1.67568129999563,0.675,0.55,0.8,0.25,0.25,0.25,5.43229489994701,2.95,"Exp1A",0,0,-0.125,2.45,0.830508474576271,1.25,1.25,0,0.423728813559322,0.510204081632653,0.0864752680733311
"10","up_down_width","match",25,5,5,2.56444870005362,0.525,0.65,0.8,0.4,0.45,0.45,4.09296689997427,2.5,"Exp1A",0,0.05,0.125,3.05,1.22,2,2.25,0.25,0.8,0.737704918032787,-0.0622950819672132
"10","up_down_width","initial",26,4,4,2.56070289993659,0.5,0.7,1.2,0.25,0.4,0.4,2.62104730005376,1.75,"Exp1A",0,0.15,0.2,2.5,1.42857142857143,1,1.6,0.6,0.571428571428571,0.64,0.0685714285714287
"10","up_down_width","match",27,3,3,3.16971009992994,1,0.85,1.3,0.25,0.45,0.15,13.0399678999092,2.25,"Exp1A",0,0.2,-0.15,2.15,0.955555555555555,0.75,1.35,0.6,0.333333333333333,0.627906976744186,0.294573643410853
"10","up_down_width","match",28,3,3,2.11574809998274,1.475,1.3,1.2,0.25,0.3,0.25,4.65369069995359,3.2,"Exp1A",0,0.05,-0.175,2.9,0.90625,0.75,0.9,0.15,0.234375,0.310344827586207,0.0759698275862069
"10","up_down_width","match",29,4,4,3.06110990000889,0.6,0.7,0.7,0.25,0.25,0.25,1.27368159999605,2.05,"Exp1A",0,0,0.1,2.35,1.14634146341463,1,1,0,0.487804878048781,0.425531914893617,-0.0622729631551635
"10","up_down_width","initial",30,4,4,1.49159310001414,0.9,1,0.6,0.25,0.2,0.25,4.26343910000287,2.95,"Exp1A",0,-0.05,0.1,3.2,1.08474576271186,1,0.8,-0.2,0.338983050847458,0.25,-0.0889830508474576
"10","up_down_width","match",31,3,3,1.92992989998311,1,0.85,0.5,0.1,0.2,0.45,6.36224809999112,2.1,"Exp1A",0,0.1,-0.15,1.9,0.904761904761905,0.3,0.6,0.3,0.142857142857143,0.315789473684211,0.172932330827068
"10","up_down_width","initial",32,3,3,2.63116730004549,0.5,0.7,1,0.4,0.55,0.2,12.380613300018,1.4,"Exp1A",0,0.15,0.2,1.95,1.39285714285714,1.2,1.65,0.45,0.857142857142857,0.846153846153846,-0.0109890109890109
"10","up_down_width","initial",33,3,3,2.02011669997592,0.7,0.7,0.9,0.4,0.45,0.25,8.27192389999982,1.8,"Exp1A",0,0.0499999999999999,0,1.85,1.02777777777778,1.2,1.35,0.15,0.666666666666667,0.72972972972973,0.063063063063063
"10","up_down_width","initial",34,3,3,2.23158619995229,0.9,0.95,0.6,0.25,0.4,0.2,7.37294370005839,2.05,"Exp1A",0,0.15,0.0499999999999999,2.3,1.1219512195122,0.75,1.2,0.45,0.365853658536585,0.521739130434783,0.155885471898197
"10","up_down_width","match",35,3,3,1.85490660008509,1.8,1.6,1.1,0.4,0.55,0.3,7.17124669998884,4,"Exp1A",0,0.15,-0.2,3.75,0.9375,1.2,1.65,0.45,0.3,0.44,0.14
"10","up_down_width","initial",36,4,3,2.00540609995369,0.5,1,1,0.4,0.8,0.1,7.08742220001295,1.9,"Exp1A",-1,0.4,0.5,2.8,1.47368421052632,1.6,2.4,0.8,0.842105263157895,0.857142857142857,0.0150375939849624
"10","up_down_width","initial",37,5,5,1.79176200006623,0.9,0.7,1.1,0.4,0.35,0.45,6.70866759994533,4,"Exp1A",0,-0.05,-0.2,3.15,0.7875,2,1.75,-0.25,0.5,0.555555555555556,0.0555555555555557
"10","up_down_width","initial",38,3,3,1.98696999996901,0.7,0.9,0.9,0.1,0.15,0.4,9.07540490000974,1.5,"Exp1A",0,0.0500000000000001,0.2,1.95,1.3,0.3,0.45,0.15,0.2,0.230769230769231,0.0307692307692308
"10","up_down_width","match",39,5,4,1.91958220000379,0.525,0.6,1.3,0.1,0.05,0.1,10.3519757000031,2.2,"Exp1A",-1,-0.05,0.075,1.85,0.840909090909091,0.5,0.2,-0.3,0.227272727272727,0.108108108108108,-0.119164619164619
"10","up_down_width","match",40,5,4,1.85014200001024,0.375,0.4,0.4,0.25,0.2,0.25,5.12262709997594,1.75,"Exp1A",-1,-0.05,0.025,1.4,0.8,1.25,0.8,-0.45,0.714285714285714,0.571428571428571,-0.142857142857143
"10","up_down_width","match",41,3,4,2.36377920000814,1.4,0.9,1.3,0.25,0.25,0.45,5.08255200006533,3.05,"Exp1A",1,5.55111512312578e-17,-0.5,2.95,0.967213114754098,0.75,1,0.25,0.245901639344262,0.338983050847458,0.0930814115031953
"10","up_down_width","match",42,3,3,2.89938580000307,1,0.6,0.5,0.4,0.25,0.4,7.87087969994172,2.4,"Exp1A",0,-0.15,-0.4,1.45,0.604166666666667,1.2,0.75,-0.45,0.5,0.517241379310345,0.0172413793103449
"10","up_down_width","initial",43,4,4,2.54472929995973,0.7,0.7,1.1,0.4,0.5,0.15,5.20726509997621,2.5,"Exp1A",0,0.0999999999999999,0,2.6,1.04,1.6,2,0.4,0.64,0.769230769230769,0.129230769230769
"10","up_down_width","match",44,5,5,1.54315370006952,0.525,0.55,0.6,0.25,0.25,0.1,4.79310199990869,2.35,"Exp1A",0,0,0.025,2.45,1.04255319148936,1.25,1.25,0,0.531914893617021,0.510204081632653,-0.0217108119843682
"10","up_down_width","initial",45,5,5,1.76505679998081,0.9,0.95,1.1,0.25,0.25,0.35,4.51002070005052,3.85,"Exp1A",0,0,0.0499999999999999,4.05,1.05194805194805,1.25,1.25,0,0.324675324675325,0.308641975308642,-0.0160333493666827
"10","up_down_width","match",46,5,5,1.64393619995099,0.375,0.6,0.7,0.1,0.15,0.15,4.08610199997202,1.6,"Exp1A",0,0.05,0.225,2.55,1.59375,0.5,0.75,0.25,0.3125,0.294117647058824,-0.0183823529411765
"10","up_down_width","match",47,4,4,1.48494599992409,0.466666666666667,0.6,1,0.4,0.4,0.1,7.93423159990925,1.8,"Exp1A",0,-5.55111512312578e-17,0.133333333333333,2.2,1.22222222222222,1.6,1.6,-2.22044604925031e-16,0.888888888888889,0.727272727272727,-0.161616161616162
"10","up_down_width","initial",48,5,5,2.06303179997485,0.5,0.5,0.5,0.25,0.2,0.2,2.49089490005281,2.25,"Exp1A",0,-0.05,0,2.2,0.977777777777778,1.25,1,-0.25,0.555555555555556,0.454545454545455,-0.101010101010101
"10","up_down_width","initial",49,4,4,2.44835680001415,0.5,0.6,0.6,0.1,0.1,0.25,6.30309010006022,1.6,"Exp1A",0,1.38777878078145e-17,0.1,1.9,1.1875,0.4,0.4,5.55111512312578e-17,0.25,0.210526315789474,-0.0394736842105263
"10","up_down_width","match",50,3,3,2.12212239997461,1.8,1.05,0.5,0.25,0.1,0.45,11.427823200007,3.85,"Exp1A",0,-0.15,-0.75,2.2,0.571428571428572,0.75,0.3,-0.45,0.194805194805195,0.136363636363636,-0.0584415584415584
"10","up_down_width","match",51,5,4,1.42212090000976,0.675,0.9,1.2,0.4,0.25,0.15,5.31791089999024,3.1,"Exp1A",-1,-0.15,0.225,2.95,0.951612903225806,2,1,-1,0.645161290322581,0.338983050847458,-0.306178239475123
"10","up_down_width","initial",52,5,5,2.51438180007972,0.7,0.85,1.1,0.1,0.1,0.25,6.09039060003124,2.9,"Exp1A",0,1.38777878078145e-17,0.15,3.5,1.20689655172414,0.5,0.5,1.11022302462516e-16,0.172413793103448,0.142857142857143,-0.0295566502463054
"10","up_down_width","initial",53,4,4,1.65745060006157,0.9,0.9,0.4,0.4,0.2,0.3,6.32424320001155,3.1,"Exp1A",0,-0.2,0,2.9,0.935483870967742,1.6,0.8,-0.8,0.516129032258065,0.275862068965517,-0.240266963292547
"10","up_down_width","initial",54,5,5,1.61542379995808,0.7,0.85,1,0.25,0.2,0.3,4.04351809993386,3.05,"Exp1A",0,-0.05,0.15,3.6,1.18032786885246,1.25,1,-0.25,0.409836065573771,0.277777777777778,-0.132058287795993
"10","up_down_width","match",1,4,4,1.5402150999289,0.466666666666667,0.5,1.1,0.25,0.2,0.25,4.70665369997732,1.65,"Exp1A",0,-0.05,0.0333333333333333,1.7,1.03030303030303,1,0.8,-0.2,0.606060606060606,0.470588235294118,-0.135472370766488
"10","up_down_width","initial",2,4,5,1.79988619999494,0.9,0.65,0.7,0.25,0.25,0.45,5.39210739999544,2.95,"Exp1A",1,5.55111512312578e-17,-0.25,2.85,0.966101694915254,1,1.25,0.25,0.338983050847458,0.43859649122807,0.0996134403806127
"10","up_down_width","initial",3,3,4,2.22343869996257,0.5,0.6,1.2,0.4,0.35,0.35,5.23944329994265,1.4,"Exp1A",1,-0.05,0.1,2.15,1.53571428571429,1.2,1.4,0.2,0.857142857142857,0.651162790697674,-0.205980066445183
"10","up_down_width","initial",4,5,5,1.53684790001716,0.9,0.95,1.1,0.4,0.5,0.15,5.37841000000481,4,"Exp1A",0,0.0999999999999999,0.0499999999999999,4.3,1.075,2,2.5,0.5,0.5,0.581395348837209,0.0813953488372092
"10","up_down_width","match",5,4,4,2.13178289995994,0.466666666666667,0.7,0.3,0.4,0.6,0.2,12.4782150000101,1.8,"Exp1A",0,0.2,0.233333333333333,2.7,1.5,1.6,2.4,0.8,0.888888888888889,0.888888888888889,0
"10","up_down_width","initial",6,5,5,1.82096749998163,0.5,0.5,0.8,0.25,0.25,0.35,5.95355209999252,2.25,"Exp1A",0,0,0,2.25,1,1.25,1.25,0,0.555555555555556,0.555555555555556,0
"10","up_down_width","match",7,3,3,2.66382879996672,1,0.65,0.4,0.1,0.05,0.3,5.64268239994999,2.1,"Exp1A",0,-0.05,-0.35,1.35,0.642857142857143,0.3,0.15,-0.15,0.142857142857143,0.111111111111111,-0.0317460317460317
"10","up_down_width","match",8,3,3,2.69885970000178,1.8,0.95,0.5,0.25,0.15,0.45,7.82095409999602,3.85,"Exp1A",0,-0.0999999999999999,-0.85,2.05,0.532467532467532,0.75,0.45,-0.3,0.194805194805195,0.219512195121951,0.0247070003167565
"10","up_down_width","match",9,5,4,2.37990660010837,0.375,0.8,0.6,0.1,0.2,0.25,4.42679659998976,1.6,"Exp1A",-1,0.1,0.425,2.6,1.625,0.5,0.8,0.3,0.3125,0.307692307692308,-0.00480769230769235
"10","up_down_width","initial",10,4,4,1.38344439992215,0.7,0.7,0.6,0.4,0.45,0.3,4.1216244000243,2.5,"Exp1A",0,0.0499999999999999,0,2.55,1.02,1.6,1.8,0.2,0.64,0.705882352941176,0.0658823529411764
"10","up_down_width","initial",11,4,4,2.41126309998799,0.5,0.7,0.6,0.1,0.3,0.3,4.95166180003434,1.6,"Exp1A",0,0.2,0.2,2.4,1.5,0.4,1.2,0.8,0.25,0.5,0.25
"10","up_down_width","initial",12,4,4,1.36637190007605,0.7,0.7,1.3,0.25,0.2,0.4,4.15983259992208,2.35,"Exp1A",0,-0.0499999999999999,0,2.3,0.978723404255319,1,0.8,-0.2,0.425531914893617,0.347826086956522,-0.0777058279370952
"10","up_down_width","match",13,4,5,2.19774360000156,0.6,0.65,0.8,0.4,0.2,0.45,4.9196677999571,2.2,"Exp1A",1,-0.2,0.0499999999999999,2.8,1.27272727272727,1.6,1,-0.6,0.727272727272727,0.357142857142857,-0.37012987012987
"10","up_down_width","match",14,4,4,1.54026839998551,0.333333333333333,0.8,0.7,0.1,0.15,0.4,7.11050409998279,1.1,"Exp1A",0,0.0500000000000001,0.466666666666667,2.55,2.31818181818182,0.4,0.6,0.2,0.363636363636364,0.235294117647059,-0.128342245989305
"10","up_down_width","match",15,4,4,1.48374739999417,0.466666666666667,0.8,0.5,0.1,0.1,0.3,6.86374400008935,1.5,"Exp1A",0,1.38777878078145e-17,0.333333333333333,2.5,1.66666666666667,0.4,0.4,5.55111512312578e-17,0.266666666666667,0.16,-0.106666666666667
"10","up_down_width","initial",16,5,2,1.78983210003935,0.7,1.5,1.6,0.25,0.2,0.3,4.11603619996458,3.05,"Exp1A",-3,-0.05,0.8,1.7,0.557377049180328,1.25,0.4,-0.85,0.409836065573771,0.235294117647059,-0.174541947926712
"10","up_down_width","initial",17,3,3,1.44929920008872,0.5,0.85,0.4,0.1,0.15,0.3,6.87854989990592,1.1,"Exp1A",0,0.05,0.35,1.85,1.68181818181818,0.3,0.45,0.15,0.272727272727273,0.243243243243243,-0.0294840294840295
"10","up_down_width","initial",18,3,3,1.90765770000871,0.7,1,1,0.4,0.5,0.25,3.60421100002714,1.8,"Exp1A",0,0.0999999999999999,0.3,2.5,1.38888888888889,1.2,1.5,0.3,0.666666666666667,0.6,-0.0666666666666669
"10","up_down_width","match",19,4,4,2.37427070003469,0.6,0.6,0.6,0.1,0.1,0.3,4.51886469998863,1.9,"Exp1A",0,1.38777878078145e-17,0,1.9,1,0.4,0.4,5.55111512312578e-17,0.210526315789474,0.210526315789474,2.77555756156289e-17
"10","up_down_width","match",20,5,5,1.48640239995439,0.525,0.45,0.3,0.1,0.05,0.2,3.55203979997896,2.2,"Exp1A",0,-0.05,-0.075,1.85,0.840909090909091,0.5,0.25,-0.25,0.227272727272727,0.135135135135135,-0.0921375921375921
"10","up_down_width","match",21,5,5,1.86622949992307,0.675,0.7,0.7,0.25,0.25,0.15,2.78351009998005,2.95,"Exp1A",0,0,0.0249999999999999,3.05,1.03389830508475,1.25,1.25,0,0.423728813559322,0.409836065573771,-0.0138927479855515
"10","up_down_width","match",22,5,5,1.94465920003131,0.675,0.5,1.2,0.4,0.2,0.35,8.9859032999957,3.1,"Exp1A",0,-0.2,-0.175,2.2,0.709677419354839,2,1,-1,0.645161290322581,0.454545454545455,-0.190615835777126
"10","up_down_width","match",23,3,2,1.57680179993622,1.8,1.8,1.6,0.4,0.5,0.2,7.29870199994184,4,"Exp1A",-1,0.0999999999999999,2.22044604925031e-16,2.3,0.575,1.2,1,-0.2,0.3,0.434782608695652,0.134782608695652
"10","up_down_width","match",24,3,2,2.12962789996527,1.4,2.2,1.6,0.25,0.3,0.3,2.79487959994003,3.05,"Exp1A",-1,0.05,0.8,2.5,0.819672131147541,0.75,0.6,-0.15,0.245901639344262,0.24,-0.00590163934426233
"10","up_down_width","initial",25,3,2,1.8063581000315,0.5,1.6,1.6,0.25,0.3,0.4,2.94811260001734,1.25,"Exp1A",-1,0.05,1.1,1.9,1.52,0.75,0.6,-0.15,0.6,0.315789473684211,-0.284210526315789
"10","up_down_width","match",26,4,3,2.01195369998459,0.6,0.9,0.9,0.25,0.2,0.15,5.25603960000444,2.05,"Exp1A",-1,-0.05,0.3,2,0.975609756097561,1,0.6,-0.4,0.487804878048781,0.3,-0.18780487804878
"10","up_down_width","initial",27,5,4,1.13638969999738,0.7,0.7,0.8,0.4,0.3,0.4,4.88244920002762,3.2,"Exp1A",-1,-0.1,0,2.4,0.75,2,1.2,-0.8,0.625,0.5,-0.125
"10","up_down_width","match",28,3,2,1.60709939990193,1.4,1.6,1.6,0.1,0.1,0.4,2.88347130001057,2.9,"Exp1A",-1,6.93889390390723e-17,0.2,1.7,0.586206896551724,0.3,0.2,-0.0999999999999999,0.103448275862069,0.117647058823529,0.0141987829614605
"10","up_down_width","initial",29,3,3,1.90687509998679,0.9,1,0.5,0.25,0.15,0.1,9.87630760006141,2.05,"Exp1A",0,-0.1,0.1,2.15,1.04878048780488,0.75,0.45,-0.3,0.365853658536585,0.209302325581395,-0.15655133295519
"10","up_down_width","initial",30,3,3,1.85275880002882,0.7,0.95,0.9,0.1,0.0500000000000001,0.4,6.20991620002314,1.5,"Exp1A",0,-0.0499999999999999,0.25,1.95,1.3,0.3,0.15,-0.15,0.2,0.076923076923077,-0.123076923076923
"10","up_down_width","initial",31,4,4,2.43197270005476,0.5,0.4,1.2,0.4,0.25,0.45,7.03591750003397,1.9,"Exp1A",0,-0.15,-0.1,1.45,0.763157894736842,1.6,1,-0.6,0.842105263157895,0.689655172413793,-0.152450090744102
"10","up_down_width","initial",32,5,4,1.40473820001353,0.5,0.6,1.1,0.4,0.4,0.1,5.50484010006767,2.4,"Exp1A",-1,-5.55111512312578e-17,0.1,2.2,0.916666666666667,2,1.6,-0.4,0.833333333333333,0.727272727272727,-0.106060606060606
"10","up_down_width","match",33,4,4,1.92380729992874,0.333333333333333,0.5,0.8,0.25,0.4,0.2,10.2142945999512,1.25,"Exp1A",0,0.15,0.166666666666667,1.9,1.52,1,1.6,0.6,0.8,0.842105263157895,0.0421052631578946
"10","up_down_width","match",35,3,3,1.86391309997998,1.8,1.25,0.5,0.1,0.1,0.35,6.76581320003606,3.7,"Exp1A",0,1.38777878078145e-17,-0.55,2.6,0.702702702702703,0.3,0.3,0,0.0810810810810811,0.115384615384615,0.0343035343035343
"10","up_down_width","initial",36,5,5,1.21638540003914,0.9,1.1,1.1,0.25,0.25,0.3,5.58140260004438,3.85,"Exp1A",0,0,0.2,4.65,1.20779220779221,1.25,1.25,0,0.324675324675325,0.268817204301075,-0.0558581203742494
"10","up_down_width","initial",37,4,4,1.39454589993693,0.5,0.5,0.4,0.25,0.2,0.1,5.49712820001878,1.75,"Exp1A",0,-0.05,0,1.7,0.971428571428571,1,0.8,-0.2,0.571428571428571,0.470588235294118,-0.100840336134454
"10","up_down_width","initial",38,4,4,1.8703185999766,0.9,0.7,0.8,0.1,0.15,0.2,4.17868130002171,2.8,"Exp1A",0,0.05,-0.2,2.25,0.803571428571428,0.4,0.6,0.2,0.142857142857143,0.266666666666667,0.123809523809524
"10","up_down_width","initial",39,4,5,1.47999679995701,0.7,0.6,0.7,0.1,0.1,0.3,4.2332313999068,2.2,"Exp1A",1,1.38777878078145e-17,-0.1,2.5,1.13636363636364,0.4,0.5,0.1,0.181818181818182,0.2,0.0181818181818182
"10","up_down_width","match",40,5,4,1.16124290006701,0.375,0.4,1.3,0.25,0.25,0.35,6.74386160005815,1.75,"Exp1A",-1,0,0.025,1.45,0.828571428571429,1.25,1,-0.25,0.714285714285714,0.689655172413793,-0.0246305418719213
"10","up_down_width","initial",41,5,5,1.64598589995876,0.5,0.45,0.4,0.1,0.15,0.15,2.92336960008834,2.1,"Exp1A",0,0.05,-0.05,1.95,0.928571428571428,0.5,0.75,0.25,0.238095238095238,0.384615384615385,0.146520146520147
"10","up_down_width","initial",42,5,5,1.5619854000397,0.9,0.85,1.3,0.1,0.1,0.35,8.05811279988848,3.7,"Exp1A",0,1.38777878078145e-17,-0.05,3.5,0.945945945945946,0.5,0.5,1.11022302462516e-16,0.135135135135135,0.142857142857143,0.00772200772200776
"10","up_down_width","match",43,5,5,1.67439989990089,0.675,0.9,1,0.1,0.1,0.3,5.44546810002066,2.8,"Exp1A",0,1.38777878078145e-17,0.225,3.7,1.32142857142857,0.5,0.5,1.11022302462516e-16,0.178571428571429,0.135135135135135,-0.0434362934362934
"10","up_down_width","match",44,4,4,1.12910869996995,0.383333333333333,0.6,1.1,0.25,0.35,0.45,8.18447109998669,1.4,"Exp1A",0,0.1,0.216666666666667,2.15,1.53571428571429,1,1.4,0.4,0.714285714285714,0.651162790697674,-0.0631229235880398
"10","up_down_width","match",45,3,3,1.86058999993838,1,0.7,0.7,0.4,0.5,0.3,4.61710509995464,2.4,"Exp1A",0,0.0999999999999999,-0.3,1.9,0.791666666666667,1.2,1.5,0.3,0.5,0.789473684210526,0.289473684210526
"10","up_down_width","match",46,5,4,1.54529560008086,0.4125,0.7,0.5,0.25,0.5,0.35,6.98684419994242,1.9,"Exp1A",-1,0.25,0.2875,2.6,1.36842105263158,1.25,2,0.75,0.657894736842105,0.769230769230769,0.111336032388664
"10","up_down_width","initial",47,3,3,1.82832099997904,0.7,0.95,0.5,0.25,0.55,0.2,8.2017640999984,1.65,"Exp1A",0,0.3,0.25,2.45,1.48484848484848,0.75,1.65,0.9,0.454545454545455,0.673469387755102,0.218923933209648
"10","up_down_width","initial",48,5,5,1.26879789994564,0.7,0.85,0.6,0.1,0.15,0.3,5.58386340003926,2.9,"Exp1A",0,0.05,0.15,3.55,1.22413793103448,0.5,0.75,0.25,0.172413793103448,0.211267605633803,0.0388538125303546
"10","up_down_width","match",49,3,3,2.86841189989354,1,0.8,0.6,0.25,0.25,0.4,5.13519060006365,2.25,"Exp1A",0,5.55111512312578e-17,-0.2,1.85,0.822222222222222,0.75,0.75,2.22044604925031e-16,0.333333333333333,0.405405405405405,0.0720720720720722
"10","up_down_width","initial",50,3,3,1.54185220005456,0.9,1,0.5,0.4,0.25,0.35,6.39153390005231,2.2,"Exp1A",0,-0.15,0.1,2.25,1.02272727272727,1.2,0.75,-0.45,0.545454545454546,0.333333333333333,-0.212121212121212
"10","up_down_width","initial",51,4,4,1.51774569996633,0.9,0.8,0.4,0.4,0.35,0.2,4.22229459998198,3.1,"Exp1A",0,-0.05,-0.1,2.75,0.887096774193548,1.6,1.4,-0.2,0.516129032258065,0.509090909090909,-0.00703812316715557
"10","up_down_width","match",52,5,5,1.86961280007381,0.525,0.45,1.3,0.4,0.25,0.25,6.29027430003043,2.5,"Exp1A",0,-0.15,-0.075,2.05,0.82,2,1.25,-0.75,0.8,0.609756097560976,-0.190243902439024
"10","up_down_width","match",53,3,3,1.84850960003678,1.475,1.2,1.1,0.25,0.3,0.1,6.29928680008743,3.2,"Exp1A",0,0.05,-0.275,2.7,0.84375,0.75,0.9,0.15,0.234375,0.333333333333333,0.0989583333333333
"10","up_down_width","match",54,5,4,1.43785170000046,0.525,0.6,0.6,0.25,0.15,0.15,4.7859419999877,2.35,"Exp1A",-1,-0.1,0.075,1.95,0.829787234042553,1.25,0.6,-0.65,0.531914893617021,0.307692307692308,-0.224222585924714
"10","up_down_width","initial",1,3,3,1.49840970011428,0.9,1,0.7,0.25,0.2,0.2,4.12611279997509,2.05,"Exp1A",0,-0.05,0.1,2.2,1.07317073170732,0.75,0.6,-0.15,0.365853658536585,0.272727272727273,-0.0931263858093127
"10","up_down_width","match",2,5,5,1.40311129996553,0.525,0.55,0.3,0.25,0.2,0.1,7.33012210007291,2.35,"Exp1A",0,-0.05,0.025,2.4,1.02127659574468,1.25,1,-0.25,0.531914893617021,0.416666666666667,-0.115248226950355
"10","up_down_width","initial",3,5,5,1.33704420004506,0.7,0.6,0.7,0.4,0.3,0.3,3.56901490001474,3.2,"Exp1A",0,-0.1,-0.1,2.7,0.84375,2,1.5,-0.5,0.625,0.555555555555556,-0.0694444444444444
"10","up_down_width","match",4,4,4,1.29664580000099,0.6,0.9,1.1,0.4,0.2,0.15,5.33949209994171,2.2,"Exp1A",0,-0.2,0.3,2.9,1.31818181818182,1.6,0.8,-0.8,0.727272727272727,0.275862068965517,-0.45141065830721
"10","up_down_width","match",5,3,2,1.71439129998907,1.4,2.1,1.6,0.1,0.1,0.35,6.0941271999618,2.9,"Exp1A",-1,1.38777878078145e-17,0.7,2.2,0.758620689655172,0.3,0.2,-0.1,0.103448275862069,0.0909090909090909,-0.0125391849529781
"10","up_down_width","initial",6,5,5,2.43352590000723,0.7,0.75,0.8,0.25,0.15,0.1,5.47285390004981,3.05,"Exp1A",0,-0.1,0.05,3.15,1.0327868852459,1.25,0.75,-0.5,0.409836065573771,0.238095238095238,-0.171740827478532
"10","up_down_width","match",7,3,2,1.35702350002248,1.475,2.1,1.6,0.25,0.15,0.4,5.06156389997341,3.2,"Exp1A",-1,-0.0999999999999999,0.625,2.25,0.703125,0.75,0.3,-0.45,0.234375,0.133333333333333,-0.101041666666667
"10","up_down_width","initial",8,4,4,1.36191430001054,0.7,0.6,1.1,0.4,0.25,0.35,4.426134700072,2.5,"Exp1A",0,-0.15,-0.1,2.05,0.82,1.6,1,-0.6,0.64,0.487804878048781,-0.152195121951219
"10","up_down_width","match",9,3,3,1.878187000053,1.8,1.35,1.1,0.4,0.35,0.15,6.50675659999251,4,"Exp1A",0,-0.05,-0.45,3.05,0.7625,1.2,1.05,-0.15,0.3,0.344262295081967,0.0442622950819671
"10","up_down_width","initial",10,5,5,1.37495669990312,0.9,0.7,1.3,0.25,0.2,0.25,5.19063640001696,3.85,"Exp1A",0,-0.05,-0.2,3,0.779220779220779,1.25,1,-0.25,0.324675324675325,0.333333333333333,0.00865800865800864
"10","up_down_width","match",11,5,4,1.34341740002856,0.375,0.5,0.9,0.25,0.3,0.3,2.49284630001057,1.75,"Exp1A",-1,0.05,0.125,1.8,1.02857142857143,1.25,1.2,-0.05,0.714285714285714,0.666666666666667,-0.0476190476190477
"10","up_down_width","initial",12,5,5,1.58942679991014,0.5,0.45,0.7,0.1,0.2,0.4,6.68868030002341,2.1,"Exp1A",0,0.1,-0.05,2,0.952380952380952,0.5,1,0.5,0.238095238095238,0.5,0.261904761904762
"10","up_down_width","match",13,4,4,1.72977670002729,0.6,0.7,1.1,0.25,0.15,0.35,3.05146089999471,2.05,"Exp1A",0,-0.1,0.1,2.25,1.09756097560976,1,0.6,-0.4,0.487804878048781,0.266666666666667,-0.221138211382114
"10","up_down_width","match",14,4,5,2.13228409993462,0.333333333333333,0.55,1.3,0.1,0.15,0.3,5.6954878999386,1.1,"Exp1A",1,0.05,0.216666666666667,2.35,2.13636363636364,0.4,0.75,0.35,0.363636363636364,0.319148936170213,-0.0444874274661509
"10","up_down_width","match",15,5,5,1.24395640008152,0.4125,0.5,1.1,0.25,0.15,0.15,6.58501669997349,1.9,"Exp1A",0,-0.1,0.0875,2.15,1.13157894736842,1.25,0.75,-0.5,0.657894736842105,0.348837209302326,-0.30905752753978
"10","up_down_width","match",16,3,3,1.94605380005669,1,0.85,0.8,0.25,0.3,0.2,3.26000410004053,2.25,"Exp1A",0,0.05,-0.15,2,0.888888888888889,0.75,0.9,0.15,0.333333333333333,0.45,0.116666666666667
"10","up_down_width","match",17,4,3,2.08120219991542,0.6,0.75,0.4,0.1,0.1,0.1,7.40610570006538,1.9,"Exp1A",-1,1.38777878078145e-17,0.15,1.6,0.842105263157895,0.4,0.3,-0.1,0.210526315789474,0.1875,-0.0230263157894737
"10","up_down_width","initial",18,3,3,1.49326269992162,0.9,0.85,0.7,0.1,0.1,0.2,4.87315760005731,1.9,"Exp1A",0,1.38777878078145e-17,-0.05,1.8,0.947368421052632,0.3,0.3,0,0.157894736842105,0.166666666666667,0.0087719298245614
"10","up_down_width","initial",19,4,4,1.89007299998775,0.5,0.4,1.1,0.4,0.25,0.35,3.97380070004147,1.9,"Exp1A",0,-0.15,-0.1,1.45,0.763157894736842,1.6,1,-0.6,0.842105263157895,0.689655172413793,-0.152450090744102
"10","up_down_width","initial",20,3,3,1.59030580008402,0.7,0.65,0.8,0.4,0.45,0.15,10.1009412000421,1.8,"Exp1A",0,0.0499999999999999,-0.0499999999999999,1.75,0.972222222222222,1.2,1.35,0.15,0.666666666666667,0.771428571428571,0.104761904761905
"10","up_down_width","initial",21,3,3,2.44056770007592,0.5,0.5,0.4,0.4,0.35,0.35,3.25403169996571,1.4,"Exp1A",0,-0.05,0,1.35,0.964285714285714,1.2,1.05,-0.15,0.857142857142857,0.777777777777778,-0.0793650793650796
"10","up_down_width","match",22,5,5,2.63445390004199,0.675,0.75,1.2,0.1,0.1,0.45,4.70434439997189,2.8,"Exp1A",0,6.93889390390723e-17,0.0750000000000001,3.1,1.10714285714286,0.5,0.5,3.33066907387547e-16,0.178571428571429,0.161290322580645,-0.0172811059907833
"10","up_down_width","initial",23,4,4,1.7816192000173,0.9,0.8,0.5,0.25,0.1,0.3,3.43627539998852,2.95,"Exp1A",0,-0.15,-0.1,2.5,0.847457627118644,1,0.4,-0.6,0.338983050847458,0.16,-0.178983050847458
"10","up_down_width","initial",24,3,3,1.568364799954,0.9,0.95,0.6,0.4,0.15,0.25,5.64977739995811,2.2,"Exp1A",0,-0.25,0.0499999999999999,2.05,0.931818181818182,1.2,0.45,-0.75,0.545454545454546,0.219512195121951,-0.325942350332594
"10","up_down_width","initial",25,5,5,2.71515860001091,0.9,0.85,0.4,0.4,0.4,0.3,6.94173290010076,4,"Exp1A",0,-5.55111512312578e-17,-0.05,3.8,0.95,2,2,-2.22044604925031e-16,0.5,0.526315789473684,0.0263157894736842
"10","up_down_width","initial",26,4,4,1.6649264000589,0.5,0.8,0.6,0.25,0.35,0.3,2.68600920005701,1.75,"Exp1A",0,0.1,0.3,2.75,1.57142857142857,1,1.4,0.4,0.571428571428571,0.509090909090909,-0.0623376623376625
"10","up_down_width","match",27,4,4,1.15057850000449,0.383333333333333,0.5,1.1,0.25,0.3,0.35,3.48788439994678,1.4,"Exp1A",0,0.05,0.116666666666667,1.8,1.28571428571429,1,1.2,0.2,0.714285714285714,0.666666666666667,-0.0476190476190477
"10","up_down_width","initial",28,4,4,1.23917279997841,0.7,0.8,1.3,0.1,0.15,0.2,3.31542550004087,2.2,"Exp1A",0,0.05,0.1,2.55,1.15909090909091,0.4,0.6,0.2,0.181818181818182,0.235294117647059,0.053475935828877
"10","up_down_width","match",29,3,3,1.76081849995535,1.4,1.3,1.3,0.25,0.2,0.2,1.57847209996544,3.05,"Exp1A",0,-0.05,-0.0999999999999999,2.8,0.918032786885246,0.75,0.6,-0.15,0.245901639344262,0.214285714285714,-0.031615925058548
"10","up_down_width","match",30,4,4,1.15848590002861,0.466666666666667,0.7,1.1,0.25,0.25,0.4,3.22077280003577,1.65,"Exp1A",0,5.55111512312578e-17,0.233333333333333,2.35,1.42424242424242,1,1,2.22044604925031e-16,0.606060606060606,0.425531914893617,-0.180528691166989
"10","up_down_width","match",31,5,5,1.34728400001768,0.375,0.85,1.2,0.1,0.15,0.15,5.37413109990302,1.6,"Exp1A",0,0.05,0.475,3.55,2.21875,0.5,0.75,0.25,0.3125,0.211267605633803,-0.101232394366197
"10","up_down_width","initial",32,5,5,1.82535249995999,0.5,0.7,1.2,0.25,0.2,0.25,6.32497260009404,2.25,"Exp1A",0,-0.05,0.2,3,1.33333333333333,1.25,1,-0.25,0.555555555555556,0.333333333333333,-0.222222222222222
"10","up_down_width","match",33,4,4,1.63493099994957,0.466666666666667,0.7,1.3,0.1,0.15,0.35,5.00651360000484,1.5,"Exp1A",0,0.05,0.233333333333333,2.25,1.5,0.4,0.6,0.2,0.266666666666667,0.266666666666667,1.11022302462516e-16
"10","up_down_width","initial",34,5,5,2.26705090003088,0.5,0.65,0.8,0.4,0.5,0.1,5.59956259990577,2.4,"Exp1A",0,0.0999999999999999,0.15,3.1,1.29166666666667,2,2.5,0.5,0.833333333333333,0.806451612903226,-0.0268817204301077
"10","up_down_width","initial",35,4,4,1.19648819998838,0.5,0.9,1.1,0.1,0.1,0.4,4.82900590007193,1.6,"Exp1A",0,6.93889390390723e-17,0.4,2.8,1.75,0.4,0.4,2.77555756156289e-16,0.25,0.142857142857143,-0.107142857142857
"10","up_down_width","match",36,3,4,2.66699109994806,1.8,1,0.5,0.25,0.15,0.15,2.06114050000906,3.85,"Exp1A",1,-0.1,-0.8,3.15,0.818181818181818,0.75,0.6,-0.15,0.194805194805195,0.19047619047619,-0.00432900432900435
"10","up_down_width","match",37,4,4,1.06195210001897,0.466666666666667,0.5,0.8,0.4,0.4,0.25,3.6579078999348,1.8,"Exp1A",0,-5.55111512312578e-17,0.0333333333333333,1.9,1.05555555555556,1.6,1.6,-2.22044604925031e-16,0.888888888888889,0.842105263157895,-0.0467836257309943
"10","up_down_width","initial",38,3,3,2.22871589998249,0.7,0.9,1.2,0.1,0.1,0.25,3.43579929997213,1.5,"Exp1A",0,1.38777878078145e-17,0.2,1.9,1.26666666666667,0.3,0.3,0,0.2,0.157894736842105,-0.0421052631578948
"10","up_down_width","match",39,3,3,1.74178600008599,1,0.9,0.7,0.4,0.25,0.15,3.40017919999082,2.4,"Exp1A",0,-0.15,-0.0999999999999999,2.05,0.854166666666667,1.2,0.75,-0.45,0.5,0.365853658536585,-0.134146341463415
"10","up_down_width","initial",40,4,4,1.24793829990085,0.7,0.7,0.4,0.25,0.15,0.1,3.30702340009157,2.35,"Exp1A",0,-0.1,0,2.25,0.957446808510638,1,0.6,-0.4,0.425531914893617,0.266666666666667,-0.15886524822695
"10","up_down_width","match",41,3,3,2.37930050003342,1,0.5,0.5,0.1,0.25,0.3,4.24897810001858,2.1,"Exp1A",0,0.15,-0.5,1.25,0.595238095238095,0.3,0.75,0.45,0.142857142857143,0.6,0.457142857142857
"10","up_down_width","initial",42,3,3,1.73577699996531,0.5,0.7,0.6,0.1,0.15,0.3,2.81726290006191,1.1,"Exp1A",0,0.05,0.2,1.55,1.40909090909091,0.3,0.45,0.15,0.272727272727273,0.290322580645161,0.0175953079178886
"10","up_down_width","match",43,5,4,1.1909636000637,0.525,0.8,1.2,0.1,0.15,0.15,3.92509649996646,2.2,"Exp1A",-1,0.05,0.275,2.55,1.15909090909091,0.5,0.6,0.1,0.227272727272727,0.235294117647059,0.00802139037433153
"10","up_down_width","initial",44,3,3,1.73965010000393,0.5,0.55,0.4,0.25,0.2,0.3,4.24614139995538,1.25,"Exp1A",0,-0.05,0.05,1.3,1.04,0.75,0.6,-0.15,0.6,0.461538461538462,-0.138461538461538
"10","up_down_width","initial",45,4,4,0.891599599970505,0.9,1.2,0.7,0.1,0.15,0.15,2.95116030005738,2.8,"Exp1A",0,0.05,0.3,3.75,1.33928571428571,0.4,0.6,0.2,0.142857142857143,0.16,0.0171428571428572
"10","up_down_width","initial",46,4,5,1.49046480003744,0.9,0.9,0.9,0.4,0.4,0.3,2.99691480002366,3.1,"Exp1A",1,-5.55111512312578e-17,0,4,1.29032258064516,1.6,2,0.4,0.516129032258065,0.5,-0.0161290322580646
"10","up_down_width","initial",47,3,3,1.46630169998389,0.7,1.05,0.3,0.25,0.35,0.2,5.31030390004162,1.65,"Exp1A",0,0.1,0.35,2.45,1.48484848484849,0.75,1.05,0.3,0.454545454545455,0.428571428571428,-0.0259740259740261
"10","up_down_width","initial",48,5,4,1.3932120000245,0.9,1,0.3,0.1,0.15,0.15,2.5673788000131,3.7,"Exp1A",-1,0.05,0.1,3.15,0.851351351351351,0.5,0.6,0.1,0.135135135135135,0.19047619047619,0.0553410553410554
"10","up_down_width","match",49,4,4,2.09846180002205,0.333333333333333,0.4,1.1,0.25,0.2,0.1,3.16349810000975,1.25,"Exp1A",0,-0.05,0.0666666666666667,1.4,1.12,1,0.8,-0.2,0.8,0.571428571428571,-0.228571428571429
"10","up_down_width","match",50,5,5,1.16014890000224,0.675,0.6,1,0.4,0.25,0.2,5.08176180010196,3.1,"Exp1A",0,-0.15,-0.0750000000000001,2.65,0.854838709677419,2,1.25,-0.75,0.645161290322581,0.471698113207547,-0.173463177115033
"10","up_down_width","match",51,5,5,1.18391909997445,0.525,0.5,0.6,0.4,0.35,0.2,6.28926760004833,2.5,"Exp1A",0,-0.05,-0.025,2.35,0.94,2,1.75,-0.25,0.8,0.74468085106383,-0.0553191489361703
"10","up_down_width","initial",52,5,5,1.98114869999699,0.7,0.5,1,0.1,0.25,0.35,3.88630739995278,2.9,"Exp1A",0,0.15,-0.2,2.25,0.775862068965517,0.5,1.25,0.75,0.172413793103448,0.555555555555556,0.383141762452107
"10","up_down_width","match",53,3,3,1.81034600001294,1.8,1,1,0.1,0.15,0.25,2.29766889999155,3.7,"Exp1A",0,0.05,-0.8,2.15,0.581081081081081,0.3,0.45,0.15,0.0810810810810811,0.209302325581395,0.128221244500314
"10","up_down_width","match",54,5,6,1.83394109993242,0.675,0.4,0.8,0.25,0.1,0.15,2.47793459997047,2.95,"Exp1A",1,-0.15,-0.275,2.1,0.711864406779661,1.25,0.6,-0.65,0.423728813559322,0.285714285714286,-0.138014527845036
"10","up_down_width","match",1,4,4,1.58647310000379,0.6,0.6,0.9,0.25,0.25,0.2,3.5064234000165,2.05,"Exp1A",0,0,1.11022302462516e-16,2.05,1,1,1,0,0.487804878048781,0.487804878048781,0
"10","up_down_width","initial",2,3,3,1.73570600000676,0.9,0.7,0.7,0.4,0.35,0.45,2.95686709997244,2.2,"Exp1A",0,-0.05,-0.2,1.75,0.795454545454545,1.2,1.05,-0.15,0.545454545454546,0.6,0.0545454545454545
"10","up_down_width","match",3,4,4,1.22741370007861,0.333333333333333,0.6,1.2,0.1,0.15,0.2,2.71350389998406,1.1,"Exp1A",0,0.05,0.266666666666667,1.95,1.77272727272727,0.4,0.6,0.2,0.363636363636364,0.307692307692308,-0.0559440559440559
"10","up_down_width","initial",4,5,6,1.53933800000232,0.9,0.8,1,0.4,0.2,0.4,3.62151560001075,4,"Exp1A",1,-0.2,-0.1,4.2,1.05,2,1.2,-0.8,0.5,0.285714285714286,-0.214285714285714
"10","up_down_width","initial",5,5,5,1.56470330001321,0.9,0.85,0.7,0.25,0.2,0.4,3.48094090004452,3.85,"Exp1A",0,-0.0499999999999999,-0.05,3.6,0.935064935064935,1.25,1,-0.25,0.324675324675325,0.277777777777778,-0.0468975468975468
"10","up_down_width","match",6,4,5,1.79138579999562,0.466666666666667,0.65,1.1,0.1,0.15,0.3,3.8604777000146,1.5,"Exp1A",1,0.05,0.183333333333333,2.75,1.83333333333333,0.4,0.75,0.35,0.266666666666667,0.272727272727273,0.0060606060606061
"10","up_down_width","match",7,5,5,1.59674680000171,0.375,0.75,1.2,0.25,0.2,0.25,7.93516380002256,1.75,"Exp1A",0,-0.05,0.375,3.2,1.82857142857143,1.25,1,-0.25,0.714285714285714,0.3125,-0.401785714285714
"10","up_down_width","match",8,5,5,1.21526450000238,0.375,0.55,0.4,0.1,0.2,0.1,4.09215450007468,1.6,"Exp1A",0,0.1,0.175,2.4,1.5,0.5,1,0.5,0.3125,0.416666666666667,0.104166666666667
"10","up_down_width","initial",9,3,3,1.93257039994933,0.5,0.55,0.7,0.4,0.4,0.25,4.70235240005422,1.4,"Exp1A",0,-5.55111512312578e-17,0.05,1.5,1.07142857142857,1.2,1.2,-2.22044604925031e-16,0.857142857142857,0.8,-0.0571428571428573
"10","up_down_width","match",10,3,3,1.97741979989223,1,0.9,1,0.1,0.05,0.25,3.84711019997485,2.1,"Exp1A",0,-0.05,-0.1,1.85,0.880952380952381,0.3,0.15,-0.15,0.142857142857143,0.0810810810810811,-0.0617760617760618
"10","up_down_width","initial",11,3,3,1.91987230000086,0.5,0.5,0.8,0.25,0.25,0.15,3.34619999991264,1.25,"Exp1A",0,0,0,1.25,1,0.75,0.75,0,0.6,0.6,0
"10","up_down_width","match",12,3,3,1.56645479996223,1.8,1.35,1.2,0.1,0.1,0.4,3.55163260002155,3.7,"Exp1A",0,6.93889390390723e-17,-0.45,2.8,0.756756756756757,0.3,0.3,1.66533453693773e-16,0.0810810810810811,0.107142857142857,0.0260617760617761
"10","up_down_width","match",13,5,5,1.25809669995215,0.525,0.7,0.4,0.1,0.1,0.3,2.62806149991229,2.2,"Exp1A",0,1.38777878078145e-17,0.175,2.9,1.31818181818182,0.5,0.5,1.11022302462516e-16,0.227272727272727,0.172413793103448,-0.054858934169279
"10","up_down_width","match",14,3,2,1.84606769995298,1.8,2,1.6,0.25,0.35,0.1,4.18472589994781,3.85,"Exp1A",-1,0.1,0.2,2.35,0.61038961038961,0.75,0.7,-0.05,0.194805194805195,0.297872340425532,0.103067145620337
"10","up_down_width","match",15,5,5,4.51273860002402,0.525,0.8,0.5,0.25,0.25,0.4,2.88875579996966,2.35,"Exp1A",0,5.55111512312578e-17,0.275,3.45,1.46808510638298,1.25,1.25,2.22044604925031e-16,0.531914893617021,0.36231884057971,-0.169596053037311
"10","up_down_width","initial",16,5,5,1.49194450001232,0.5,0.55,0.7,0.4,0.4,0.1,4.16731350007467,2.4,"Exp1A",0,-5.55111512312578e-17,0.05,2.6,1.08333333333333,2,2,-2.22044604925031e-16,0.833333333333333,0.769230769230769,-0.0641025641025642
