amount_p,posx1_p,posx2_p,posx3_p,posx4_p,posx5_p,center_to_center_p,edge_to_edge_p,w_p,stim_length_p,eccentricity_p,line1_p,line2_p,line3_p,line4_p,line5_p,amount,posx1,posx2,posx3,posx4,posx5,center_to_center,edge_to_edge,w,stim_length,eccentricity,trial_type,deg_to_pix_index,posx1_in_pix,posx2_in_pix,posx3_in_pix,posx4_in_pix,posx5_in_pix,line1,line2,line3,line4,line5,posx,setsize_cobdi,trials.thisRepN,trials.thisTrialN,trials.thisN,trials.thisIndex,blocks.thisRepN,blocks.thisTrialN,blocks.thisN,blocks.thisIndex,loop.thisRepN,loop.thisTrialN,loop.thisN,loop.thisIndex,first.thisRepN,first.thisTrialN,first.thisN,first.thisIndex,second.thisRepN,second.thisTrialN,second.thisN,second.thisIndex,key_resp_3.started,key_resp_3.keys,key_resp_3.rt,key_resp.keys,key_resp.rt,response,starting_width_deg,starting_space_deg,response_width_degree,response_spacing_degree,response_width_pixel,response_spacing_pixel,next_5.keys,next_5.rt,key_resp_4.keys,key_resp_4.rt,text_3.started,text_4.started,key_resp_2.started,text_2.started,key_resp_2.keys,key_resp_2.rt,adjusting.started,next.keys,next.rt,text_control2.started,key_resp.started,key_resp.corr,text_bye.started,text_bye.stopped,participant,age,gender,resp_group,date,expName,psychopyVersion,frameRate,
,,,,,,,,,,,,,,,,,,,,,,,,,,,,,,,,,,,,,,,,,,,,,,,,,,,,,,,,,,,,,43.64221950000501,c,270.7232382999937,,,,,,,,,,,,,,,,,,,,,,,,,,,,901,18,male,left_right_width,2024-10-10_08h59.57.849,exp1,2023.1.0,59.979223197731365,
4,9.25,9.75,10.25,10.75,0,0.5,0.1,0.4,1.9000000000000001,10,9,9,9,9,0,,,,,,,,,,,,,,,,,,,,,,,,,,0,0,0,4,,,,,,,,,,,,,,,,,,,,num_3,6.503563399994164,num_3,0.35,1,0.15000000000000002,0.3,5.73083,11.46165,return,13.425860000003013,,,,,,,,,,,,,,,,,901,18,male,left_right_width,2024-10-10_08h59.57.849,exp1,2023.1.0,59.979223197731365,
4,9.25,9.75,10.25,10.75,0,0.5,0.25,0.25,1.75,10,9,9,9,9,0,,,,,,,,,,,,,,,,,,,,,,,,,,0,1,1,1,,,,,,,,,,,,,,,,,,,,num_3,2.9629775999928825,num_3,0.2,0.9,0.2,0.9,7.6411,34.38495,return,2.9527571000071475,,,,,,,,,,,,,,,,,901,18,male,left_right_width,2024-10-10_08h59.57.849,exp1,2023.1.0,59.979223197731365,
5,9,9.5,10,10.5,11,0.5,0.1,0.4,2.4,10,9,9,9,9,9,,,,,,,,,,,,,,,,,,,,,,,,,,0,2,2,5,,,,,,,,,,,,,,,,,,,,num_4,5.75261799999862,num_4,0.4,1.1,0.4,0.6,15.2822,22.9233,return,5.072838300009607,,,,,,,,,,,,,,,,,901,18,male,left_right_width,2024-10-10_08h59.57.849,exp1,2023.1.0,59.979223197731365,
5,8.2,9.1,10,10.9,11.8,0.9,0.35,0.55,4.15,10,9,9,9,9,9,,,,,,,,,,,,,,,,,,,,,,,,,,0,3,3,2,,,,,,,,,,,,,,,,,,,,num_4,4.018470199996955,num_4,0.35,0.4,0.39999999999999997,1.1,15.2822,42.02605,return,6.302392199999304,,,,,,,,,,,,,,,,,901,18,male,left_right_width,2024-10-10_08h59.57.849,exp1,2023.1.0,59.979223197731365,
3,9.5,10,10.5,0,0,0.5,0.25,0.25,1.25,10,9,9,9,0,0,,,,,,,,,,,,,,,,,,,,,,,,,,0,4,4,0,,,,,,,,,,,,,,,,,,,,num_3,2.7251440999971237,num_3,0.35,1,0.25,0.75,9.55138,28.65413,return,4.979540300002554,,,,,,,,,,,,,,,,,901,18,male,left_right_width,2024-10-10_08h59.57.849,exp1,2023.1.0,59.979223197731365,
3,9.1,10,10.9,0,0,0.9,0.35,0.55,2.35,10,9,9,9,0,0,,,,,,,,,,,,,,,,,,,,,,,,,,0,5,5,3,,,,,,,,,,,,,,,,,,,,num_3,2.899309499989613,num_3,0.25,0.7,0.39999999999999997,1.0,15.2822,38.2055,return,4.491168299995479,,,,,,,,,,,,,,,,,901,18,male,left_right_width,2024-10-10_08h59.57.849,exp1,2023.1.0,59.979223197731365,
,,,,,,,,,,,,,,,,,,,,,,,,,,,,,,,,,,,,,,,,,,,,,,,,,,,,,,,,,,,,,,,,,,,,,,,,,,,c,126.80989799999224,,,,,,,,,,,,,,,901,18,male,left_right_width,2024-10-10_08h59.57.849,exp1,2023.1.0,59.979223197731365,
,,,,,,,,,,,,,,,,4,9.25,9.75,10.25,10.75,0,0.5,0.1,0.4,1.9000000000000001,10,initial,36.05,333,351,370,388,0,9,9,9,9,0,,,,,,,0,0,0,0,0,0,0,13,,,,,,,,,,,,num_3,1.6492457999993348,num_3,0.25,0.3,0.3,0.45,11.46165,17.19248,return,4.597351699994761,,,,,,,,,,,,,,,,,901,18,male,left_right_width,2024-10-10_08h59.57.849,exp1,2023.1.0,59.979223197731365,
,,,,,,,,,,,,,,,,4,9.25,9.75,10.25,10.75,0,0.5,0.1,0.4,1.9000000000000001,10,initial,36.05,333,351,370,388,0,9,9,9,9,0,,,,,,,0,0,0,0,0,1,1,44,,,,,,,,,,,,num_3,1.800763500010362,num_3,0.45,1.1,0.4,0.7,15.2822,26.74385,return,5.068104699996184,,,,,,,,,,,,,,,,,901,18,male,left_right_width,2024-10-10_08h59.57.849,exp1,2023.1.0,59.979223197731365,
,,,,,,,,,,,,,,,,5,9,9.5,10,10.5,11,0.5,0.1,0.4,2.4,10,initial,36.05,324,342,361,379,397,9,9,9,9,9,,,,,,,0,0,0,0,0,2,2,26,,,,,,,,,,,,num_4,1.734085000003688,num_4,0.45,0.7,0.4,0.6,15.2822,22.9233,return,4.621207000003778,,,,,,,,,,,,,,,,,901,18,male,left_right_width,2024-10-10_08h59.57.849,exp1,2023.1.0,59.979223197731365,
,,,,,,,,,,,,,,,,4,9.25,9.75,10.25,10.75,0,0.5,0.1,0.4,1.9000000000000001,10,initial,36.05,333,351,370,388,0,9,9,9,9,0,,,,,,,0,0,0,0,0,3,3,38,,,,,,,,,,,,num_3,1.7120846000034362,num_3,0.25,0.4,0.35,0.6,13.37193,22.9233,return,3.834722999992664,,,,,,,,,,,,,,,,,901,18,male,left_right_width,2024-10-10_08h59.57.849,exp1,2023.1.0,59.979223197731365,
,,,,,,,,,,,,,,,,3,9.5,10,10.5,0,0,0.5,0.1,0.4,1.4000000000000001,10,initial,36.05,342,361,379,0,0,9,9,9,0,0,,,,,,,0,0,0,0,0,4,4,28,,,,,,,,,,,,num_3,1.6872768000030192,num_3,0.4,1.3,0.45,0.7,17.19248,26.74385,return,4.269060700011323,,,,,,,,,,,,,,,,,901,18,male,left_right_width,2024-10-10_08h59.57.849,exp1,2023.1.0,59.979223197731365,
,,,,,,,,,,,,,,,,3,9.5,10,10.5,0,0,0.5,0.1,0.4,1.4000000000000001,10,initial,36.05,342,361,379,0,0,9,9,9,0,0,,,,,,,0,0,0,0,0,5,5,1,,,,,,,,,,,,num_2,4.843382999999449,num_2,0.45,1.6,0.55,0.8,21.01303,30.5644,return,5.061477600000217,,,,,,,,,,,,,,,,,901,18,male,left_right_width,2024-10-10_08h59.57.849,exp1,2023.1.0,59.979223197731365,
,,,,,,,,,,,,,,,,3,9.5,10,10.5,0,0,0.5,0.1,0.4,1.4000000000000001,10,initial,36.05,342,361,379,0,0,9,9,9,0,0,,,,,,,0,0,0,0,0,6,6,0,,,,,,,,,,,,num_3,1.2799636999989161,num_3,0.4,1.3,0.45,0.75,17.19248,28.65413,return,5.444445500004804,,,,,,,,,,,,,,,,,901,18,male,left_right_width,2024-10-10_08h59.57.849,exp1,2023.1.0,59.979223197731365,
,,,,,,,,,,,,,,,,4,9.25,9.75,10.25,10.75,0,0.5,0.1,0.4,1.9000000000000001,10,initial,36.05,333,351,370,388,0,9,9,9,9,0,,,,,,,0,0,0,0,0,7,7,37,,,,,,,,,,,,num_3,2.195188199999393,num_3,0.55,0.9,0.55,0.9,21.01303,34.38495,return,1.0489054000063334,,,,,,,,,,,,,,,,,901,18,male,left_right_width,2024-10-10_08h59.57.849,exp1,2023.1.0,59.979223197731365,
,,,,,,,,,,,,,,,,3,9.5,10,10.5,0,0,0.5,0.1,0.4,1.4000000000000001,10,initial,36.05,342,361,379,0,0,9,9,9,0,0,,,,,,,0,0,0,0,0,8,8,32,,,,,,,,,,,,num_3,1.8738525999942794,num_3,0.25,0.9,0.35,0.65,13.37193,24.83358,return,3.4764194000017596,,,,,,,,,,,,,,,,,901,18,male,left_right_width,2024-10-10_08h59.57.849,exp1,2023.1.0,59.979223197731365,
,,,,,,,,,,,,,,,,5,9,9.5,10,10.5,11,0.5,0.1,0.4,2.4,10,initial,36.05,324,342,361,379,397,9,9,9,9,9,,,,,,,0,0,0,0,0,9,9,45,,,,,,,,,,,,num_4,2.0495885999989696,num_4,0.35,0.7,0.39999999999999997,0.7,15.2822,26.74385,return,3.1962828999967314,,,,,,,,,,,,,,,,,901,18,male,left_right_width,2024-10-10_08h59.57.849,exp1,2023.1.0,59.979223197731365,
,,,,,,,,,,,,,,,,3,9.5,10,10.5,0,0,0.5,0.1,0.4,1.4000000000000001,10,initial,36.05,342,361,379,0,0,9,9,9,0,0,,,,,,,0,0,0,0,0,10,10,33,,,,,,,,,,,,num_3,1.2591584999900078,num_3,0.2,0.5,0.3,0.65,11.46165,24.83358,return,3.747718700004043,,,,,,,,,,,,,,,,,901,18,male,left_right_width,2024-10-10_08h59.57.849,exp1,2023.1.0,59.979223197731365,
,,,,,,,,,,,,,,,,4,9.25,9.75,10.25,10.75,0,0.5,0.1,0.4,1.9000000000000001,10,initial,36.05,333,351,370,388,0,9,9,9,9,0,,,,,,,0,0,0,0,0,11,11,36,,,,,,,,,,,,num_3,1.5393248000036692,num_3,0.35,0.5,0.49999999999999994,0.65,19.10275,24.83358,return,2.738445100010722,,,,,,,,,,,,,,,,,901,18,male,left_right_width,2024-10-10_08h59.57.849,exp1,2023.1.0,59.979223197731365,
,,,,,,,,,,,,,,,,4,9.25,9.75,10.25,10.75,0,0.5,0.1,0.4,1.9000000000000001,10,initial,36.05,333,351,370,388,0,9,9,9,9,0,,,,,,,0,0,0,0,0,12,12,17,,,,,,,,,,,,num_3,1.979104500001995,num_3,0.4,1.2,0.55,0.85,21.01303,32.47468,return,4.426468699995894,,,,,,,,,,,,,,,,,901,18,male,left_right_width,2024-10-10_08h59.57.849,exp1,2023.1.0,59.979223197731365,
,,,,,,,,,,,,,,,,3,9.5,10,10.5,0,0,0.5,0.1,0.4,1.4000000000000001,10,initial,36.05,342,361,379,0,0,9,9,9,0,0,,,,,,,0,0,0,0,0,13,13,6,,,,,,,,,,,,num_2,2.27517410001019,num_2,0.35,0.4,0.39999999999999997,0.6,15.2822,22.9233,return,3.997967000002973,,,,,,,,,,,,,,,,,901,18,male,left_right_width,2024-10-10_08h59.57.849,exp1,2023.1.0,59.979223197731365,
,,,,,,,,,,,,,,,,4,9.25,9.75,10.25,10.75,0,0.5,0.1,0.4,1.9000000000000001,10,initial,36.05,333,351,370,388,0,9,9,9,9,0,,,,,,,0,0,0,0,0,14,14,42,,,,,,,,,,,,num_3,1.6620590999955311,num_3,0.45,0.7,0.45,0.7,17.19248,26.74385,return,1.8136876999924425,,,,,,,,,,,,,,,,,901,18,male,left_right_width,2024-10-10_08h59.57.849,exp1,2023.1.0,59.979223197731365,
,,,,,,,,,,,,,,,,3,9.5,10,10.5,0,0,0.5,0.1,0.4,1.4000000000000001,10,initial,36.05,342,361,379,0,0,9,9,9,0,0,,,,,,,0,0,0,0,0,15,15,8,,,,,,,,,,,,num_2,1.704395699998713,num_2,0.45,1.2,0.45,0.7,17.19248,26.74385,return,2.307565600000089,,,,,,,,,,,,,,,,,901,18,male,left_right_width,2024-10-10_08h59.57.849,exp1,2023.1.0,59.979223197731365,
,,,,,,,,,,,,,,,,5,9,9.5,10,10.5,11,0.5,0.1,0.4,2.4,10,initial,36.05,324,342,361,379,397,9,9,9,9,9,,,,,,,0,0,0,0,0,16,16,51,,,,,,,,,,,,num_4,1.4379902000073344,num_4,0.4,1.0,0.45,0.7,17.19248,26.74385,return,3.0986058999988018,,,,,,,,,,,,,,,,,901,18,male,left_right_width,2024-10-10_08h59.57.849,exp1,2023.1.0,59.979223197731365,
,,,,,,,,,,,,,,,,5,9,9.5,10,10.5,11,0.5,0.1,0.4,2.4,10,initial,36.05,324,342,361,379,397,9,9,9,9,9,,,,,,,0,0,0,0,0,17,17,53,,,,,,,,,,,,num_5,1.7694501000078162,num_5,0.4,1.0,0.45,0.65,17.19248,24.83358,return,3.089846899994882,,,,,,,,,,,,,,,,,901,18,male,left_right_width,2024-10-10_08h59.57.849,exp1,2023.1.0,59.979223197731365,
,,,,,,,,,,,,,,,,5,9,9.5,10,10.5,11,0.5,0.1,0.4,2.4,10,initial,36.05,324,342,361,379,397,9,9,9,9,9,,,,,,,0,0,0,0,0,18,18,22,,,,,,,,,,,,num_4,1.8217397999978857,num_4,0.5,0.9,0.55,0.8,21.01303,30.5644,return,1.7908872999978485,,,,,,,,,,,,,,,,,901,18,male,left_right_width,2024-10-10_08h59.57.849,exp1,2023.1.0,59.979223197731365,
,,,,,,,,,,,,,,,,5,9,9.5,10,10.5,11,0.5,0.1,0.4,2.4,10,initial,36.05,324,342,361,379,397,9,9,9,9,9,,,,,,,0,0,0,0,0,19,19,21,,,,,,,,,,,,num_4,1.4930737000104273,num_4,0.4,0.7,0.4,0.7,15.2822,26.74385,return,3.988039000003482,,,,,,,,,,,,,,,,,901,18,male,left_right_width,2024-10-10_08h59.57.849,exp1,2023.1.0,59.979223197731365,
,,,,,,,,,,,,,,,,4,9.25,9.75,10.25,10.75,0,0.5,0.1,0.4,1.9000000000000001,10,initial,36.05,333,351,370,388,0,9,9,9,9,0,,,,,,,0,0,0,0,0,20,20,10,,,,,,,,,,,,num_3,1.6737704999977723,num_3,0.35,0.9,0.44999999999999996,0.75,17.19248,28.65413,return,3.7461082999943756,,,,,,,,,,,,,,,,,901,18,male,left_right_width,2024-10-10_08h59.57.849,exp1,2023.1.0,59.979223197731365,
,,,,,,,,,,,,,,,,4,9.25,9.75,10.25,10.75,0,0.5,0.1,0.4,1.9000000000000001,10,initial,36.05,333,351,370,388,0,9,9,9,9,0,,,,,,,0,0,0,0,0,21,21,15,,,,,,,,,,,,num_3,2.1517839999869466,num_3,0.35,1.2,0.49999999999999994,0.8,19.10275,30.5644,return,4.221664000011515,,,,,,,,,,,,,,,,,901,18,male,left_right_width,2024-10-10_08h59.57.849,exp1,2023.1.0,59.979223197731365,
,,,,,,,,,,,,,,,,4,9.25,9.75,10.25,10.75,0,0.5,0.1,0.4,1.9000000000000001,10,initial,36.05,333,351,370,388,0,9,9,9,9,0,,,,,,,0,0,0,0,0,22,22,43,,,,,,,,,,,,num_3,1.188609599994379,num_3,0.45,0.9,0.4,0.55,15.2822,21.01303,return,3.723047699997551,,,,,,,,,,,,,,,,,901,18,male,left_right_width,2024-10-10_08h59.57.849,exp1,2023.1.0,59.979223197731365,
,,,,,,,,,,,,,,,,5,9,9.5,10,10.5,11,0.5,0.1,0.4,2.4,10,initial,36.05,324,342,361,379,397,9,9,9,9,9,,,,,,,0,0,0,0,0,23,23,50,,,,,,,,,,,,num_5,1.5527835999964736,num_5,0.25,1.3,0.44999999999999996,0.7,17.19248,26.74385,return,4.497561500000302,,,,,,,,,,,,,,,,,901,18,male,left_right_width,2024-10-10_08h59.57.849,exp1,2023.1.0,59.979223197731365,
,,,,,,,,,,,,,,,,3,9.5,10,10.5,0,0,0.5,0.1,0.4,1.4000000000000001,10,initial,36.05,342,361,379,0,0,9,9,9,0,0,,,,,,,0,0,0,0,0,24,24,29,,,,,,,,,,,,num_2,1.3269358999968972,num_2,0.25,0.8,0.44999999999999996,0.7,17.19248,26.74385,return,2.0530156000022544,,,,,,,,,,,,,,,,,901,18,male,left_right_width,2024-10-10_08h59.57.849,exp1,2023.1.0,59.979223197731365,
,,,,,,,,,,,,,,,,5,9,9.5,10,10.5,11,0.5,0.1,0.4,2.4,10,initial,36.05,324,342,361,379,397,9,9,9,9,9,,,,,,,0,0,0,0,0,25,25,49,,,,,,,,,,,,num_4,1.4220644000015454,num_4,0.2,1.1,0.49999999999999994,0.8,19.10275,30.5644,return,3.3584297000052175,,,,,,,,,,,,,,,,,901,18,male,left_right_width,2024-10-10_08h59.57.849,exp1,2023.1.0,59.979223197731365,
,,,,,,,,,,,,,,,,5,9,9.5,10,10.5,11,0.5,0.1,0.4,2.4,10,initial,36.05,324,342,361,379,397,9,9,9,9,9,,,,,,,0,0,0,0,0,26,26,23,,,,,,,,,,,,num_4,0.9162164000008488,num_4,0.4,1.1,0.5,0.8,19.10275,30.5644,return,1.6551429999963148,,,,,,,,,,,,,,,,,901,18,male,left_right_width,2024-10-10_08h59.57.849,exp1,2023.1.0,59.979223197731365,
,,,,,,,,,,,,,,,,4,9.25,9.75,10.25,10.75,0,0.5,0.1,0.4,1.9000000000000001,10,initial,36.05,333,351,370,388,0,9,9,9,9,0,,,,,,,0,0,0,0,0,27,27,16,,,,,,,,,,,,num_3,1.2525025000068126,num_3,0.35,1.1,0.44999999999999996,0.75,17.19248,28.65413,return,2.6906687000009697,,,,,,,,,,,,,,,,,901,18,male,left_right_width,2024-10-10_08h59.57.849,exp1,2023.1.0,59.979223197731365,
,,,,,,,,,,,,,,,,3,9.5,10,10.5,0,0,0.5,0.1,0.4,1.4000000000000001,10,initial,36.05,342,361,379,0,0,9,9,9,0,0,,,,,,,0,0,0,0,0,28,28,34,,,,,,,,,,,,num_2,0.8828339000028791,num_2,0.5,0.8,0.5,0.8,19.10275,30.5644,return,1.0184357999969507,,,,,,,,,,,,,,,,,901,18,male,left_right_width,2024-10-10_08h59.57.849,exp1,2023.1.0,59.979223197731365,
,,,,,,,,,,,,,,,,4,9.25,9.75,10.25,10.75,0,0.5,0.1,0.4,1.9000000000000001,10,initial,36.05,333,351,370,388,0,9,9,9,9,0,,,,,,,0,0,0,0,0,29,29,9,,,,,,,,,,,,num_3,1.325857600008021,num_3,0.35,0.9,0.39999999999999997,0.85,15.2822,32.47468,return,1.5716596999991452,,,,,,,,,,,,,,,,,901,18,male,left_right_width,2024-10-10_08h59.57.849,exp1,2023.1.0,59.979223197731365,
,,,,,,,,,,,,,,,,3,9.5,10,10.5,0,0,0.5,0.1,0.4,1.4000000000000001,10,initial,36.05,342,361,379,0,0,9,9,9,0,0,,,,,,,0,0,0,0,0,30,30,7,,,,,,,,,,,,num_2,1.1471452999976464,num_2,0.35,0.8,0.49999999999999994,0.8,19.10275,30.5644,return,1.4852010000031441,,,,,,,,,,,,,,,,,901,18,male,left_right_width,2024-10-10_08h59.57.849,exp1,2023.1.0,59.979223197731365,
,,,,,,,,,,,,,,,,4,9.25,9.75,10.25,10.75,0,0.5,0.1,0.4,1.9000000000000001,10,initial,36.05,333,351,370,388,0,9,9,9,9,0,,,,,,,0,0,0,0,0,31,31,11,,,,,,,,,,,,num_3,1.759090899999137,num_3,0.55,0.8,0.55,0.9,21.01303,34.38495,return,2.2908872999978485,,,,,,,,,,,,,,,,,901,18,male,left_right_width,2024-10-10_08h59.57.849,exp1,2023.1.0,59.979223197731365,
,,,,,,,,,,,,,,,,4,9.25,9.75,10.25,10.75,0,0.5,0.1,0.4,1.9000000000000001,10,initial,36.05,333,351,370,388,0,9,9,9,9,0,,,,,,,0,0,0,0,0,32,32,40,,,,,,,,,,,,num_3,1.1233824000082677,num_3,0.25,1.3,0.6,0.8,22.9233,30.5644,return,4.229509099997813,,,,,,,,,,,,,,,,,901,18,male,left_right_width,2024-10-10_08h59.57.849,exp1,2023.1.0,59.979223197731365,
,,,,,,,,,,,,,,,,5,9,9.5,10,10.5,11,0.5,0.1,0.4,2.4,10,initial,36.05,324,342,361,379,397,9,9,9,9,9,,,,,,,0,0,0,0,0,33,33,25,,,,,,,,,,,,num_4,1.0909348999994108,num_4,0.25,0.5,0.49999999999999994,0.7,19.10275,26.74385,return,4.070049100002507,,,,,,,,,,,,,,,,,901,18,male,left_right_width,2024-10-10_08h59.57.849,exp1,2023.1.0,59.979223197731365,
,,,,,,,,,,,,,,,,5,9,9.5,10,10.5,11,0.5,0.1,0.4,2.4,10,initial,36.05,324,342,361,379,397,9,9,9,9,9,,,,,,,0,0,0,0,0,34,34,48,,,,,,,,,,,,num_4,1.7386551000090549,num_4,0.45,0.6,0.45,0.8,17.19248,30.5644,return,2.2042639999999665,,,,,,,,,,,,,,,,,901,18,male,left_right_width,2024-10-10_08h59.57.849,exp1,2023.1.0,59.979223197731365,
,,,,,,,,,,,,,,,,3,9.5,10,10.5,0,0,0.5,0.1,0.4,1.4000000000000001,10,initial,36.05,342,361,379,0,0,9,9,9,0,0,,,,,,,0,0,0,0,0,35,35,35,,,,,,,,,,,,num_2,1.1650438999931794,num_2,0.3,0.8,0.44999999999999996,0.8,17.19248,30.5644,return,1.5125892999931239,,,,,,,,,,,,,,,,,901,18,male,left_right_width,2024-10-10_08h59.57.849,exp1,2023.1.0,59.979223197731365,
,,,,,,,,,,,,,,,,4,9.25,9.75,10.25,10.75,0,0.5,0.1,0.4,1.9000000000000001,10,initial,36.05,333,351,370,388,0,9,9,9,9,0,,,,,,,0,0,0,0,0,36,36,39,,,,,,,,,,,,num_3,1.213531299988972,num_3,0.45,0.7,0.4,0.6,15.2822,22.9233,return,3.7195954999915557,,,,,,,,,,,,,,,,,901,18,male,left_right_width,2024-10-10_08h59.57.849,exp1,2023.1.0,59.979223197731365,
,,,,,,,,,,,,,,,,5,9,9.5,10,10.5,11,0.5,0.1,0.4,2.4,10,initial,36.05,324,342,361,379,397,9,9,9,9,9,,,,,,,0,0,0,0,0,37,37,52,,,,,,,,,,,,num_4,1.0407927999913227,num_4,0.45,1.3,0.55,0.9,21.01303,34.38495,return,5.9266126999864355,,,,,,,,,,,,,,,,,901,18,male,left_right_width,2024-10-10_08h59.57.849,exp1,2023.1.0,59.979223197731365,
,,,,,,,,,,,,,,,,3,9.5,10,10.5,0,0,0.5,0.1,0.4,1.4000000000000001,10,initial,36.05,342,361,379,0,0,9,9,9,0,0,,,,,,,0,0,0,0,0,38,38,3,,,,,,,,,,,,num_2,0.9698183000000427,num_2,0.35,1.6,0.44999999999999996,0.7,17.19248,26.74385,return,2.651268599991454,,,,,,,,,,,,,,,,,901,18,male,left_right_width,2024-10-10_08h59.57.849,exp1,2023.1.0,59.979223197731365,
,,,,,,,,,,,,,,,,3,9.5,10,10.5,0,0,0.5,0.1,0.4,1.4000000000000001,10,initial,36.05,342,361,379,0,0,9,9,9,0,0,,,,,,,0,0,0,0,0,39,39,4,,,,,,,,,,,,num_2,1.0074790000071516,num_2,0.2,0.6,0.3,0.6,11.46165,22.9233,return,1.4387199000047985,,,,,,,,,,,,,,,,,901,18,male,left_right_width,2024-10-10_08h59.57.849,exp1,2023.1.0,59.979223197731365,
,,,,,,,,,,,,,,,,3,9.5,10,10.5,0,0,0.5,0.1,0.4,1.4000000000000001,10,initial,36.05,342,361,379,0,0,9,9,9,0,0,,,,,,,0,0,0,0,0,40,40,2,,,,,,,,,,,,num_2,0.932850099998177,num_2,0.35,0.8,0.49999999999999994,0.8,19.10275,30.5644,return,0.9076483999961056,,,,,,,,,,,,,,,,,901,18,male,left_right_width,2024-10-10_08h59.57.849,exp1,2023.1.0,59.979223197731365,
,,,,,,,,,,,,,,,,5,9,9.5,10,10.5,11,0.5,0.1,0.4,2.4,10,initial,36.05,324,342,361,379,397,9,9,9,9,9,,,,,,,0,0,0,0,0,41,41,20,,,,,,,,,,,,num_4,1.112125699990429,num_4,0.5,0.9,0.6500000000000001,1.0,24.83358,38.2055,return,1.7028851000068244,,,,,,,,,,,,,,,,,901,18,male,left_right_width,2024-10-10_08h59.57.849,exp1,2023.1.0,59.979223197731365,
,,,,,,,,,,,,,,,,5,9,9.5,10,10.5,11,0.5,0.1,0.4,2.4,10,initial,36.05,324,342,361,379,397,9,9,9,9,9,,,,,,,0,0,0,0,0,42,42,18,,,,,,,,,,,,num_4,0.9359173999982886,num_4,0.3,0.6,0.35,0.5,13.37193,19.10275,return,1.9835252999910153,,,,,,,,,,,,,,,,,901,18,male,left_right_width,2024-10-10_08h59.57.849,exp1,2023.1.0,59.979223197731365,
,,,,,,,,,,,,,,,,3,9.5,10,10.5,0,0,0.5,0.1,0.4,1.4000000000000001,10,initial,36.05,342,361,379,0,0,9,9,9,0,0,,,,,,,0,0,0,0,0,43,43,31,,,,,,,,,,,,num_2,0.9828367000009166,num_2,0.25,1.4,0.44999999999999996,0.8,17.19248,30.5644,return,2.24945149999985,,,,,,,,,,,,,,,,,901,18,male,left_right_width,2024-10-10_08h59.57.849,exp1,2023.1.0,59.979223197731365,
,,,,,,,,,,,,,,,,4,9.25,9.75,10.25,10.75,0,0.5,0.1,0.4,1.9000000000000001,10,initial,36.05,333,351,370,388,0,9,9,9,9,0,,,,,,,0,0,0,0,0,44,44,14,,,,,,,,,,,,num_3,1.6112148000102025,num_3,0.45,1.3,0.55,0.8,21.01303,30.5644,return,3.4982180000079097,,,,,,,,,,,,,,,,,901,18,male,left_right_width,2024-10-10_08h59.57.849,exp1,2023.1.0,59.979223197731365,
,,,,,,,,,,,,,,,,4,9.25,9.75,10.25,10.75,0,0.5,0.1,0.4,1.9000000000000001,10,initial,36.05,333,351,370,388,0,9,9,9,9,0,,,,,,,0,0,0,0,0,45,45,41,,,,,,,,,,,,num_3,0.9115125000098487,num_3,0.45,0.9,0.5,0.85,19.10275,32.47468,return,2.246715100001893,,,,,,,,,,,,,,,,,901,18,male,left_right_width,2024-10-10_08h59.57.849,exp1,2023.1.0,59.979223197731365,
,,,,,,,,,,,,,,,,3,9.5,10,10.5,0,0,0.5,0.1,0.4,1.4000000000000001,10,initial,36.05,342,361,379,0,0,9,9,9,0,0,,,,,,,0,0,0,0,0,46,46,30,,,,,,,,,,,,num_2,0.8728217000025325,num_2,0.3,0.8,0.44999999999999996,0.7,17.19248,26.74385,return,1.329029000000446,,,,,,,,,,,,,,,,,901,18,male,left_right_width,2024-10-10_08h59.57.849,exp1,2023.1.0,59.979223197731365,
,,,,,,,,,,,,,,,,3,9.5,10,10.5,0,0,0.5,0.1,0.4,1.4000000000000001,10,initial,36.05,342,361,379,0,0,9,9,9,0,0,,,,,,,0,0,0,0,0,47,47,5,,,,,,,,,,,,num_2,0.9018228999921121,num_2,0.45,1.0,0.5,0.8,19.10275,30.5644,return,1.980432700001984,,,,,,,,,,,,,,,,,901,18,male,left_right_width,2024-10-10_08h59.57.849,exp1,2023.1.0,59.979223197731365,
,,,,,,,,,,,,,,,,4,9.25,9.75,10.25,10.75,0,0.5,0.1,0.4,1.9000000000000001,10,initial,36.05,333,351,370,388,0,9,9,9,9,0,,,,,,,0,0,0,0,0,48,48,12,,,,,,,,,,,,num_3,0.8640426000056323,num_3,0.45,0.7,0.45,0.7,17.19248,26.74385,return,0.9524976999964565,,,,,,,,,,,,,,,,,901,18,male,left_right_width,2024-10-10_08h59.57.849,exp1,2023.1.0,59.979223197731365,
,,,,,,,,,,,,,,,,5,9,9.5,10,10.5,11,0.5,0.1,0.4,2.4,10,initial,36.05,324,342,361,379,397,9,9,9,9,9,,,,,,,0,0,0,0,0,49,49,24,,,,,,,,,,,,num_4,0.982668199998443,num_4,0.2,1.3,0.49999999999999994,0.8,19.10275,30.5644,return,3.2787066999881063,,,,,,,,,,,,,,,,,901,18,male,left_right_width,2024-10-10_08h59.57.849,exp1,2023.1.0,59.979223197731365,
,,,,,,,,,,,,,,,,5,9,9.5,10,10.5,11,0.5,0.1,0.4,2.4,10,initial,36.05,324,342,361,379,397,9,9,9,9,9,,,,,,,0,0,0,0,0,50,50,47,,,,,,,,,,,,num_4,1.4324827999953413,num_4,0.25,1.2,0.44999999999999996,0.8,17.19248,30.5644,return,2.4949645000015153,,,,,,,,,,,,,,,,,901,18,male,left_right_width,2024-10-10_08h59.57.849,exp1,2023.1.0,59.979223197731365,
,,,,,,,,,,,,,,,,5,9,9.5,10,10.5,11,0.5,0.1,0.4,2.4,10,initial,36.05,324,342,361,379,397,9,9,9,9,9,,,,,,,0,0,0,0,0,51,51,46,,,,,,,,,,,,num_4,1.8447011999960523,num_4,0.45,0.6,0.45,0.6,17.19248,22.9233,return,0.869723800002248,,,,,,,,,,,,,,,,,901,18,male,left_right_width,2024-10-10_08h59.57.849,exp1,2023.1.0,59.979223197731365,
,,,,,,,,,,,,,,,,3,9.5,10,10.5,0,0,0.5,0.1,0.4,1.4000000000000001,10,initial,36.05,342,361,379,0,0,9,9,9,0,0,,,,,,,0,0,0,0,0,52,52,27,,,,,,,,,,,,num_2,1.0491413999989163,num_2,0.45,1.6,0.45,0.7,17.19248,26.74385,return,2.330686000001151,,,,,,,,,,,,,,,,,901,18,male,left_right_width,2024-10-10_08h59.57.849,exp1,2023.1.0,59.979223197731365,
,,,,,,,,,,,,,,,,5,9,9.5,10,10.5,11,0.5,0.1,0.4,2.4,10,initial,36.05,324,342,361,379,397,9,9,9,9,9,,,,,,,0,0,0,0,0,53,53,19,,,,,,,,,,,,num_4,0.9686145000014221,num_4,0.25,1.1,0.5499999999999999,0.8,21.01303,30.5644,return,2.7947445000027074,,,,,,,,,,,,,,,,,901,18,male,left_right_width,2024-10-10_08h59.57.849,exp1,2023.1.0,59.979223197731365,
,,,,,,,,,,,,,,,,,,,,,,,,,,,,,,,,,,,,,,,,,,,,,0,0,0,0,,,,,,,,,,,,,,,,,,,,,,,,,,,,,840.1243790000008,840.1243790000008,840.1243790000008,,,,,,,,,,,,901,18,male,left_right_width,2024-10-10_08h59.57.849,exp1,2023.1.0,59.979223197731365,
,,,,,,,,,,,,,,,,3,9.1,10,10.9,0,0,0.9,0.35,0.55,2.35,10,initial,36.05,328,361,393,0,0,9,9,9,0,0,,,,,,,1,0,1,0,0,0,0,31,,,,,,,,,,,,num_3,1.3954606999905081,num_3,0.5,0.9,0.55,1.1,21.01303,42.02605,return,4.212790400008089,,,,,,,,,,,,,,,,,901,18,male,left_right_width,2024-10-10_08h59.57.849,exp1,2023.1.0,59.979223197731365,
,,,,,,,,,,,,,,,,5,8.2,9.1,10,10.9,11.8,0.9,0.35,0.55,4.15,10,initial,36.05,296,328,361,393,425,9,9,9,9,9,,,,,,,1,0,1,0,0,1,1,47,,,,,,,,,,,,num_4,2.0432652999879792,num_4,0.4,1.2,0.55,1.5,21.01303,57.30826,return,4.713327499994193,,,,,,,,,,,,,,,,,901,18,male,left_right_width,2024-10-10_08h59.57.849,exp1,2023.1.0,59.979223197731365,
,,,,,,,,,,,,,,,,5,8.2,9.1,10,10.9,11.8,0.9,0.35,0.55,4.15,10,initial,36.05,296,328,361,393,425,9,9,9,9,9,,,,,,,1,0,1,0,0,2,2,23,,,,,,,,,,,,num_4,1.2060501000087243,num_4,0.2,1.1,0.49999999999999994,1.5,19.10275,57.30826,return,2.793802500003949,,,,,,,,,,,,,,,,,901,18,male,left_right_width,2024-10-10_08h59.57.849,exp1,2023.1.0,59.979223197731365,
,,,,,,,,,,,,,,,,3,9.1,10,10.9,0,0,0.9,0.35,0.55,2.35,10,initial,36.05,328,361,393,0,0,9,9,9,0,0,,,,,,,1,0,1,0,0,3,3,8,,,,,,,,,,,,num_3,1.0936154999944847,num_3,0.3,1.2,0.5499999999999999,1.35,21.01303,51.57743,return,2.056194399992819,,,,,,,,,,,,,,,,,901,18,male,left_right_width,2024-10-10_08h59.57.849,exp1,2023.1.0,59.979223197731365,
,,,,,,,,,,,,,,,,5,8.2,9.1,10,10.9,11.8,0.9,0.35,0.55,4.15,10,initial,36.05,296,328,361,393,425,9,9,9,9,9,,,,,,,1,0,1,0,0,4,4,46,,,,,,,,,,,,num_4,0.8738980999914929,num_4,0.2,1.1,0.65,1.6,24.83358,61.12881,return,2.8049532000004547,,,,,,,,,,,,,,,,,901,18,male,left_right_width,2024-10-10_08h59.57.849,exp1,2023.1.0,59.979223197731365,
,,,,,,,,,,,,,,,,5,8.2,9.1,10,10.9,11.8,0.9,0.35,0.55,4.15,10,initial,36.05,296,328,361,393,425,9,9,9,9,9,,,,,,,1,0,1,0,0,5,5,19,,,,,,,,,,,,num_4,1.3684383999934653,num_4,0.3,1.0,0.5499999999999999,1.3,21.01303,49.66716,return,1.8360718000039924,,,,,,,,,,,,,,,,,901,18,male,left_right_width,2024-10-10_08h59.57.849,exp1,2023.1.0,59.979223197731365,
,,,,,,,,,,,,,,,,4,8.65,9.55,10.45,11.35,0,0.9,0.35,0.55,3.25,10,initial,36.05,312,344,377,409,0,9,9,9,9,0,,,,,,,1,0,1,0,0,6,6,13,,,,,,,,,,,,num_4,1.290112600006978,num_4,0.4,0.8,0.5,1.2,19.10275,45.8466,return,1.5098650999862002,,,,,,,,,,,,,,,,,901,18,male,left_right_width,2024-10-10_08h59.57.849,exp1,2023.1.0,59.979223197731365,
,,,,,,,,,,,,,,,,3,9.1,10,10.9,0,0,0.9,0.35,0.55,2.35,10,initial,36.05,328,361,393,0,0,9,9,9,0,0,,,,,,,1,0,1,0,0,7,7,0,,,,,,,,,,,,num_2,0.792496400012169,num_2,0.4,1.2,0.5,1.5,19.10275,57.30826,return,1.5564898000011453,,,,,,,,,,,,,,,,,901,18,male,left_right_width,2024-10-10_08h59.57.849,exp1,2023.1.0,59.979223197731365,
,,,,,,,,,,,,,,,,4,8.65,9.55,10.45,11.35,0,0.9,0.35,0.55,3.25,10,initial,36.05,312,344,377,409,0,9,9,9,9,0,,,,,,,1,0,1,0,0,8,8,43,,,,,,,,,,,,num_3,0.8993313999962993,num_3,0.25,0.5,0.49999999999999994,1.25,19.10275,47.75688,return,4.057845500006806,,,,,,,,,,,,,,,,,901,18,male,left_right_width,2024-10-10_08h59.57.849,exp1,2023.1.0,59.979223197731365,
,,,,,,,,,,,,,,,,3,9.1,10,10.9,0,0,0.9,0.35,0.55,2.35,10,initial,36.05,328,361,393,0,0,9,9,9,0,0,,,,,,,1,0,1,0,0,9,9,7,,,,,,,,,,,,num_2,0.8620223999896552,num_2,0.4,1.6,0.6000000000000001,1.6,22.9233,61.12881,return,1.2105326000018977,,,,,,,,,,,,,,,,,901,18,male,left_right_width,2024-10-10_08h59.57.849,exp1,2023.1.0,59.979223197731365,
,,,,,,,,,,,,,,,,5,8.2,9.1,10,10.9,11.8,0.9,0.35,0.55,4.15,10,initial,36.05,296,328,361,393,425,9,9,9,9,9,,,,,,,1,0,1,0,0,10,10,49,,,,,,,,,,,,num_4,0.9292950000090059,num_4,0.25,1.0,0.5499999999999999,1.3,21.01303,49.66716,return,2.57155409999541,,,,,,,,,,,,,,,,,901,18,male,left_right_width,2024-10-10_08h59.57.849,exp1,2023.1.0,59.979223197731365,
,,,,,,,,,,,,,,,,5,8.2,9.1,10,10.9,11.8,0.9,0.35,0.55,4.15,10,initial,36.05,296,328,361,393,425,9,9,9,9,9,,,,,,,1,0,1,0,0,11,11,22,,,,,,,,,,,,num_5,1.3131288000004133,num_5,0.55,1.3,0.55,1.3,21.01303,49.66716,return,1.2058084000018425,,,,,,,,,,,,,,,,,901,18,male,left_right_width,2024-10-10_08h59.57.849,exp1,2023.1.0,59.979223197731365,
,,,,,,,,,,,,,,,,3,9.1,10,10.9,0,0,0.9,0.35,0.55,2.35,10,initial,36.05,328,361,393,0,0,9,9,9,0,0,,,,,,,1,0,1,0,0,12,12,35,,,,,,,,,,,,num_2,1.1084367000003112,num_2,0.4,1.0,0.5,1.3,19.10275,49.66716,return,2.5475787999894237,,,,,,,,,,,,,,,,,901,18,male,left_right_width,2024-10-10_08h59.57.849,exp1,2023.1.0,59.979223197731365,
,,,,,,,,,,,,,,,,5,8.2,9.1,10,10.9,11.8,0.9,0.35,0.55,4.15,10,initial,36.05,296,328,361,393,425,9,9,9,9,9,,,,,,,1,0,1,0,0,13,13,53,,,,,,,,,,,,num_4,0.9798666999995476,num_4,0.3,1.2,0.5499999999999999,1.5,21.01303,57.30826,return,2.044138799989014,,,,,,,,,,,,,,,,,901,18,male,left_right_width,2024-10-10_08h59.57.849,exp1,2023.1.0,59.979223197731365,
,,,,,,,,,,,,,,,,5,8.2,9.1,10,10.9,11.8,0.9,0.35,0.55,4.15,10,initial,36.05,296,328,361,393,425,9,9,9,9,9,,,,,,,1,0,1,0,0,14,14,21,,,,,,,,,,,,num_4,0.8621299000078579,num_4,0.25,0.7,0.6,1.4,22.9233,53.48771,return,3.0948321000032593,,,,,,,,,,,,,,,,,901,18,male,left_right_width,2024-10-10_08h59.57.849,exp1,2023.1.0,59.979223197731365,
,,,,,,,,,,,,,,,,4,8.65,9.55,10.45,11.35,0,0.9,0.35,0.55,3.25,10,initial,36.05,312,344,377,409,0,9,9,9,9,0,,,,,,,1,0,1,0,0,15,15,41,,,,,,,,,,,,num_3,0.9354164999967907,num_3,0.55,1.3,0.55,1.4,21.01303,53.48771,return,1.4042028999974718,,,,,,,,,,,,,,,,,901,18,male,left_right_width,2024-10-10_08h59.57.849,exp1,2023.1.0,59.979223197731365,
,,,,,,,,,,,,,,,,3,9.1,10,10.9,0,0,0.9,0.35,0.55,2.35,10,initial,36.05,328,361,393,0,0,9,9,9,0,0,,,,,,,1,0,1,0,0,16,16,6,,,,,,,,,,,,num_2,1.01742170000216,num_2,0.45,1.0,0.6000000000000001,1.5,22.9233,57.30826,return,2.1384498000115855,,,,,,,,,,,,,,,,,901,18,male,left_right_width,2024-10-10_08h59.57.849,exp1,2023.1.0,59.979223197731365,
,,,,,,,,,,,,,,,,3,9.1,10,10.9,0,0,0.9,0.35,0.55,2.35,10,initial,36.05,328,361,393,0,0,9,9,9,0,0,,,,,,,1,0,1,0,0,17,17,1,,,,,,,,,,,,num_2,0.8453745000006165,num_2,0.2,0.8,0.5499999999999999,1.4,21.01303,53.48771,return,2.804820399993332,,,,,,,,,,,,,,,,,901,18,male,left_right_width,2024-10-10_08h59.57.849,exp1,2023.1.0,59.979223197731365,
,,,,,,,,,,,,,,,,5,8.2,9.1,10,10.9,11.8,0.9,0.35,0.55,4.15,10,initial,36.05,296,328,361,393,425,9,9,9,9,9,,,,,,,1,0,1,0,0,18,18,51,,,,,,,,,,,,num_4,0.898906899994472,num_4,0.35,1.0,0.6,1.5,22.9233,57.30826,return,2.18495310000435,,,,,,,,,,,,,,,,,901,18,male,left_right_width,2024-10-10_08h59.57.849,exp1,2023.1.0,59.979223197731365,
,,,,,,,,,,,,,,,,5,8.2,9.1,10,10.9,11.8,0.9,0.35,0.55,4.15,10,initial,36.05,296,328,361,393,425,9,9,9,9,9,,,,,,,1,0,1,0,0,19,19,48,,,,,,,,,,,,num_4,1.2580831999948714,num_4,0.4,0.7,0.6500000000000001,1.5,24.83358,57.30826,return,2.5751505000080215,,,,,,,,,,,,,,,,,901,18,male,left_right_width,2024-10-10_08h59.57.849,exp1,2023.1.0,59.979223197731365,
,,,,,,,,,,,,,,,,3,9.1,10,10.9,0,0,0.9,0.35,0.55,2.35,10,initial,36.05,328,361,393,0,0,9,9,9,0,0,,,,,,,1,0,1,0,0,20,20,34,,,,,,,,,,,,num_2,0.7807825000054436,num_2,0.2,0.4,0.5499999999999999,1.1,21.01303,42.02605,return,4.492615399998613,,,,,,,,,,,,,,,,,901,18,male,left_right_width,2024-10-10_08h59.57.849,exp1,2023.1.0,59.979223197731365,
,,,,,,,,,,,,,,,,5,8.2,9.1,10,10.9,11.8,0.9,0.35,0.55,4.15,10,initial,36.05,296,328,361,393,425,9,9,9,9,9,,,,,,,1,0,1,0,0,21,21,25,,,,,,,,,,,,num_4,0.8206000000063796,num_4,0.2,0.3,0.6,1.5,22.9233,57.30826,return,4.335641600002418,,,,,,,,,,,,,,,,,901,18,male,left_right_width,2024-10-10_08h59.57.849,exp1,2023.1.0,59.979223197731365,
,,,,,,,,,,,,,,,,3,9.1,10,10.9,0,0,0.9,0.35,0.55,2.35,10,initial,36.05,328,361,393,0,0,9,9,9,0,0,,,,,,,1,0,1,0,0,22,22,27,,,,,,,,,,,,num_2,0.9435166000039317,num_2,0.35,0.4,0.6,1.4,22.9233,53.48771,return,2.9434241999988444,,,,,,,,,,,,,,,,,901,18,male,left_right_width,2024-10-10_08h59.57.849,exp1,2023.1.0,59.979223197731365,
,,,,,,,,,,,,,,,,4,8.65,9.55,10.45,11.35,0,0.9,0.35,0.55,3.25,10,initial,36.05,312,344,377,409,0,9,9,9,9,0,,,,,,,1,0,1,0,0,23,23,17,,,,,,,,,,,,num_3,1.032575999997789,num_3,0.45,0.5,0.6500000000000001,1.4,24.83358,53.48771,return,4.2677602999901865,,,,,,,,,,,,,,,,,901,18,male,left_right_width,2024-10-10_08h59.57.849,exp1,2023.1.0,59.979223197731365,
,,,,,,,,,,,,,,,,4,8.65,9.55,10.45,11.35,0,0.9,0.35,0.55,3.25,10,initial,36.05,312,344,377,409,0,9,9,9,9,0,,,,,,,1,0,1,0,0,24,24,16,,,,,,,,,,,,num_3,0.715939999994589,num_3,0.3,0.8,0.6,1.3,22.9233,49.66716,return,2.5071412999968743,,,,,,,,,,,,,,,,,901,18,male,left_right_width,2024-10-10_08h59.57.849,exp1,2023.1.0,59.979223197731365,
,,,,,,,,,,,,,,,,4,8.65,9.55,10.45,11.35,0,0.9,0.35,0.55,3.25,10,initial,36.05,312,344,377,409,0,9,9,9,9,0,,,,,,,1,0,1,0,0,25,25,11,,,,,,,,,,,,num_3,0.8825718000007328,num_3,0.2,0.9,0.6,1.3,22.9233,49.66716,return,3.24474540000665,,,,,,,,,,,,,,,,,901,18,male,left_right_width,2024-10-10_08h59.57.849,exp1,2023.1.0,59.979223197731365,
,,,,,,,,,,,,,,,,3,9.1,10,10.9,0,0,0.9,0.35,0.55,2.35,10,initial,36.05,328,361,393,0,0,9,9,9,0,0,,,,,,,1,0,1,0,0,26,26,4,,,,,,,,,,,,num_2,0.7497246999992058,num_2,0.35,0.4,0.6,1.3,22.9233,49.66716,return,2.4745454999938374,,,,,,,,,,,,,,,,,901,18,male,left_right_width,2024-10-10_08h59.57.849,exp1,2023.1.0,59.979223197731365,
,,,,,,,,,,,,,,,,3,9.1,10,10.9,0,0,0.9,0.35,0.55,2.35,10,initial,36.05,328,361,393,0,0,9,9,9,0,0,,,,,,,1,0,1,0,0,27,27,28,,,,,,,,,,,,num_2,0.8457533000037074,num_2,0.5,0.8,0.5,1.3,19.10275,49.66716,return,1.082197499999893,,,,,,,,,,,,,,,,,901,18,male,left_right_width,2024-10-10_08h59.57.849,exp1,2023.1.0,59.979223197731365,
,,,,,,,,,,,,,,,,4,8.65,9.55,10.45,11.35,0,0.9,0.35,0.55,3.25,10,initial,36.05,312,344,377,409,0,9,9,9,9,0,,,,,,,1,0,1,0,0,28,28,44,,,,,,,,,,,,num_3,0.8733261000015773,num_3,0.45,0.6,0.55,1.1,21.01303,42.02605,return,2.7216272999939974,,,,,,,,,,,,,,,,,901,18,male,left_right_width,2024-10-10_08h59.57.849,exp1,2023.1.0,59.979223197731365,
,,,,,,,,,,,,,,,,4,8.65,9.55,10.45,11.35,0,0.9,0.35,0.55,3.25,10,initial,36.05,312,344,377,409,0,9,9,9,9,0,,,,,,,1,0,1,0,0,29,29,42,,,,,,,,,,,,num_3,0.904070699994918,num_3,0.25,0.8,0.6,1.35,22.9233,51.57743,return,3.2140825999958906,,,,,,,,,,,,,,,,,901,18,male,left_right_width,2024-10-10_08h59.57.849,exp1,2023.1.0,59.979223197731365,
,,,,,,,,,,,,,,,,5,8.2,9.1,10,10.9,11.8,0.9,0.35,0.55,4.15,10,initial,36.05,296,328,361,393,425,9,9,9,9,9,,,,,,,1,0,1,0,0,30,30,26,,,,,,,,,,,,num_4,0.9015499000088312,num_4,0.3,1.2,0.7000000000000001,1.5,26.74385,57.30826,return,2.656508100000792,,,,,,,,,,,,,,,,,901,18,male,left_right_width,2024-10-10_08h59.57.849,exp1,2023.1.0,59.979223197731365,
,,,,,,,,,,,,,,,,5,8.2,9.1,10,10.9,11.8,0.9,0.35,0.55,4.15,10,initial,36.05,296,328,361,393,425,9,9,9,9,9,,,,,,,1,0,1,0,0,31,31,50,,,,,,,,,,,,num_5,0.9961336999986088,num_5,0.25,1.2,0.65,1.45,24.83358,55.39798,return,3.059462799996254,,,,,,,,,,,,,,,,,901,18,male,left_right_width,2024-10-10_08h59.57.849,exp1,2023.1.0,59.979223197731365,
,,,,,,,,,,,,,,,,3,9.1,10,10.9,0,0,0.9,0.35,0.55,2.35,10,initial,36.05,328,361,393,0,0,9,9,9,0,0,,,,,,,1,0,1,0,0,32,32,32,,,,,,,,,,,,num_2,0.7459377000050154,num_2,0.2,0.8,0.6,1.4,22.9233,53.48771,return,4.2824321999942185,,,,,,,,,,,,,,,,,901,18,male,left_right_width,2024-10-10_08h59.57.849,exp1,2023.1.0,59.979223197731365,
,,,,,,,,,,,,,,,,3,9.1,10,10.9,0,0,0.9,0.35,0.55,2.35,10,initial,36.05,328,361,393,0,0,9,9,9,0,0,,,,,,,1,0,1,0,0,33,33,33,,,,,,,,,,,,num_2,0.728701900006854,num_2,0.55,1.4,0.55,1.3,21.01303,49.66716,return,1.3350197999970987,,,,,,,,,,,,,,,,,901,18,male,left_right_width,2024-10-10_08h59.57.849,exp1,2023.1.0,59.979223197731365,
,,,,,,,,,,,,,,,,3,9.1,10,10.9,0,0,0.9,0.35,0.55,2.35,10,initial,36.05,328,361,393,0,0,9,9,9,0,0,,,,,,,1,0,1,0,0,34,34,3,,,,,,,,,,,,num_2,0.79228239999793,num_2,0.2,0.6,0.49999999999999994,1.2,19.10275,45.8466,return,2.3597566000098595,,,,,,,,,,,,,,,,,901,18,male,left_right_width,2024-10-10_08h59.57.849,exp1,2023.1.0,59.979223197731365,
,,,,,,,,,,,,,,,,4,8.65,9.55,10.45,11.35,0,0.9,0.35,0.55,3.25,10,initial,36.05,312,344,377,409,0,9,9,9,9,0,,,,,,,1,0,1,0,0,35,35,38,,,,,,,,,,,,num_3,0.8655340999976033,num_3,0.5,0.7,0.55,1.1,21.01303,42.02605,return,2.3958232999866595,,,,,,,,,,,,,,,,,901,18,male,left_right_width,2024-10-10_08h59.57.849,exp1,2023.1.0,59.979223197731365,
,,,,,,,,,,,,,,,,4,8.65,9.55,10.45,11.35,0,0.9,0.35,0.55,3.25,10,initial,36.05,312,344,377,409,0,9,9,9,9,0,,,,,,,1,0,1,0,0,36,36,9,,,,,,,,,,,,num_3,0.9466161999880569,num_3,0.4,0.7,0.55,1.1,21.01303,42.02605,return,2.079679100002977,,,,,,,,,,,,,,,,,901,18,male,left_right_width,2024-10-10_08h59.57.849,exp1,2023.1.0,59.979223197731365,
,,,,,,,,,,,,,,,,4,8.65,9.55,10.45,11.35,0,0.9,0.35,0.55,3.25,10,initial,36.05,312,344,377,409,0,9,9,9,9,0,,,,,,,1,0,1,0,0,37,37,12,,,,,,,,,,,,num_3,0.7413581000000704,num_3,0.45,1.2,0.6000000000000001,1.3,22.9233,49.66716,return,1.8451474999892525,,,,,,,,,,,,,,,,,901,18,male,left_right_width,2024-10-10_08h59.57.849,exp1,2023.1.0,59.979223197731365,
,,,,,,,,,,,,,,,,4,8.65,9.55,10.45,11.35,0,0.9,0.35,0.55,3.25,10,initial,36.05,312,344,377,409,0,9,9,9,9,0,,,,,,,1,0,1,0,0,38,38,10,,,,,,,,,,,,num_3,0.8188921000109985,num_3,0.3,0.5,0.44999999999999996,1.05,17.19248,40.11578,return,2.506248899997445,,,,,,,,,,,,,,,,,901,18,male,left_right_width,2024-10-10_08h59.57.849,exp1,2023.1.0,59.979223197731365,
,,,,,,,,,,,,,,,,4,8.65,9.55,10.45,11.35,0,0.9,0.35,0.55,3.25,10,initial,36.05,312,344,377,409,0,9,9,9,9,0,,,,,,,1,0,1,0,0,39,39,39,,,,,,,,,,,,num_3,0.8328089000133332,num_3,0.5,1.1,0.6500000000000001,1.25,24.83358,47.75688,return,1.534326199995121,,,,,,,,,,,,,,,,,901,18,male,left_right_width,2024-10-10_08h59.57.849,exp1,2023.1.0,59.979223197731365,
,,,,,,,,,,,,,,,,4,8.65,9.55,10.45,11.35,0,0.9,0.35,0.55,3.25,10,initial,36.05,312,344,377,409,0,9,9,9,9,0,,,,,,,1,0,1,0,0,40,40,40,,,,,,,,,,,,num_4,1.0480785999970976,num_4,0.2,0.7,0.5499999999999999,1.0,21.01303,38.2055,return,3.4314312000060454,,,,,,,,,,,,,,,,,901,18,male,left_right_width,2024-10-10_08h59.57.849,exp1,2023.1.0,59.979223197731365,
,,,,,,,,,,,,,,,,4,8.65,9.55,10.45,11.35,0,0.9,0.35,0.55,3.25,10,initial,36.05,312,344,377,409,0,9,9,9,9,0,,,,,,,1,0,1,0,0,41,41,14,,,,,,,,,,,,num_3,1.25461199998972,num_3,0.4,1.1,0.6000000000000001,1.15,22.9233,43.93633,return,1.5669472000008682,,,,,,,,,,,,,,,,,901,18,male,left_right_width,2024-10-10_08h59.57.849,exp1,2023.1.0,59.979223197731365,
,,,,,,,,,,,,,,,,3,9.1,10,10.9,0,0,0.9,0.35,0.55,2.35,10,initial,36.05,328,361,393,0,0,9,9,9,0,0,,,,,,,1,0,1,0,0,42,42,29,,,,,,,,,,,,num_2,1.085253900004318,num_2,0.5,1.6,0.8000000000000003,1.6,30.5644,61.12881,return,2.511982000010903,,,,,,,,,,,,,,,,,901,18,male,left_right_width,2024-10-10_08h59.57.849,exp1,2023.1.0,59.979223197731365,
,,,,,,,,,,,,,,,,5,8.2,9.1,10,10.9,11.8,0.9,0.35,0.55,4.15,10,initial,36.05,296,328,361,393,425,9,9,9,9,9,,,,,,,1,0,1,0,0,43,43,52,,,,,,,,,,,,num_4,0.8185482999979286,num_4,0.3,1.3,0.7500000000000001,1.4,28.65413,53.48771,return,3.804191199989873,,,,,,,,,,,,,,,,,901,18,male,left_right_width,2024-10-10_08h59.57.849,exp1,2023.1.0,59.979223197731365,
,,,,,,,,,,,,,,,,5,8.2,9.1,10,10.9,11.8,0.9,0.35,0.55,4.15,10,initial,36.05,296,328,361,393,425,9,9,9,9,9,,,,,,,1,0,1,0,0,44,44,45,,,,,,,,,,,,num_4,1.3561780000018189,num_4,0.35,0.9,0.65,1.2,24.83358,45.8466,return,1.888996199995745,,,,,,,,,,,,,,,,,901,18,male,left_right_width,2024-10-10_08h59.57.849,exp1,2023.1.0,59.979223197731365,
,,,,,,,,,,,,,,,,5,8.2,9.1,10,10.9,11.8,0.9,0.35,0.55,4.15,10,initial,36.05,296,328,361,393,425,9,9,9,9,9,,,,,,,1,0,1,0,0,45,45,24,,,,,,,,,,,,num_4,0.9447580999985803,num_4,0.3,0.6,0.65,1.2,24.83358,45.8466,return,4.659726899990346,,,,,,,,,,,,,,,,,901,18,male,left_right_width,2024-10-10_08h59.57.849,exp1,2023.1.0,59.979223197731365,
,,,,,,,,,,,,,,,,5,8.2,9.1,10,10.9,11.8,0.9,0.35,0.55,4.15,10,initial,36.05,296,328,361,393,425,9,9,9,9,9,,,,,,,1,0,1,0,0,46,46,18,,,,,,,,,,,,num_4,0.8245872999978019,num_4,0.4,0.5,0.6500000000000001,1.3,24.83358,49.66716,return,2.615448299999116,,,,,,,,,,,,,,,,,901,18,male,left_right_width,2024-10-10_08h59.57.849,exp1,2023.1.0,59.979223197731365,
,,,,,,,,,,,,,,,,3,9.1,10,10.9,0,0,0.9,0.35,0.55,2.35,10,initial,36.05,328,361,393,0,0,9,9,9,0,0,,,,,,,1,0,1,0,0,47,47,2,,,,,,,,,,,,num_2,0.8046515000023646,num_2,0.55,1.2,0.6500000000000001,1.4,24.83358,53.48771,return,1.475117699999828,,,,,,,,,,,,,,,,,901,18,male,left_right_width,2024-10-10_08h59.57.849,exp1,2023.1.0,59.979223197731365,
,,,,,,,,,,,,,,,,4,8.65,9.55,10.45,11.35,0,0.9,0.35,0.55,3.25,10,initial,36.05,312,344,377,409,0,9,9,9,9,0,,,,,,,1,0,1,0,0,48,48,15,,,,,,,,,,,,num_3,1.0659409999934724,num_3,0.5,1.1,0.6000000000000001,1.2,22.9233,45.8466,return,1.659945899999002,,,,,,,,,,,,,,,,,901,18,male,left_right_width,2024-10-10_08h59.57.849,exp1,2023.1.0,59.979223197731365,
,,,,,,,,,,,,,,,,3,9.1,10,10.9,0,0,0.9,0.35,0.55,2.35,10,initial,36.05,328,361,393,0,0,9,9,9,0,0,,,,,,,1,0,1,0,0,49,49,30,,,,,,,,,,,,num_2,0.6763044999970589,num_2,0.4,1.6,0.7000000000000002,1.4,26.74385,53.48771,return,3.110782499992638,,,,,,,,,,,,,,,,,901,18,male,left_right_width,2024-10-10_08h59.57.849,exp1,2023.1.0,59.979223197731365,
,,,,,,,,,,,,,,,,4,8.65,9.55,10.45,11.35,0,0.9,0.35,0.55,3.25,10,initial,36.05,312,344,377,409,0,9,9,9,9,0,,,,,,,1,0,1,0,0,50,50,36,,,,,,,,,,,,num_3,0.9258785999991233,num_3,0.3,1.2,0.65,1.2,24.83358,45.8466,return,1.8583319000026677,,,,,,,,,,,,,,,,,901,18,male,left_right_width,2024-10-10_08h59.57.849,exp1,2023.1.0,59.979223197731365,
,,,,,,,,,,,,,,,,5,8.2,9.1,10,10.9,11.8,0.9,0.35,0.55,4.15,10,initial,36.05,296,328,361,393,425,9,9,9,9,9,,,,,,,1,0,1,0,0,51,51,20,,,,,,,,,,,,num_4,0.9184122000006028,num_4,0.45,1.1,0.7500000000000002,1.5,28.65413,57.30826,return,2.2049239999905694,,,,,,,,,,,,,,,,,901,18,male,left_right_width,2024-10-10_08h59.57.849,exp1,2023.1.0,59.979223197731365,
,,,,,,,,,,,,,,,,3,9.1,10,10.9,0,0,0.9,0.35,0.55,2.35,10,initial,36.05,328,361,393,0,0,9,9,9,0,0,,,,,,,1,0,1,0,0,52,52,5,,,,,,,,,,,,num_2,0.757757399987895,num_2,0.2,0.6,0.5499999999999999,1.2,21.01303,45.8466,return,2.837661899990053,,,,,,,,,,,,,,,,,901,18,male,left_right_width,2024-10-10_08h59.57.849,exp1,2023.1.0,59.979223197731365,
,,,,,,,,,,,,,,,,4,8.65,9.55,10.45,11.35,0,0.9,0.35,0.55,3.25,10,initial,36.05,312,344,377,409,0,9,9,9,9,0,,,,,,,1,0,1,0,0,53,53,37,,,,,,,,,,,,num_3,0.7974297999899136,num_3,0.35,1,0.7000000000000001,1.3,26.74385,49.66716,return,3.081785000002128,,,,,,,,,,,,,,,,,901,18,male,left_right_width,2024-10-10_08h59.57.849,exp1,2023.1.0,59.979223197731365,
,,,,,,,,,,,,,,,,,,,,,,,,,,,,,,,,,,,,,,,,,,,,,1,0,1,0,,,,,,,,,,,,,,,,,,,,,,,,,,,,,1155.3071103000111,1155.3071103000111,1155.3071103000111,,,,,,,,,,,,901,18,male,left_right_width,2024-10-10_08h59.57.849,exp1,2023.1.0,59.979223197731365,
,,,,,,,,,,,,,,,,3,9.5,10,10.5,0,0,0.5,0.25,0.25,1.25,10,initial,36.05,342,361,379,0,0,9,9,9,0,0,,,,,,,2,0,2,0,0,0,0,2,,,,,,,,,,,,num_2,1.2475736999913352,num_2,0.4,1.4,0.25000000000000006,0.6,9.55138,22.9233,return,2.8436223000026075,,,,,,,,,,,,,,,,,901,18,male,left_right_width,2024-10-10_08h59.57.849,exp1,2023.1.0,59.979223197731365,
,,,,,,,,,,,,,,,,5,9,9.5,10,10.5,11,0.5,0.25,0.25,2.25,10,initial,36.05,324,342,361,379,397,9,9,9,9,9,,,,,,,2,0,2,0,0,1,1,18,,,,,,,,,,,,num_4,1.04876140000124,num_4,0.2,1.0,0.2,0.6,7.6411,22.9233,return,1.630511099996511,,,,,,,,,,,,,,,,,901,18,male,left_right_width,2024-10-10_08h59.57.849,exp1,2023.1.0,59.979223197731365,
,,,,,,,,,,,,,,,,4,9.25,9.75,10.25,10.75,0,0.5,0.25,0.25,1.75,10,initial,36.05,333,351,370,388,0,9,9,9,9,0,,,,,,,2,0,2,0,0,2,2,37,,,,,,,,,,,,num_3,0.810116199994809,num_3,0.25,0.6,0.25,0.55,9.55138,21.01303,return,0.8840669999917736,,,,,,,,,,,,,,,,,901,18,male,left_right_width,2024-10-10_08h59.57.849,exp1,2023.1.0,59.979223197731365,
,,,,,,,,,,,,,,,,4,9.25,9.75,10.25,10.75,0,0.5,0.25,0.25,1.75,10,initial,36.05,333,351,370,388,0,9,9,9,9,0,,,,,,,2,0,2,0,0,3,3,16,,,,,,,,,,,,num_3,0.8439681000018027,num_3,0.4,0.9,0.15000000000000008,0.65,5.73083,24.83358,return,3.333352300003753,,,,,,,,,,,,,,,,,901,18,male,left_right_width,2024-10-10_08h59.57.849,exp1,2023.1.0,59.979223197731365,
,,,,,,,,,,,,,,,,5,9,9.5,10,10.5,11,0.5,0.25,0.25,2.25,10,initial,36.05,324,342,361,379,397,9,9,9,9,9,,,,,,,2,0,2,0,0,4,4,48,,,,,,,,,,,,num_4,1.3656293999956688,num_4,0.5,0.6,0.20000000000000007,0.6,7.6411,22.9233,return,7.608356500000809,,,,,,,,,,,,,,,,,901,18,male,left_right_width,2024-10-10_08h59.57.849,exp1,2023.1.0,59.979223197731365,
,,,,,,,,,,,,,,,,4,9.25,9.75,10.25,10.75,0,0.5,0.25,0.25,1.75,10,initial,36.05,333,351,370,388,0,9,9,9,9,0,,,,,,,2,0,2,0,0,5,5,17,,,,,,,,,,,,num_3,0.8303798999986611,num_3,0.3,0.5,0.2,0.55,7.6411,21.01303,return,1.9133046999922954,,,,,,,,,,,,,,,,,901,18,male,left_right_width,2024-10-10_08h59.57.849,exp1,2023.1.0,59.979223197731365,
,,,,,,,,,,,,,,,,4,9.25,9.75,10.25,10.75,0,0.5,0.25,0.25,1.75,10,initial,36.05,333,351,370,388,0,9,9,9,9,0,,,,,,,2,0,2,0,0,6,6,40,,,,,,,,,,,,num_3,1.0208344999991823,num_3,0.35,0.8,0.2,0.75,7.6411,28.65413,return,1.567429999995511,,,,,,,,,,,,,,,,,901,18,male,left_right_width,2024-10-10_08h59.57.849,exp1,2023.1.0,59.979223197731365,
,,,,,,,,,,,,,,,,3,9.5,10,10.5,0,0,0.5,0.25,0.25,1.25,10,initial,36.05,342,361,379,0,0,9,9,9,0,0,,,,,,,2,0,2,0,0,7,7,35,,,,,,,,,,,,num_2,0.8165912999975262,num_2,0.4,1.6,0.15000000000000008,0.6,5.73083,22.9233,return,2.942642399997567,,,,,,,,,,,,,,,,,901,18,male,left_right_width,2024-10-10_08h59.57.849,exp1,2023.1.0,59.979223197731365,
,,,,,,,,,,,,,,,,3,9.5,10,10.5,0,0,0.5,0.25,0.25,1.25,10,initial,36.05,342,361,379,0,0,9,9,9,0,0,,,,,,,2,0,2,0,0,8,8,32,,,,,,,,,,,,num_3,1.4210262999986298,num_3,0.2,0.3,0.15000000000000002,0.6,5.73083,22.9233,return,1.855231499997899,,,,,,,,,,,,,,,,,901,18,male,left_right_width,2024-10-10_08h59.57.849,exp1,2023.1.0,59.979223197731365,
,,,,,,,,,,,,,,,,3,9.5,10,10.5,0,0,0.5,0.25,0.25,1.25,10,initial,36.05,342,361,379,0,0,9,9,9,0,0,,,,,,,2,0,2,0,0,9,9,33,,,,,,,,,,,,num_2,0.9652642000000924,num_2,0.55,1.2,0.15000000000000008,0.6,5.73083,22.9233,return,3.148810600003344,,,,,,,,,,,,,,,,,901,18,male,left_right_width,2024-10-10_08h59.57.849,exp1,2023.1.0,59.979223197731365,
,,,,,,,,,,,,,,,,5,9,9.5,10,10.5,11,0.5,0.25,0.25,2.25,10,initial,36.05,324,342,361,379,397,9,9,9,9,9,,,,,,,2,0,2,0,0,10,10,19,,,,,,,,,,,,num_4,0.9185528999951202,num_4,0.25,1.3,0.15000000000000002,0.6,5.73083,22.9233,return,2.6382616000046255,,,,,,,,,,,,,,,,,901,18,male,left_right_width,2024-10-10_08h59.57.849,exp1,2023.1.0,59.979223197731365,
,,,,,,,,,,,,,,,,4,9.25,9.75,10.25,10.75,0,0.5,0.25,0.25,1.75,10,initial,36.05,333,351,370,388,0,9,9,9,9,0,,,,,,,2,0,2,0,0,11,11,38,,,,,,,,,,,,num_3,0.8013514000049327,num_3,0.3,0.4,0.10000000000000002,0.55,3.82055,21.01303,return,1.8647894999885466,,,,,,,,,,,,,,,,,901,18,male,left_right_width,2024-10-10_08h59.57.849,exp1,2023.1.0,59.979223197731365,
,,,,,,,,,,,,,,,,5,9,9.5,10,10.5,11,0.5,0.25,0.25,2.25,10,initial,36.05,324,342,361,379,397,9,9,9,9,9,,,,,,,2,0,2,0,0,12,12,49,,,,,,,,,,,,num_4,0.9296718000114197,num_4,0.5,1.2,0.10000000000000007,0.6,3.82055,22.9233,return,2.491416199991363,,,,,,,,,,,,,,,,,901,18,male,left_right_width,2024-10-10_08h59.57.849,exp1,2023.1.0,59.979223197731365,
,,,,,,,,,,,,,,,,4,9.25,9.75,10.25,10.75,0,0.5,0.25,0.25,1.75,10,initial,36.05,333,351,370,388,0,9,9,9,9,0,,,,,,,2,0,2,0,0,13,13,36,,,,,,,,,,,,num_3,0.8161723000084748,num_3,0.55,0.6,0.15000000000000008,0.65,5.73083,24.83358,return,2.0370700000057695,,,,,,,,,,,,,,,,,901,18,male,left_right_width,2024-10-10_08h59.57.849,exp1,2023.1.0,59.979223197731365,
,,,,,,,,,,,,,,,,3,9.5,10,10.5,0,0,0.5,0.25,0.25,1.25,10,initial,36.05,342,361,379,0,0,9,9,9,0,0,,,,,,,2,0,2,0,0,14,14,4,,,,,,,,,,,,num_2,0.949059100006707,num_2,0.5,0.6,0.15000000000000008,0.7,5.73083,26.74385,return,1.6138878000056138,,,,,,,,,,,,,,,,,901,18,male,left_right_width,2024-10-10_08h59.57.849,exp1,2023.1.0,59.979223197731365,
,,,,,,,,,,,,,,,,5,9,9.5,10,10.5,11,0.5,0.25,0.25,2.25,10,initial,36.05,324,342,361,379,397,9,9,9,9,9,,,,,,,2,0,2,0,0,15,15,47,,,,,,,,,,,,num_4,0.9162899999937508,num_4,0.5,0.7,0.10000000000000007,0.7,3.82055,26.74385,return,1.967783200001577,,,,,,,,,,,,,,,,,901,18,male,left_right_width,2024-10-10_08h59.57.849,exp1,2023.1.0,59.979223197731365,
,,,,,,,,,,,,,,,,5,9,9.5,10,10.5,11,0.5,0.25,0.25,2.25,10,initial,36.05,324,342,361,379,397,9,9,9,9,9,,,,,,,2,0,2,0,0,16,16,20,,,,,,,,,,,,num_4,1.1944857999915257,num_4,0.45,1.0,0.15000000000000008,0.6,5.73083,22.9233,return,3.780974799999967,,,,,,,,,,,,,,,,,901,18,male,left_right_width,2024-10-10_08h59.57.849,exp1,2023.1.0,59.979223197731365,
,,,,,,,,,,,,,,,,3,9.5,10,10.5,0,0,0.5,0.25,0.25,1.25,10,initial,36.05,342,361,379,0,0,9,9,9,0,0,,,,,,,2,0,2,0,0,17,17,31,,,,,,,,,,,,num_2,2.1973359000112396,num_2,0.3,0.8,0.2,0.6,7.6411,22.9233,return,1.2764235999929952,,,,,,,,,,,,,,,,,901,18,male,left_right_width,2024-10-10_08h59.57.849,exp1,2023.1.0,59.979223197731365,
,,,,,,,,,,,,,,,,5,9,9.5,10,10.5,11,0.5,0.25,0.25,2.25,10,initial,36.05,324,342,361,379,397,9,9,9,9,9,,,,,,,2,0,2,0,0,18,18,26,,,,,,,,,,,,num_4,0.886408799997298,num_4,0.2,1.3,0.15000000000000002,0.7,5.73083,26.74385,return,4.2263558999984525,,,,,,,,,,,,,,,,,901,18,male,left_right_width,2024-10-10_08h59.57.849,exp1,2023.1.0,59.979223197731365,
,,,,,,,,,,,,,,,,5,9,9.5,10,10.5,11,0.5,0.25,0.25,2.25,10,initial,36.05,324,342,361,379,397,9,9,9,9,9,,,,,,,2,0,2,0,0,19,19,21,,,,,,,,,,,,num_4,0.869436000008136,num_4,0.55,1.1,0.15000000000000008,0.7,5.73083,26.74385,return,2.642794800005504,,,,,,,,,,,,,,,,,901,18,male,left_right_width,2024-10-10_08h59.57.849,exp1,2023.1.0,59.979223197731365,
,,,,,,,,,,,,,,,,3,9.5,10,10.5,0,0,0.5,0.25,0.25,1.25,10,initial,36.05,342,361,379,0,0,9,9,9,0,0,,,,,,,2,0,2,0,0,20,20,3,,,,,,,,,,,,num_3,1.3141533999878448,num_3,0.2,0.6,0.2,0.6,7.6411,22.9233,return,0.9027594999934081,,,,,,,,,,,,,,,,,901,18,male,left_right_width,2024-10-10_08h59.57.849,exp1,2023.1.0,59.979223197731365,
,,,,,,,,,,,,,,,,3,9.5,10,10.5,0,0,0.5,0.25,0.25,1.25,10,initial,36.05,342,361,379,0,0,9,9,9,0,0,,,,,,,2,0,2,0,0,21,21,6,,,,,,,,,,,,num_3,1.2633149000030244,num_3,0.25,0.6,0.15000000000000002,0.65,5.73083,24.83358,return,2.870323399998597,,,,,,,,,,,,,,,,,901,18,male,left_right_width,2024-10-10_08h59.57.849,exp1,2023.1.0,59.979223197731365,
,,,,,,,,,,,,,,,,3,9.5,10,10.5,0,0,0.5,0.25,0.25,1.25,10,initial,36.05,342,361,379,0,0,9,9,9,0,0,,,,,,,2,0,2,0,0,22,22,29,,,,,,,,,,,,num_3,1.4765435999870533,num_3,0.2,0.7,0.2,0.7,7.6411,26.74385,return,0.6303114999900572,,,,,,,,,,,,,,,,,901,18,male,left_right_width,2024-10-10_08h59.57.849,exp1,2023.1.0,59.979223197731365,
,,,,,,,,,,,,,,,,3,9.5,10,10.5,0,0,0.5,0.25,0.25,1.25,10,initial,36.05,342,361,379,0,0,9,9,9,0,0,,,,,,,2,0,2,0,0,23,23,28,,,,,,,,,,,,num_3,1.1539001999917673,num_3,0.4,1.2,0.10000000000000007,0.8,3.82055,30.5644,return,3.073520899997675,,,,,,,,,,,,,,,,,901,18,male,left_right_width,2024-10-10_08h59.57.849,exp1,2023.1.0,59.979223197731365,
,,,,,,,,,,,,,,,,5,9,9.5,10,10.5,11,0.5,0.25,0.25,2.25,10,initial,36.05,324,342,361,379,397,9,9,9,9,9,,,,,,,2,0,2,0,0,24,24,50,,,,,,,,,,,,num_5,1.6452885000035167,num_5,0.55,0.6,0.10000000000000007,0.6,3.82055,22.9233,return,2.8519946000014897,,,,,,,,,,,,,,,,,901,18,male,left_right_width,2024-10-10_08h59.57.849,exp1,2023.1.0,59.979223197731365,
,,,,,,,,,,,,,,,,3,9.5,10,10.5,0,0,0.5,0.25,0.25,1.25,10,initial,36.05,342,361,379,0,0,9,9,9,0,0,,,,,,,2,0,2,0,0,25,25,8,,,,,,,,,,,,num_2,0.8159172000014223,num_2,0.45,1.2,0.10000000000000007,0.9,3.82055,34.38495,return,2.5856010999996215,,,,,,,,,,,,,,,,,901,18,male,left_right_width,2024-10-10_08h59.57.849,exp1,2023.1.0,59.979223197731365,
,,,,,,,,,,,,,,,,5,9,9.5,10,10.5,11,0.5,0.25,0.25,2.25,10,initial,36.05,324,342,361,379,397,9,9,9,9,9,,,,,,,2,0,2,0,0,26,26,24,,,,,,,,,,,,num_4,1.2363104000105523,num_4,0.5,0.9,0.15000000000000008,0.7,5.73083,26.74385,return,2.588972700003069,,,,,,,,,,,,,,,,,901,18,male,left_right_width,2024-10-10_08h59.57.849,exp1,2023.1.0,59.979223197731365,
,,,,,,,,,,,,,,,,3,9.5,10,10.5,0,0,0.5,0.25,0.25,1.25,10,initial,36.05,342,361,379,0,0,9,9,9,0,0,,,,,,,2,0,2,0,0,27,27,5,,,,,,,,,,,,num_2,0.7395134000107646,num_2,0.35,1.2,0.15000000000000002,0.9,5.73083,34.38495,return,1.6628751999960514,,,,,,,,,,,,,,,,,901,18,male,left_right_width,2024-10-10_08h59.57.849,exp1,2023.1.0,59.979223197731365,
,,,,,,,,,,,,,,,,5,9,9.5,10,10.5,11,0.5,0.25,0.25,2.25,10,initial,36.05,324,342,361,379,397,9,9,9,9,9,,,,,,,2,0,2,0,0,28,28,52,,,,,,,,,,,,num_4,1.0554254000016954,num_4,0.2,0.3,0.15000000000000002,0.8,5.73083,30.5644,return,1.7760577000008198,,,,,,,,,,,,,,,,,901,18,male,left_right_width,2024-10-10_08h59.57.849,exp1,2023.1.0,59.979223197731365,
,,,,,,,,,,,,,,,,4,9.25,9.75,10.25,10.75,0,0.5,0.25,0.25,1.75,10,initial,36.05,333,351,370,388,0,9,9,9,9,0,,,,,,,2,0,2,0,0,29,29,12,,,,,,,,,,,,num_3,1.7158959000080358,num_3,0.4,0.8,0.15000000000000008,0.8,5.73083,30.5644,return,3.4055593999946723,,,,,,,,,,,,,,,,,901,18,male,left_right_width,2024-10-10_08h59.57.849,exp1,2023.1.0,59.979223197731365,
,,,,,,,,,,,,,,,,4,9.25,9.75,10.25,10.75,0,0.5,0.25,0.25,1.75,10,initial,36.05,333,351,370,388,0,9,9,9,9,0,,,,,,,2,0,2,0,0,30,30,44,,,,,,,,,,,,num_3,1.1649857000011252,num_3,0.3,0.5,0.2,0.75,7.6411,28.65413,return,3.1947718000010354,,,,,,,,,,,,,,,,,901,18,male,left_right_width,2024-10-10_08h59.57.849,exp1,2023.1.0,59.979223197731365,
,,,,,,,,,,,,,,,,4,9.25,9.75,10.25,10.75,0,0.5,0.25,0.25,1.75,10,initial,36.05,333,351,370,388,0,9,9,9,9,0,,,,,,,2,0,2,0,0,31,31,9,,,,,,,,,,,,num_4,1.43473449999874,num_4,0.55,0.8,0.15000000000000008,0.7,5.73083,26.74385,return,5.7914574000024,,,,,,,,,,,,,,,,,901,18,male,left_right_width,2024-10-10_08h59.57.849,exp1,2023.1.0,59.979223197731365,
,,,,,,,,,,,,,,,,3,9.5,10,10.5,0,0,0.5,0.25,0.25,1.25,10,initial,36.05,342,361,379,0,0,9,9,9,0,0,,,,,,,2,0,2,0,0,32,32,1,,,,,,,,,,,,num_2,0.9343636999983573,num_2,0.55,1.2,0.15000000000000008,0.8,5.73083,30.5644,return,3.646591600001557,,,,,,,,,,,,,,,,,901,18,male,left_right_width,2024-10-10_08h59.57.849,exp1,2023.1.0,59.979223197731365,
,,,,,,,,,,,,,,,,4,9.25,9.75,10.25,10.75,0,0.5,0.25,0.25,1.75,10,initial,36.05,333,351,370,388,0,9,9,9,9,0,,,,,,,2,0,2,0,0,33,33,13,,,,,,,,,,,,num_3,0.7464106999977957,num_3,0.45,0.8,0.15000000000000008,0.8,5.73083,30.5644,return,2.1196956999920076,,,,,,,,,,,,,,,,,901,18,male,left_right_width,2024-10-10_08h59.57.849,exp1,2023.1.0,59.979223197731365,
,,,,,,,,,,,,,,,,5,9,9.5,10,10.5,11,0.5,0.25,0.25,2.25,10,initial,36.05,324,342,361,379,397,9,9,9,9,9,,,,,,,2,0,2,0,0,34,34,53,,,,,,,,,,,,num_4,0.85612250000122,num_4,0.45,1.0,0.15000000000000008,0.8,5.73083,30.5644,return,2.1440753000060795,,,,,,,,,,,,,,,,,901,18,male,left_right_width,2024-10-10_08h59.57.849,exp1,2023.1.0,59.979223197731365,
,,,,,,,,,,,,,,,,4,9.25,9.75,10.25,10.75,0,0.5,0.25,0.25,1.75,10,initial,36.05,333,351,370,388,0,9,9,9,9,0,,,,,,,2,0,2,0,0,35,35,11,,,,,,,,,,,,num_3,0.8080528999998933,num_3,0.5,0.8,0.15000000000000008,0.8,5.73083,30.5644,return,1.7955772999994224,,,,,,,,,,,,,,,,,901,18,male,left_right_width,2024-10-10_08h59.57.849,exp1,2023.1.0,59.979223197731365,
,,,,,,,,,,,,,,,,4,9.25,9.75,10.25,10.75,0,0.5,0.25,0.25,1.75,10,initial,36.05,333,351,370,388,0,9,9,9,9,0,,,,,,,2,0,2,0,0,36,36,10,,,,,,,,,,,,num_3,0.8012117000034777,num_3,0.3,0.9,0.15000000000000002,0.8,5.73083,30.5644,return,2.317110500007402,,,,,,,,,,,,,,,,,901,18,male,left_right_width,2024-10-10_08h59.57.849,exp1,2023.1.0,59.979223197731365,
,,,,,,,,,,,,,,,,4,9.25,9.75,10.25,10.75,0,0.5,0.25,0.25,1.75,10,initial,36.05,333,351,370,388,0,9,9,9,9,0,,,,,,,2,0,2,0,0,37,37,39,,,,,,,,,,,,num_3,0.8933600999880582,num_3,0.35,1,0.15000000000000002,0.95,5.73083,36.29523,return,2.0045319000055315,,,,,,,,,,,,,,,,,901,18,male,left_right_width,2024-10-10_08h59.57.849,exp1,2023.1.0,59.979223197731365,
,,,,,,,,,,,,,,,,3,9.5,10,10.5,0,0,0.5,0.25,0.25,1.25,10,initial,36.05,342,361,379,0,0,9,9,9,0,0,,,,,,,2,0,2,0,0,38,38,0,,,,,,,,,,,,num_2,0.8270019000046887,num_2,0.4,0.6,0.15000000000000008,0.7,5.73083,26.74385,return,1.9875628000008874,,,,,,,,,,,,,,,,,901,18,male,left_right_width,2024-10-10_08h59.57.849,exp1,2023.1.0,59.979223197731365,
,,,,,,,,,,,,,,,,3,9.5,10,10.5,0,0,0.5,0.25,0.25,1.25,10,initial,36.05,342,361,379,0,0,9,9,9,0,0,,,,,,,2,0,2,0,0,39,39,34,,,,,,,,,,,,num_2,0.8483505999902263,num_2,0.2,1.6,0.2,1.1,7.6411,42.02605,return,2.4562525999936042,,,,,,,,,,,,,,,,,901,18,male,left_right_width,2024-10-10_08h59.57.849,exp1,2023.1.0,59.979223197731365,
,,,,,,,,,,,,,,,,5,9,9.5,10,10.5,11,0.5,0.25,0.25,2.25,10,initial,36.05,324,342,361,379,397,9,9,9,9,9,,,,,,,2,0,2,0,0,40,40,46,,,,,,,,,,,,num_4,0.8341948000015691,num_4,0.5,1.2,0.15000000000000008,0.7,5.73083,26.74385,return,2.7677340999944136,,,,,,,,,,,,,,,,,901,18,male,left_right_width,2024-10-10_08h59.57.849,exp1,2023.1.0,59.979223197731365,
,,,,,,,,,,,,,,,,4,9.25,9.75,10.25,10.75,0,0.5,0.25,0.25,1.75,10,initial,36.05,333,351,370,388,0,9,9,9,9,0,,,,,,,2,0,2,0,0,41,41,15,,,,,,,,,,,,num_4,0.9645755999954417,num_4,0.3,0.6,0.15000000000000002,0.8,5.73083,30.5644,return,1.8968979000055697,,,,,,,,,,,,,,,,,901,18,male,left_right_width,2024-10-10_08h59.57.849,exp1,2023.1.0,59.979223197731365,
,,,,,,,,,,,,,,,,5,9,9.5,10,10.5,11,0.5,0.25,0.25,2.25,10,initial,36.05,324,342,361,379,397,9,9,9,9,9,,,,,,,2,0,2,0,0,42,42,22,,,,,,,,,,,,num_5,1.55642049999733,num_5,0.3,1.1,0.10000000000000002,0.75,3.82055,28.65413,return,2.865345600002911,,,,,,,,,,,,,,,,,901,18,male,left_right_width,2024-10-10_08h59.57.849,exp1,2023.1.0,59.979223197731365,
,,,,,,,,,,,,,,,,4,9.25,9.75,10.25,10.75,0,0.5,0.25,0.25,1.75,10,initial,36.05,333,351,370,388,0,9,9,9,9,0,,,,,,,2,0,2,0,0,43,43,43,,,,,,,,,,,,num_3,0.8801953999936813,num_3,0.3,0.9,0.15000000000000002,0.8,5.73083,30.5644,return,1.3546099999948638,,,,,,,,,,,,,,,,,901,18,male,left_right_width,2024-10-10_08h59.57.849,exp1,2023.1.0,59.979223197731365,
,,,,,,,,,,,,,,,,5,9,9.5,10,10.5,11,0.5,0.25,0.25,2.25,10,initial,36.05,324,342,361,379,397,9,9,9,9,9,,,,,,,2,0,2,0,0,44,44,45,,,,,,,,,,,,num_4,0.7440286999917589,num_4,0.25,1.3,0.15000000000000002,0.7,5.73083,26.74385,return,3.046365699992748,,,,,,,,,,,,,,,,,901,18,male,left_right_width,2024-10-10_08h59.57.849,exp1,2023.1.0,59.979223197731365,
,,,,,,,,,,,,,,,,5,9,9.5,10,10.5,11,0.5,0.25,0.25,2.25,10,initial,36.05,324,342,361,379,397,9,9,9,9,9,,,,,,,2,0,2,0,0,45,45,25,,,,,,,,,,,,num_5,1.0728895000065677,num_5,0.25,0.8,0.10000000000000002,0.7,3.82055,26.74385,return,2.111449799995171,,,,,,,,,,,,,,,,,901,18,male,left_right_width,2024-10-10_08h59.57.849,exp1,2023.1.0,59.979223197731365,
,,,,,,,,,,,,,,,,5,9,9.5,10,10.5,11,0.5,0.25,0.25,2.25,10,initial,36.05,324,342,361,379,397,9,9,9,9,9,,,,,,,2,0,2,0,0,46,46,51,,,,,,,,,,,,num_5,1.202846000000136,num_5,0.2,1.3,0.10000000000000002,0.7,3.82055,26.74385,return,2.813991699993494,,,,,,,,,,,,,,,,,901,18,male,left_right_width,2024-10-10_08h59.57.849,exp1,2023.1.0,59.979223197731365,
,,,,,,,,,,,,,,,,3,9.5,10,10.5,0,0,0.5,0.25,0.25,1.25,10,initial,36.05,342,361,379,0,0,9,9,9,0,0,,,,,,,2,0,2,0,0,47,47,30,,,,,,,,,,,,num_2,0.7131051999895135,num_2,0.45,1.0,0.15000000000000008,0.8,5.73083,30.5644,return,6.88673720000952,,,,,,,,,,,,,,,,,901,18,male,left_right_width,2024-10-10_08h59.57.849,exp1,2023.1.0,59.979223197731365,
,,,,,,,,,,,,,,,,4,9.25,9.75,10.25,10.75,0,0.5,0.25,0.25,1.75,10,initial,36.05,333,351,370,388,0,9,9,9,9,0,,,,,,,2,0,2,0,0,48,48,41,,,,,,,,,,,,num_3,0.745486300002085,num_3,0.35,1.1,0.15000000000000002,0.85,5.73083,32.47468,return,2.0568080999946687,,,,,,,,,,,,,,,,,901,18,male,left_right_width,2024-10-10_08h59.57.849,exp1,2023.1.0,59.979223197731365,
,,,,,,,,,,,,,,,,3,9.5,10,10.5,0,0,0.5,0.25,0.25,1.25,10,initial,36.05,342,361,379,0,0,9,9,9,0,0,,,,,,,2,0,2,0,0,49,49,27,,,,,,,,,,,,num_1,0.551914299998316,num_1,0.3,9999,0.2,9999,7.6411,382016.8345,return,7.306938099995023,,,,,,,,,,,,,,,,,901,18,male,left_right_width,2024-10-10_08h59.57.849,exp1,2023.1.0,59.979223197731365,
,,,,,,,,,,,,,,,,3,9.5,10,10.5,0,0,0.5,0.25,0.25,1.25,10,initial,36.05,342,361,379,0,0,9,9,9,0,0,,,,,,,2,0,2,0,0,50,50,7,,,,,,,,,,,,num_2,0.7827970000071218,num_2,0.25,1.0,0.2,0.8,7.6411,30.5644,return,2.8542578000051435,,,,,,,,,,,,,,,,,901,18,male,left_right_width,2024-10-10_08h59.57.849,exp1,2023.1.0,59.979223197731365,
,,,,,,,,,,,,,,,,4,9.25,9.75,10.25,10.75,0,0.5,0.25,0.25,1.75,10,initial,36.05,333,351,370,388,0,9,9,9,9,0,,,,,,,2,0,2,0,0,51,51,42,,,,,,,,,,,,num_3,0.9495652999903541,num_3,0.2,0.5,0.15000000000000002,0.75,5.73083,28.65413,return,2.439838799997233,,,,,,,,,,,,,,,,,901,18,male,left_right_width,2024-10-10_08h59.57.849,exp1,2023.1.0,59.979223197731365,
,,,,,,,,,,,,,,,,5,9,9.5,10,10.5,11,0.5,0.25,0.25,2.25,10,initial,36.05,324,342,361,379,397,9,9,9,9,9,,,,,,,2,0,2,0,0,52,52,23,,,,,,,,,,,,num_4,0.815629299991997,num_4,0.3,0.9,0.15000000000000002,0.8,5.73083,30.5644,return,2.2540322999993805,,,,,,,,,,,,,,,,,901,18,male,left_right_width,2024-10-10_08h59.57.849,exp1,2023.1.0,59.979223197731365,
,,,,,,,,,,,,,,,,4,9.25,9.75,10.25,10.75,0,0.5,0.25,0.25,1.75,10,initial,36.05,333,351,370,388,0,9,9,9,9,0,,,,,,,2,0,2,0,0,53,53,14,,,,,,,,,,,,num_3,0.7914458000013838,num_3,0.4,0.7,0.15000000000000008,0.75,5.73083,28.65413,return,2.4340431000018725,,,,,,,,,,,,,,,,,901,18,male,left_right_width,2024-10-10_08h59.57.849,exp1,2023.1.0,59.979223197731365,
,,,,,,,,,,,,,,,,,,,,,,,,,,,,,,,,,,,,,,,,,,,,,2,0,2,0,,,,,,,,,,,,,,,,,,,,,,,,,,,,,1525.6397578000033,1525.6397578000033,1525.6397578000033,,,,,,,,,,,,901,18,male,left_right_width,2024-10-10_08h59.57.849,exp1,2023.1.0,59.979223197731365,
,,,,,,,,,,,,,,,,4,9.25,9.75,10.25,10.75,0,0.5,0.1,0.4,1.9000000000000001,10,initial,36.05,333,351,370,388,0,9,9,9,9,0,,,,,,,3,0,3,0,0,0,0,38,,,,,,,,,,,,num_2,3.26950759999454,num_2,0.2,1.6,0.8000000000000002,0.9,30.5644,34.38495,return,5.362651400006143,,,,,,,,,,,,,,,,,901,18,male,left_right_width,2024-10-10_08h59.57.849,exp1,2023.1.0,59.979223197731365,
,,,,,,,,,,,,,,,,3,9.5,10,10.5,0,0,0.5,0.1,0.4,1.4000000000000001,10,initial,36.05,342,361,379,0,0,9,9,9,0,0,,,,,,,3,0,3,0,0,1,1,34,,,,,,,,,,,,num_2,0.8249771999981022,num_2,0.25,0.8,0.6,0.8,22.9233,30.5644,return,1.8140532999968855,,,,,,,,,,,,,,,,,901,18,male,left_right_width,2024-10-10_08h59.57.849,exp1,2023.1.0,59.979223197731365,
,,,,,,,,,,,,,,,,3,9.5,10,10.5,0,0,0.5,0.1,0.4,1.4000000000000001,10,initial,36.05,342,361,379,0,0,9,9,9,0,0,,,,,,,3,0,3,0,0,2,2,31,,,,,,,,,,,,num_2,0.718638699996518,num_2,0.3,0.6,0.49999999999999994,0.6,19.10275,22.9233,return,1.3765562000044156,,,,,,,,,,,,,,,,,901,18,male,left_right_width,2024-10-10_08h59.57.849,exp1,2023.1.0,59.979223197731365,
,,,,,,,,,,,,,,,,4,9.25,9.75,10.25,10.75,0,0.5,0.1,0.4,1.9000000000000001,10,initial,36.05,333,351,370,388,0,9,9,9,9,0,,,,,,,3,0,3,0,0,3,3,9,,,,,,,,,,,,num_2,1.4353339999943273,num_2,0.45,0.8,0.8500000000000003,1.1,32.47468,42.02605,return,3.1922863999934634,,,,,,,,,,,,,,,,,901,18,male,left_right_width,2024-10-10_08h59.57.849,exp1,2023.1.0,59.979223197731365,
,,,,,,,,,,,,,,,,3,9.5,10,10.5,0,0,0.5,0.1,0.4,1.4000000000000001,10,initial,36.05,342,361,379,0,0,9,9,9,0,0,,,,,,,3,0,3,0,0,4,4,28,,,,,,,,,,,,num_2,0.7464048999972874,num_2,0.35,0.6,0.49999999999999994,0.7,19.10275,26.74385,return,1.7684984999941662,,,,,,,,,,,,,,,,,901,18,male,left_right_width,2024-10-10_08h59.57.849,exp1,2023.1.0,59.979223197731365,
,,,,,,,,,,,,,,,,4,9.25,9.75,10.25,10.75,0,0.5,0.1,0.4,1.9000000000000001,10,initial,36.05,333,351,370,388,0,9,9,9,9,0,,,,,,,3,0,3,0,0,5,5,41,,,,,,,,,,,,num_2,0.7688264999887906,num_2,0.45,0.6,0.8000000000000003,1.0,30.5644,38.2055,return,2.954412599996431,,,,,,,,,,,,,,,,,901,18,male,left_right_width,2024-10-10_08h59.57.849,exp1,2023.1.0,59.979223197731365,
,,,,,,,,,,,,,,,,4,9.25,9.75,10.25,10.75,0,0.5,0.1,0.4,1.9000000000000001,10,initial,36.05,333,351,370,388,0,9,9,9,9,0,,,,,,,3,0,3,0,0,6,6,43,,,,,,,,,,,,num_2,0.7285813000053167,num_2,0.35,0.6,0.65,0.8,24.83358,30.5644,return,3.065825900004711,,,,,,,,,,,,,,,,,901,18,male,left_right_width,2024-10-10_08h59.57.849,exp1,2023.1.0,59.979223197731365,
,,,,,,,,,,,,,,,,5,9,9.5,10,10.5,11,0.5,0.1,0.4,2.4,10,initial,36.05,324,342,361,379,397,9,9,9,9,9,,,,,,,3,0,3,0,0,7,7,52,,,,,,,,,,,,num_3,0.784135800000513,num_3,0.25,1.2,0.8000000000000002,1.0,30.5644,38.2055,return,3.723883400001796,,,,,,,,,,,,,,,,,901,18,male,left_right_width,2024-10-10_08h59.57.849,exp1,2023.1.0,59.979223197731365,
,,,,,,,,,,,,,,,,5,9,9.5,10,10.5,11,0.5,0.1,0.4,2.4,10,initial,36.05,324,342,361,379,397,9,9,9,9,9,,,,,,,3,0,3,0,0,8,8,47,,,,,,,,,,,,num_4,1.0645471999887377,num_4,0.2,1.3,0.65,0.8,24.83358,30.5644,return,3.4510100000043167,,,,,,,,,,,,,,,,,901,18,male,left_right_width,2024-10-10_08h59.57.849,exp1,2023.1.0,59.979223197731365,
,,,,,,,,,,,,,,,,4,9.25,9.75,10.25,10.75,0,0.5,0.1,0.4,1.9000000000000001,10,initial,36.05,333,351,370,388,0,9,9,9,9,0,,,,,,,3,0,3,0,0,9,9,44,,,,,,,,,,,,num_3,0.7467678999964846,num_3,0.4,0.8,0.6500000000000001,0.75,24.83358,28.65413,return,2.220364499997231,,,,,,,,,,,,,,,,,901,18,male,left_right_width,2024-10-10_08h59.57.849,exp1,2023.1.0,59.979223197731365,
,,,,,,,,,,,,,,,,3,9.5,10,10.5,0,0,0.5,0.1,0.4,1.4000000000000001,10,initial,36.05,342,361,379,0,0,9,9,9,0,0,,,,,,,3,0,3,0,0,10,10,7,,,,,,,,,,,,num_2,0.6454142000002321,num_2,0.45,0.8,0.5,0.6,19.10275,22.9233,return,1.3227297000121325,,,,,,,,,,,,,,,,,901,18,male,left_right_width,2024-10-10_08h59.57.849,exp1,2023.1.0,59.979223197731365,
,,,,,,,,,,,,,,,,3,9.5,10,10.5,0,0,0.5,0.1,0.4,1.4000000000000001,10,initial,36.05,342,361,379,0,0,9,9,9,0,0,,,,,,,3,0,3,0,0,11,11,0,,,,,,,,,,,,num_2,0.7291390000027604,num_2,0.25,0.8,0.49999999999999994,0.7,19.10275,26.74385,return,2.571030499995686,,,,,,,,,,,,,,,,,901,18,male,left_right_width,2024-10-10_08h59.57.849,exp1,2023.1.0,59.979223197731365,
,,,,,,,,,,,,,,,,4,9.25,9.75,10.25,10.75,0,0.5,0.1,0.4,1.9000000000000001,10,initial,36.05,333,351,370,388,0,9,9,9,9,0,,,,,,,3,0,3,0,0,12,12,40,,,,,,,,,,,,num_3,0.8177960999892093,num_3,0.3,0.8,0.5499999999999999,0.65,21.01303,24.83358,return,2.4477072000008775,,,,,,,,,,,,,,,,,901,18,male,left_right_width,2024-10-10_08h59.57.849,exp1,2023.1.0,59.979223197731365,
,,,,,,,,,,,,,,,,4,9.25,9.75,10.25,10.75,0,0.5,0.1,0.4,1.9000000000000001,10,initial,36.05,333,351,370,388,0,9,9,9,9,0,,,,,,,3,0,3,0,0,13,13,42,,,,,,,,,,,,num_2,1.738714200007962,num_2,0.4,0.8,0.6500000000000001,0.8,24.83358,30.5644,return,1.6466127000021515,,,,,,,,,,,,,,,,,901,18,male,left_right_width,2024-10-10_08h59.57.849,exp1,2023.1.0,59.979223197731365,
,,,,,,,,,,,,,,,,3,9.5,10,10.5,0,0,0.5,0.1,0.4,1.4000000000000001,10,initial,36.05,342,361,379,0,0,9,9,9,0,0,,,,,,,3,0,3,0,0,14,14,27,,,,,,,,,,,,num_2,0.7762389999988955,num_2,0.4,1.0,0.6000000000000001,0.8,22.9233,30.5644,return,1.5608497999928659,,,,,,,,,,,,,,,,,901,18,male,left_right_width,2024-10-10_08h59.57.849,exp1,2023.1.0,59.979223197731365,
,,,,,,,,,,,,,,,,5,9,9.5,10,10.5,11,0.5,0.1,0.4,2.4,10,initial,36.05,324,342,361,379,397,9,9,9,9,9,,,,,,,3,0,3,0,0,15,15,50,,,,,,,,,,,,num_4,1.2194981999928132,num_4,0.35,0.7,0.6,0.7,22.9233,26.74385,return,1.810312800007523,,,,,,,,,,,,,,,,,901,18,male,left_right_width,2024-10-10_08h59.57.849,exp1,2023.1.0,59.979223197731365,
,,,,,,,,,,,,,,,,3,9.5,10,10.5,0,0,0.5,0.1,0.4,1.4000000000000001,10,initial,36.05,342,361,379,0,0,9,9,9,0,0,,,,,,,3,0,3,0,0,16,16,2,,,,,,,,,,,,num_2,0.6335543000022881,num_2,0.35,0.4,0.49999999999999994,0.7,19.10275,26.74385,return,1.8506101000093622,,,,,,,,,,,,,,,,,901,18,male,left_right_width,2024-10-10_08h59.57.849,exp1,2023.1.0,59.979223197731365,
,,,,,,,,,,,,,,,,4,9.25,9.75,10.25,10.75,0,0.5,0.1,0.4,1.9000000000000001,10,initial,36.05,333,351,370,388,0,9,9,9,9,0,,,,,,,3,0,3,0,0,17,17,10,,,,,,,,,,,,num_3,0.6583263000065926,num_3,0.4,1.2,0.6500000000000001,0.8,24.83358,30.5644,return,3.136340900004143,,,,,,,,,,,,,,,,,901,18,male,left_right_width,2024-10-10_08h59.57.849,exp1,2023.1.0,59.979223197731365,
,,,,,,,,,,,,,,,,3,9.5,10,10.5,0,0,0.5,0.1,0.4,1.4000000000000001,10,initial,36.05,342,361,379,0,0,9,9,9,0,0,,,,,,,3,0,3,0,0,18,18,29,,,,,,,,,,,,num_2,0.867796599995927,num_2,0.5,1.2,0.45,0.6,17.19248,22.9233,return,3.3867612999893026,,,,,,,,,,,,,,,,,901,18,male,left_right_width,2024-10-10_08h59.57.849,exp1,2023.1.0,59.979223197731365,
,,,,,,,,,,,,,,,,5,9,9.5,10,10.5,11,0.5,0.1,0.4,2.4,10,initial,36.05,324,342,361,379,397,9,9,9,9,9,,,,,,,3,0,3,0,0,19,19,24,,,,,,,,,,,,num_4,0.8403609999950277,num_4,0.55,1.1,0.7000000000000002,0.8,26.74385,30.5644,return,2.0377510999969672,,,,,,,,,,,,,,,,,901,18,male,left_right_width,2024-10-10_08h59.57.849,exp1,2023.1.0,59.979223197731365,
,,,,,,,,,,,,,,,,4,9.25,9.75,10.25,10.75,0,0.5,0.1,0.4,1.9000000000000001,10,initial,36.05,333,351,370,388,0,9,9,9,9,0,,,,,,,3,0,3,0,0,20,20,36,,,,,,,,,,,,num_3,0.8115142999886302,num_3,0.45,0.9,0.6500000000000001,0.8,24.83358,30.5644,return,2.0415369999973336,,,,,,,,,,,,,,,,,901,18,male,left_right_width,2024-10-10_08h59.57.849,exp1,2023.1.0,59.979223197731365,
,,,,,,,,,,,,,,,,3,9.5,10,10.5,0,0,0.5,0.1,0.4,1.4000000000000001,10,initial,36.05,342,361,379,0,0,9,9,9,0,0,,,,,,,3,0,3,0,0,21,21,35,,,,,,,,,,,,num_2,0.7091608999908203,num_2,0.35,0.6,0.44999999999999996,0.7,17.19248,26.74385,return,1.334559499999159,,,,,,,,,,,,,,,,,901,18,male,left_right_width,2024-10-10_08h59.57.849,exp1,2023.1.0,59.979223197731365,
,,,,,,,,,,,,,,,,4,9.25,9.75,10.25,10.75,0,0.5,0.1,0.4,1.9000000000000001,10,initial,36.05,333,351,370,388,0,9,9,9,9,0,,,,,,,3,0,3,0,0,22,22,16,,,,,,,,,,,,num_3,0.6496147999860113,num_3,0.2,1.1,0.6,0.75,22.9233,28.65413,return,4.025464199992712,,,,,,,,,,,,,,,,,901,18,male,left_right_width,2024-10-10_08h59.57.849,exp1,2023.1.0,59.979223197731365,
,,,,,,,,,,,,,,,,4,9.25,9.75,10.25,10.75,0,0.5,0.1,0.4,1.9000000000000001,10,initial,36.05,333,351,370,388,0,9,9,9,9,0,,,,,,,3,0,3,0,0,23,23,11,,,,,,,,,,,,num_3,1.1159475000022212,num_3,0.4,0.5,0.45,0.65,17.19248,24.83358,return,2.02841269999044,,,,,,,,,,,,,,,,,901,18,male,left_right_width,2024-10-10_08h59.57.849,exp1,2023.1.0,59.979223197731365,
,,,,,,,,,,,,,,,,4,9.25,9.75,10.25,10.75,0,0.5,0.1,0.4,1.9000000000000001,10,initial,36.05,333,351,370,388,0,9,9,9,9,0,,,,,,,3,0,3,0,0,24,24,37,,,,,,,,,,,,num_3,0.890658499993151,num_3,0.5,1.2,0.55,0.7,21.01303,26.74385,return,2.8654017000080785,,,,,,,,,,,,,,,,,901,18,male,left_right_width,2024-10-10_08h59.57.849,exp1,2023.1.0,59.979223197731365,
,,,,,,,,,,,,,,,,4,9.25,9.75,10.25,10.75,0,0.5,0.1,0.4,1.9000000000000001,10,initial,36.05,333,351,370,388,0,9,9,9,9,0,,,,,,,3,0,3,0,0,25,25,15,,,,,,,,,,,,num_3,0.8697669999965001,num_3,0.3,1.2,0.5499999999999999,0.7,21.01303,26.74385,return,3.388461599999573,,,,,,,,,,,,,,,,,901,18,male,left_right_width,2024-10-10_08h59.57.849,exp1,2023.1.0,59.979223197731365,
,,,,,,,,,,,,,,,,5,9,9.5,10,10.5,11,0.5,0.1,0.4,2.4,10,initial,36.05,324,342,361,379,397,9,9,9,9,9,,,,,,,3,0,3,0,0,26,26,25,,,,,,,,,,,,num_4,0.8869819999963511,num_4,0.55,1.3,0.7000000000000002,0.8,26.74385,30.5644,return,2.0498728999955347,,,,,,,,,,,,,,,,,901,18,male,left_right_width,2024-10-10_08h59.57.849,exp1,2023.1.0,59.979223197731365,
,,,,,,,,,,,,,,,,5,9,9.5,10,10.5,11,0.5,0.1,0.4,2.4,10,initial,36.05,324,342,361,379,397,9,9,9,9,9,,,,,,,3,0,3,0,0,27,27,48,,,,,,,,,,,,num_4,0.8254176999907941,num_4,0.25,0.9,0.5499999999999999,0.7,21.01303,26.74385,return,3.3674994000029983,,,,,,,,,,,,,,,,,901,18,male,left_right_width,2024-10-10_08h59.57.849,exp1,2023.1.0,59.979223197731365,
,,,,,,,,,,,,,,,,5,9,9.5,10,10.5,11,0.5,0.1,0.4,2.4,10,initial,36.05,324,342,361,379,397,9,9,9,9,9,,,,,,,3,0,3,0,0,28,28,45,,,,,,,,,,,,num_4,0.7786392999987584,num_4,0.45,0.9,0.6500000000000001,0.8,24.83358,30.5644,return,1.9462596000084886,,,,,,,,,,,,,,,,,901,18,male,left_right_width,2024-10-10_08h59.57.849,exp1,2023.1.0,59.979223197731365,
,,,,,,,,,,,,,,,,4,9.25,9.75,10.25,10.75,0,0.5,0.1,0.4,1.9000000000000001,10,initial,36.05,333,351,370,388,0,9,9,9,9,0,,,,,,,3,0,3,0,0,29,29,13,,,,,,,,,,,,num_3,1.1575277999945683,num_3,0.2,0.8,0.5499999999999999,0.7,21.01303,26.74385,return,2.613978000008501,,,,,,,,,,,,,,,,,901,18,male,left_right_width,2024-10-10_08h59.57.849,exp1,2023.1.0,59.979223197731365,
,,,,,,,,,,,,,,,,3,9.5,10,10.5,0,0,0.5,0.1,0.4,1.4000000000000001,10,initial,36.05,342,361,379,0,0,9,9,9,0,0,,,,,,,3,0,3,0,0,30,30,6,,,,,,,,,,,,num_2,0.7150868000026094,num_2,0.45,1.2,0.55,0.8,21.01303,30.5644,return,2.279378800012637,,,,,,,,,,,,,,,,,901,18,male,left_right_width,2024-10-10_08h59.57.849,exp1,2023.1.0,59.979223197731365,
,,,,,,,,,,,,,,,,4,9.25,9.75,10.25,10.75,0,0.5,0.1,0.4,1.9000000000000001,10,initial,36.05,333,351,370,388,0,9,9,9,9,0,,,,,,,3,0,3,0,0,31,31,39,,,,,,,,,,,,num_3,0.7040748999861535,num_3,0.55,1.1,0.7000000000000002,0.85,26.74385,32.47468,return,1.7865324999875156,,,,,,,,,,,,,,,,,901,18,male,left_right_width,2024-10-10_08h59.57.849,exp1,2023.1.0,59.979223197731365,
,,,,,,,,,,,,,,,,3,9.5,10,10.5,0,0,0.5,0.1,0.4,1.4000000000000001,10,initial,36.05,342,361,379,0,0,9,9,9,0,0,,,,,,,3,0,3,0,0,32,32,30,,,,,,,,,,,,num_2,0.6845552000013413,num_2,0.35,0.8,0.49999999999999994,0.7,19.10275,26.74385,return,1.6166280999896117,,,,,,,,,,,,,,,,,901,18,male,left_right_width,2024-10-10_08h59.57.849,exp1,2023.1.0,59.979223197731365,
,,,,,,,,,,,,,,,,3,9.5,10,10.5,0,0,0.5,0.1,0.4,1.4000000000000001,10,initial,36.05,342,361,379,0,0,9,9,9,0,0,,,,,,,3,0,3,0,0,33,33,8,,,,,,,,,,,,num_2,1.714994800000568,num_2,0.4,1.0,0.5,0.7,19.10275,26.74385,return,1.214752400002908,,,,,,,,,,,,,,,,,901,18,male,left_right_width,2024-10-10_08h59.57.849,exp1,2023.1.0,59.979223197731365,
,,,,,,,,,,,,,,,,5,9,9.5,10,10.5,11,0.5,0.1,0.4,2.4,10,initial,36.05,324,342,361,379,397,9,9,9,9,9,,,,,,,3,0,3,0,0,34,34,18,,,,,,,,,,,,num_3,1.2071380999987014,num_3,0.2,1,0.7000000000000001,0.9,26.74385,34.38495,return,2.9802059000066947,,,,,,,,,,,,,,,,,901,18,male,left_right_width,2024-10-10_08h59.57.849,exp1,2023.1.0,59.979223197731365,
,,,,,,,,,,,,,,,,5,9,9.5,10,10.5,11,0.5,0.1,0.4,2.4,10,initial,36.05,324,342,361,379,397,9,9,9,9,9,,,,,,,3,0,3,0,0,35,35,19,,,,,,,,,,,,num_4,0.8909165999939432,num_4,0.45,1.2,0.6500000000000001,0.8,24.83358,30.5644,return,2.4876896000059787,,,,,,,,,,,,,,,,,901,18,male,left_right_width,2024-10-10_08h59.57.849,exp1,2023.1.0,59.979223197731365,
,,,,,,,,,,,,,,,,5,9,9.5,10,10.5,11,0.5,0.1,0.4,2.4,10,initial,36.05,324,342,361,379,397,9,9,9,9,9,,,,,,,3,0,3,0,0,36,36,53,,,,,,,,,,,,num_4,0.8160092000034638,num_4,0.3,1.2,0.6,0.8,22.9233,30.5644,return,2.794012300000759,,,,,,,,,,,,,,,,,901,18,male,left_right_width,2024-10-10_08h59.57.849,exp1,2023.1.0,59.979223197731365,
,,,,,,,,,,,,,,,,5,9,9.5,10,10.5,11,0.5,0.1,0.4,2.4,10,initial,36.05,324,342,361,379,397,9,9,9,9,9,,,,,,,3,0,3,0,0,37,37,22,,,,,,,,,,,,num_4,0.812051100001554,num_4,0.25,1.3,0.6,0.8,22.9233,30.5644,return,2.2991537999914726,,,,,,,,,,,,,,,,,901,18,male,left_right_width,2024-10-10_08h59.57.849,exp1,2023.1.0,59.979223197731365,
,,,,,,,,,,,,,,,,3,9.5,10,10.5,0,0,0.5,0.1,0.4,1.4000000000000001,10,initial,36.05,342,361,379,0,0,9,9,9,0,0,,,,,,,3,0,3,0,0,38,38,3,,,,,,,,,,,,num_2,0.703689799993299,num_2,0.45,1.6,0.5,0.7,19.10275,26.74385,return,3.3560205999965547,,,,,,,,,,,,,,,,,901,18,male,left_right_width,2024-10-10_08h59.57.849,exp1,2023.1.0,59.979223197731365,
,,,,,,,,,,,,,,,,5,9,9.5,10,10.5,11,0.5,0.1,0.4,2.4,10,initial,36.05,324,342,361,379,397,9,9,9,9,9,,,,,,,3,0,3,0,0,39,39,26,,,,,,,,,,,,num_4,0.6754732999979751,num_4,0.25,1.1,0.65,0.8,24.83358,30.5644,return,2.9789331999927526,,,,,,,,,,,,,,,,,901,18,male,left_right_width,2024-10-10_08h59.57.849,exp1,2023.1.0,59.979223197731365,
,,,,,,,,,,,,,,,,3,9.5,10,10.5,0,0,0.5,0.1,0.4,1.4000000000000001,10,initial,36.05,342,361,379,0,0,9,9,9,0,0,,,,,,,3,0,3,0,0,40,40,32,,,,,,,,,,,,num_2,0.7081397000001743,num_2,0.3,0.8,0.44999999999999996,0.6,17.19248,22.9233,return,2.094342099997448,,,,,,,,,,,,,,,,,901,18,male,left_right_width,2024-10-10_08h59.57.849,exp1,2023.1.0,59.979223197731365,
,,,,,,,,,,,,,,,,5,9,9.5,10,10.5,11,0.5,0.1,0.4,2.4,10,initial,36.05,324,342,361,379,397,9,9,9,9,9,,,,,,,3,0,3,0,0,41,41,49,,,,,,,,,,,,num_4,0.7455083999957424,num_4,0.3,0.8,0.5499999999999999,0.7,21.01303,26.74385,return,3.765222399990307,,,,,,,,,,,,,,,,,901,18,male,left_right_width,2024-10-10_08h59.57.849,exp1,2023.1.0,59.979223197731365,
,,,,,,,,,,,,,,,,4,9.25,9.75,10.25,10.75,0,0.5,0.1,0.4,1.9000000000000001,10,initial,36.05,333,351,370,388,0,9,9,9,9,0,,,,,,,3,0,3,0,0,42,42,12,,,,,,,,,,,,num_3,1.0898803000018233,num_3,0.35,0.5,0.5499999999999999,0.7,21.01303,26.74385,return,2.448843299993314,,,,,,,,,,,,,,,,,901,18,male,left_right_width,2024-10-10_08h59.57.849,exp1,2023.1.0,59.979223197731365,
,,,,,,,,,,,,,,,,5,9,9.5,10,10.5,11,0.5,0.1,0.4,2.4,10,initial,36.05,324,342,361,379,397,9,9,9,9,9,,,,,,,3,0,3,0,0,43,43,21,,,,,,,,,,,,num_4,0.762754399998812,num_4,0.45,0.8,0.7500000000000002,0.9,28.65413,34.38495,return,2.276011000009021,,,,,,,,,,,,,,,,,901,18,male,left_right_width,2024-10-10_08h59.57.849,exp1,2023.1.0,59.979223197731365,
,,,,,,,,,,,,,,,,3,9.5,10,10.5,0,0,0.5,0.1,0.4,1.4000000000000001,10,initial,36.05,342,361,379,0,0,9,9,9,0,0,,,,,,,3,0,3,0,0,44,44,1,,,,,,,,,,,,num_2,0.6975310999987414,num_2,0.4,1.6,0.55,0.8,21.01303,30.5644,return,2.3106750000006286,,,,,,,,,,,,,,,,,901,18,male,left_right_width,2024-10-10_08h59.57.849,exp1,2023.1.0,59.979223197731365,
,,,,,,,,,,,,,,,,4,9.25,9.75,10.25,10.75,0,0.5,0.1,0.4,1.9000000000000001,10,initial,36.05,333,351,370,388,0,9,9,9,9,0,,,,,,,3,0,3,0,0,45,45,14,,,,,,,,,,,,num_3,0.752758000002359,num_3,0.55,1.3,0.55,0.7,21.01303,26.74385,return,3.9210792999947444,,,,,,,,,,,,,,,,,901,18,male,left_right_width,2024-10-10_08h59.57.849,exp1,2023.1.0,59.979223197731365,
,,,,,,,,,,,,,,,,5,9,9.5,10,10.5,11,0.5,0.1,0.4,2.4,10,initial,36.05,324,342,361,379,397,9,9,9,9,9,,,,,,,3,0,3,0,0,46,46,23,,,,,,,,,,,,num_4,0.8697182999894721,num_4,0.25,0.5,0.65,0.8,24.83358,30.5644,return,3.6780862999876263,,,,,,,,,,,,,,,,,901,18,male,left_right_width,2024-10-10_08h59.57.849,exp1,2023.1.0,59.979223197731365,
,,,,,,,,,,,,,,,,5,9,9.5,10,10.5,11,0.5,0.1,0.4,2.4,10,initial,36.05,324,342,361,379,397,9,9,9,9,9,,,,,,,3,0,3,0,0,47,47,46,,,,,,,,,,,,num_4,0.894798900000751,num_4,0.4,1.0,0.6500000000000001,0.8,24.83358,30.5644,return,2.48987710000074,,,,,,,,,,,,,,,,,901,18,male,left_right_width,2024-10-10_08h59.57.849,exp1,2023.1.0,59.979223197731365,
,,,,,,,,,,,,,,,,5,9,9.5,10,10.5,11,0.5,0.1,0.4,2.4,10,initial,36.05,324,342,361,379,397,9,9,9,9,9,,,,,,,3,0,3,0,0,48,48,51,,,,,,,,,,,,num_4,1.1403959000017494,num_4,0.3,0.5,0.65,0.8,24.83358,30.5644,return,2.5319702999986475,,,,,,,,,,,,,,,,,901,18,male,left_right_width,2024-10-10_08h59.57.849,exp1,2023.1.0,59.979223197731365,
,,,,,,,,,,,,,,,,3,9.5,10,10.5,0,0,0.5,0.1,0.4,1.4000000000000001,10,initial,36.05,342,361,379,0,0,9,9,9,0,0,,,,,,,3,0,3,0,0,49,49,33,,,,,,,,,,,,num_2,0.7121171000035247,num_2,0.25,1.4,0.39999999999999997,0.6,15.2822,22.9233,return,2.2823645000025863,,,,,,,,,,,,,,,,,901,18,male,left_right_width,2024-10-10_08h59.57.849,exp1,2023.1.0,59.979223197731365,
,,,,,,,,,,,,,,,,4,9.25,9.75,10.25,10.75,0,0.5,0.1,0.4,1.9000000000000001,10,initial,36.05,333,351,370,388,0,9,9,9,9,0,,,,,,,3,0,3,0,0,50,50,17,,,,,,,,,,,,num_3,0.662531099995249,num_3,0.35,0.8,0.6,0.8,22.9233,30.5644,return,1.450995300008799,,,,,,,,,,,,,,,,,901,18,male,left_right_width,2024-10-10_08h59.57.849,exp1,2023.1.0,59.979223197731365,
,,,,,,,,,,,,,,,,3,9.5,10,10.5,0,0,0.5,0.1,0.4,1.4000000000000001,10,initial,36.05,342,361,379,0,0,9,9,9,0,0,,,,,,,3,0,3,0,0,51,51,4,,,,,,,,,,,,num_2,0.7173956000042381,num_2,0.5,1.0,0.45,0.6,17.19248,22.9233,return,4.573272299996461,,,,,,,,,,,,,,,,,901,18,male,left_right_width,2024-10-10_08h59.57.849,exp1,2023.1.0,59.979223197731365,
,,,,,,,,,,,,,,,,5,9,9.5,10,10.5,11,0.5,0.1,0.4,2.4,10,initial,36.05,324,342,361,379,397,9,9,9,9,9,,,,,,,3,0,3,0,0,52,52,20,,,,,,,,,,,,num_4,1.0362533000006806,num_4,0.25,1.0,0.6,0.8,22.9233,30.5644,return,2.1584053999977186,,,,,,,,,,,,,,,,,901,18,male,left_right_width,2024-10-10_08h59.57.849,exp1,2023.1.0,59.979223197731365,
,,,,,,,,,,,,,,,,3,9.5,10,10.5,0,0,0.5,0.1,0.4,1.4000000000000001,10,initial,36.05,342,361,379,0,0,9,9,9,0,0,,,,,,,3,0,3,0,0,53,53,5,,,,,,,,,,,,num_2,0.6700969000085024,num_2,0.55,1.6,0.45,0.7,17.19248,26.74385,return,3.14913279999746,,,,,,,,,,,,,,,,,901,18,male,left_right_width,2024-10-10_08h59.57.849,exp1,2023.1.0,59.979223197731365,
,,,,,,,,,,,,,,,,,,,,,,,,,,,,,,,,,,,,,,,,,,,,,3,0,3,0,,,,,,,,,,,,,,,,,,,,,,,,,,,,,1868.8557273000042,1868.8557273000042,1868.8557273000042,,,,,,,,,,,,901,18,male,left_right_width,2024-10-10_08h59.57.849,exp1,2023.1.0,59.979223197731365,
,,,,,,,,,,,,,,,,3,9.1,10,10.9,0,0,0.9,0.35,0.55,2.35,10,initial,36.05,328,361,393,0,0,9,9,9,0,0,,,,,,,4,0,4,0,0,0,0,3,,,,,,,,,,,,num_2,3.0122984999907203,num_2,0.3,0.4,0.65,1.5,24.83358,57.30826,return,3.625999600000796,,,,,,,,,,,,,,,,,901,18,male,left_right_width,2024-10-10_08h59.57.849,exp1,2023.1.0,59.979223197731365,
,,,,,,,,,,,,,,,,4,8.65,9.55,10.45,11.35,0,0.9,0.35,0.55,3.25,10,initial,36.05,312,344,377,409,0,9,9,9,9,0,,,,,,,4,0,4,0,0,1,1,15,,,,,,,,,,,,num_3,1.331209600000875,num_3,0.4,0.8,0.7000000000000002,1.45,26.74385,55.39798,return,3.7882408000004943,,,,,,,,,,,,,,,,,901,18,male,left_right_width,2024-10-10_08h59.57.849,exp1,2023.1.0,59.979223197731365,
,,,,,,,,,,,,,,,,5,8.2,9.1,10,10.9,11.8,0.9,0.35,0.55,4.15,10,initial,36.05,296,328,361,393,425,9,9,9,9,9,,,,,,,4,0,4,0,0,2,2,24,,,,,,,,,,,,num_3,0.9416356000001542,num_3,0.35,0.7,0.7500000000000001,1.6,28.65413,61.12881,return,4.303141099997447,,,,,,,,,,,,,,,,,901,18,male,left_right_width,2024-10-10_08h59.57.849,exp1,2023.1.0,59.979223197731365,
,,,,,,,,,,,,,,,,5,8.2,9.1,10,10.9,11.8,0.9,0.35,0.55,4.15,10,initial,36.05,296,328,361,393,425,9,9,9,9,9,,,,,,,4,0,4,0,0,3,3,51,,,,,,,,,,,,num_4,1.0266734999895561,num_4,0.3,1.0,0.7000000000000001,1.5,26.74385,57.30826,return,3.815979499995592,,,,,,,,,,,,,,,,,901,18,male,left_right_width,2024-10-10_08h59.57.849,exp1,2023.1.0,59.979223197731365,
,,,,,,,,,,,,,,,,5,8.2,9.1,10,10.9,11.8,0.9,0.35,0.55,4.15,10,initial,36.05,296,328,361,393,425,9,9,9,9,9,,,,,,,4,0,4,0,0,4,4,53,,,,,,,,,,,,num_4,0.8030140000046231,num_4,0.3,0.3,0.8000000000000002,1.6,30.5644,61.12881,return,4.445755199994892,,,,,,,,,,,,,,,,,901,18,male,left_right_width,2024-10-10_08h59.57.849,exp1,2023.1.0,59.979223197731365,
,,,,,,,,,,,,,,,,4,8.65,9.55,10.45,11.35,0,0.9,0.35,0.55,3.25,10,initial,36.05,312,344,377,409,0,9,9,9,9,0,,,,,,,4,0,4,0,0,5,5,17,,,,,,,,,,,,num_3,0.9134304999897722,num_3,0.45,1.3,0.7500000000000002,1.45,28.65413,55.39798,return,2.0748404000041774,,,,,,,,,,,,,,,,,901,18,male,left_right_width,2024-10-10_08h59.57.849,exp1,2023.1.0,59.979223197731365,
,,,,,,,,,,,,,,,,4,8.65,9.55,10.45,11.35,0,0.9,0.35,0.55,3.25,10,initial,36.05,312,344,377,409,0,9,9,9,9,0,,,,,,,4,0,4,0,0,6,6,41,,,,,,,,,,,,num_3,0.7825424000038765,num_3,0.35,1.3,0.7000000000000001,1.55,26.74385,59.21853,return,3.2103790000110166,,,,,,,,,,,,,,,,,901,18,male,left_right_width,2024-10-10_08h59.57.849,exp1,2023.1.0,59.979223197731365,
,,,,,,,,,,,,,,,,4,8.65,9.55,10.45,11.35,0,0.9,0.35,0.55,3.25,10,initial,36.05,312,344,377,409,0,9,9,9,9,0,,,,,,,4,0,4,0,0,7,7,42,,,,,,,,,,,,num_3,0.9280151999992086,num_3,0.3,0.7,0.7000000000000001,1.35,26.74385,51.57743,return,4.129805299991858,,,,,,,,,,,,,,,,,901,18,male,left_right_width,2024-10-10_08h59.57.849,exp1,2023.1.0,59.979223197731365,
,,,,,,,,,,,,,,,,4,8.65,9.55,10.45,11.35,0,0.9,0.35,0.55,3.25,10,initial,36.05,312,344,377,409,0,9,9,9,9,0,,,,,,,4,0,4,0,0,8,8,40,,,,,,,,,,,,num_3,0.8873590000002878,num_3,0.3,0.5,0.7000000000000001,1.4,26.74385,53.48771,return,6.718105699997977,,,,,,,,,,,,,,,,,901,18,male,left_right_width,2024-10-10_08h59.57.849,exp1,2023.1.0,59.979223197731365,
,,,,,,,,,,,,,,,,4,8.65,9.55,10.45,11.35,0,0.9,0.35,0.55,3.25,10,initial,36.05,312,344,377,409,0,9,9,9,9,0,,,,,,,4,0,4,0,0,9,9,11,,,,,,,,,,,,num_3,0.8716779999958817,num_3,0.2,0.6,0.65,1.35,24.83358,51.57743,return,4.589909899994382,,,,,,,,,,,,,,,,,901,18,male,left_right_width,2024-10-10_08h59.57.849,exp1,2023.1.0,59.979223197731365,
,,,,,,,,,,,,,,,,5,8.2,9.1,10,10.9,11.8,0.9,0.35,0.55,4.15,10,initial,36.05,296,328,361,393,425,9,9,9,9,9,,,,,,,4,0,4,0,0,10,10,47,,,,,,,,,,,,num_4,0.9614371999923605,num_4,0.2,1.0,0.7000000000000001,1.5,26.74385,57.30826,return,2.7307485999917844,,,,,,,,,,,,,,,,,901,18,male,left_right_width,2024-10-10_08h59.57.849,exp1,2023.1.0,59.979223197731365,
,,,,,,,,,,,,,,,,3,9.1,10,10.9,0,0,0.9,0.35,0.55,2.35,10,initial,36.05,328,361,393,0,0,9,9,9,0,0,,,,,,,4,0,4,0,0,11,11,28,,,,,,,,,,,,num_2,0.9031887000019196,num_2,0.4,1.6,0.7500000000000002,1.6,28.65413,61.12881,return,1.3607263000012608,,,,,,,,,,,,,,,,,901,18,male,left_right_width,2024-10-10_08h59.57.849,exp1,2023.1.0,59.979223197731365,
,,,,,,,,,,,,,,,,3,9.1,10,10.9,0,0,0.9,0.35,0.55,2.35,10,initial,36.05,328,361,393,0,0,9,9,9,0,0,,,,,,,4,0,4,0,0,12,12,1,,,,,,,,,,,,num_2,0.8454103000112809,num_2,0.2,0.4,0.7500000000000001,1.7,28.65413,64.94936,return,3.591493800005992,,,,,,,,,,,,,,,,,901,18,male,left_right_width,2024-10-10_08h59.57.849,exp1,2023.1.0,59.979223197731365,
,,,,,,,,,,,,,,,,5,8.2,9.1,10,10.9,11.8,0.9,0.35,0.55,4.15,10,initial,36.05,296,328,361,393,425,9,9,9,9,9,,,,,,,4,0,4,0,0,13,13,45,,,,,,,,,,,,num_3,0.9953746000101091,num_3,0.3,1.1,0.8000000000000002,1.6,30.5644,61.12881,return,3.4794694000011077,,,,,,,,,,,,,,,,,901,18,male,left_right_width,2024-10-10_08h59.57.849,exp1,2023.1.0,59.979223197731365,
,,,,,,,,,,,,,,,,3,9.1,10,10.9,0,0,0.9,0.35,0.55,2.35,10,initial,36.05,328,361,393,0,0,9,9,9,0,0,,,,,,,4,0,4,0,0,14,14,6,,,,,,,,,,,,num_2,1.318591799994465,num_2,0.4,1.0,0.7000000000000002,1.7,26.74385,64.94936,return,2.476570200000424,,,,,,,,,,,,,,,,,901,18,male,left_right_width,2024-10-10_08h59.57.849,exp1,2023.1.0,59.979223197731365,
,,,,,,,,,,,,,,,,5,8.2,9.1,10,10.9,11.8,0.9,0.35,0.55,4.15,10,initial,36.05,296,328,361,393,425,9,9,9,9,9,,,,,,,4,0,4,0,0,15,15,20,,,,,,,,,,,,num_4,1.2538025999965612,num_4,0.2,0.4,0.7500000000000001,1.5,28.65413,57.30826,return,4.818490600009682,,,,,,,,,,,,,,,,,901,18,male,left_right_width,2024-10-10_08h59.57.849,exp1,2023.1.0,59.979223197731365,
,,,,,,,,,,,,,,,,5,8.2,9.1,10,10.9,11.8,0.9,0.35,0.55,4.15,10,initial,36.05,296,328,361,393,425,9,9,9,9,9,,,,,,,4,0,4,0,0,16,16,21,,,,,,,,,,,,num_4,0.9238124999974389,num_4,0.2,0.8,0.7500000000000001,1.4,28.65413,53.48771,return,3.8275379999977304,,,,,,,,,,,,,,,,,901,18,male,left_right_width,2024-10-10_08h59.57.849,exp1,2023.1.0,59.979223197731365,
,,,,,,,,,,,,,,,,4,8.65,9.55,10.45,11.35,0,0.9,0.35,0.55,3.25,10,initial,36.05,312,344,377,409,0,9,9,9,9,0,,,,,,,4,0,4,0,0,17,17,14,,,,,,,,,,,,num_4,1.274059599993052,num_4,0.2,0.9,0.7000000000000001,1.4,26.74385,53.48771,return,2.955566699994961,,,,,,,,,,,,,,,,,901,18,male,left_right_width,2024-10-10_08h59.57.849,exp1,2023.1.0,59.979223197731365,
,,,,,,,,,,,,,,,,3,9.1,10,10.9,0,0,0.9,0.35,0.55,2.35,10,initial,36.05,328,361,393,0,0,9,9,9,0,0,,,,,,,4,0,4,0,0,18,18,2,,,,,,,,,,,,num_2,0.7646036000078311,num_2,0.25,0.8,0.8500000000000002,1.9,32.47468,72.59046,return,4.140409400002682,,,,,,,,,,,,,,,,,901,18,male,left_right_width,2024-10-10_08h59.57.849,exp1,2023.1.0,59.979223197731365,
,,,,,,,,,,,,,,,,5,8.2,9.1,10,10.9,11.8,0.9,0.35,0.55,4.15,10,initial,36.05,296,328,361,393,425,9,9,9,9,9,,,,,,,4,0,4,0,0,19,19,49,,,,,,,,,,,,num_4,0.8195481000002474,num_4,0.4,1.3,0.8500000000000003,1.7,32.47468,64.94936,return,4.561540499998955,,,,,,,,,,,,,,,,,901,18,male,left_right_width,2024-10-10_08h59.57.849,exp1,2023.1.0,59.979223197731365,
,,,,,,,,,,,,,,,,3,9.1,10,10.9,0,0,0.9,0.35,0.55,2.35,10,initial,36.05,328,361,393,0,0,9,9,9,0,0,,,,,,,4,0,4,0,0,20,20,34,,,,,,,,,,,,num_2,0.7392472000065027,num_2,0.3,1.2,0.7500000000000001,1.6,28.65413,61.12881,return,3.4259618999931263,,,,,,,,,,,,,,,,,901,18,male,left_right_width,2024-10-10_08h59.57.849,exp1,2023.1.0,59.979223197731365,
,,,,,,,,,,,,,,,,3,9.1,10,10.9,0,0,0.9,0.35,0.55,2.35,10,initial,36.05,328,361,393,0,0,9,9,9,0,0,,,,,,,4,0,4,0,0,21,21,5,,,,,,,,,,,,num_2,0.7442982999928063,num_2,0.55,1.2,0.7500000000000002,1.6,28.65413,61.12881,return,2.3910869999963325,,,,,,,,,,,,,,,,,901,18,male,left_right_width,2024-10-10_08h59.57.849,exp1,2023.1.0,59.979223197731365,
,,,,,,,,,,,,,,,,3,9.1,10,10.9,0,0,0.9,0.35,0.55,2.35,10,initial,36.05,328,361,393,0,0,9,9,9,0,0,,,,,,,4,0,4,0,0,22,22,4,,,,,,,,,,,,num_2,0.7372995000041556,num_2,0.35,1.2,0.7000000000000001,1.6,26.74385,61.12881,return,2.3653392999985954,,,,,,,,,,,,,,,,,901,18,male,left_right_width,2024-10-10_08h59.57.849,exp1,2023.1.0,59.979223197731365,
,,,,,,,,,,,,,,,,4,8.65,9.55,10.45,11.35,0,0.9,0.35,0.55,3.25,10,initial,36.05,312,344,377,409,0,9,9,9,9,0,,,,,,,4,0,4,0,0,23,23,39,,,,,,,,,,,,num_4,0.8552789999957895,num_4,0.5,1.1,0.8500000000000003,1.7,32.47468,64.94936,return,2.5640035000105854,,,,,,,,,,,,,,,,,901,18,male,left_right_width,2024-10-10_08h59.57.849,exp1,2023.1.0,59.979223197731365,
,,,,,,,,,,,,,,,,4,8.65,9.55,10.45,11.35,0,0.9,0.35,0.55,3.25,10,initial,36.05,312,344,377,409,0,9,9,9,9,0,,,,,,,4,0,4,0,0,24,24,9,,,,,,,,,,,,num_3,0.842464999994263,num_3,0.4,1.1,0.7000000000000002,1.45,26.74385,55.39798,return,4.591422899989993,,,,,,,,,,,,,,,,,901,18,male,left_right_width,2024-10-10_08h59.57.849,exp1,2023.1.0,59.979223197731365,
,,,,,,,,,,,,,,,,5,8.2,9.1,10,10.9,11.8,0.9,0.35,0.55,4.15,10,initial,36.05,296,328,361,393,425,9,9,9,9,9,,,,,,,4,0,4,0,0,25,25,50,,,,,,,,,,,,num_4,1.0115200000000186,num_4,0.35,0.9,0.7000000000000001,1.4,26.74385,53.48771,return,2.849788500010618,,,,,,,,,,,,,,,,,901,18,male,left_right_width,2024-10-10_08h59.57.849,exp1,2023.1.0,59.979223197731365,
,,,,,,,,,,,,,,,,3,9.1,10,10.9,0,0,0.9,0.35,0.55,2.35,10,initial,36.05,328,361,393,0,0,9,9,9,0,0,,,,,,,4,0,4,0,0,26,26,27,,,,,,,,,,,,num_2,1.0601656999933766,num_2,0.45,1.4,0.7500000000000002,1.6,28.65413,61.12881,return,2.499262199999066,,,,,,,,,,,,,,,,,901,18,male,left_right_width,2024-10-10_08h59.57.849,exp1,2023.1.0,59.979223197731365,
,,,,,,,,,,,,,,,,4,8.65,9.55,10.45,11.35,0,0.9,0.35,0.55,3.25,10,initial,36.05,312,344,377,409,0,9,9,9,9,0,,,,,,,4,0,4,0,0,27,27,13,,,,,,,,,,,,num_3,0.8054135999991558,num_3,0.4,0.5,0.7500000000000002,1.5,28.65413,57.30826,return,4.862538900008076,,,,,,,,,,,,,,,,,901,18,male,left_right_width,2024-10-10_08h59.57.849,exp1,2023.1.0,59.979223197731365,
,,,,,,,,,,,,,,,,3,9.1,10,10.9,0,0,0.9,0.35,0.55,2.35,10,initial,36.05,328,361,393,0,0,9,9,9,0,0,,,,,,,4,0,4,0,0,28,28,7,,,,,,,,,,,,num_2,0.7712507999967784,num_2,0.55,1.2,0.7500000000000002,1.5,28.65413,57.30826,return,2.7519577000057325,,,,,,,,,,,,,,,,,901,18,male,left_right_width,2024-10-10_08h59.57.849,exp1,2023.1.0,59.979223197731365,
,,,,,,,,,,,,,,,,4,8.65,9.55,10.45,11.35,0,0.9,0.35,0.55,3.25,10,initial,36.05,312,344,377,409,0,9,9,9,9,0,,,,,,,4,0,4,0,0,29,29,16,,,,,,,,,,,,num_3,0.6482167999929516,num_3,0.45,0.5,0.8000000000000003,1.5,30.5644,57.30826,return,5.657070400004159,,,,,,,,,,,,,,,,,901,18,male,left_right_width,2024-10-10_08h59.57.849,exp1,2023.1.0,59.979223197731365,
,,,,,,,,,,,,,,,,3,9.1,10,10.9,0,0,0.9,0.35,0.55,2.35,10,initial,36.05,328,361,393,0,0,9,9,9,0,0,,,,,,,4,0,4,0,0,30,30,0,,,,,,,,,,,,num_2,0.6840202000021236,num_2,0.25,0.6,0.7000000000000001,1.6,26.74385,61.12881,return,3.3214624999964144,,,,,,,,,,,,,,,,,901,18,male,left_right_width,2024-10-10_08h59.57.849,exp1,2023.1.0,59.979223197731365,
,,,,,,,,,,,,,,,,4,8.65,9.55,10.45,11.35,0,0.9,0.35,0.55,3.25,10,initial,36.05,312,344,377,409,0,9,9,9,9,0,,,,,,,4,0,4,0,0,31,31,44,,,,,,,,,,,,num_3,0.6258191000088118,num_3,0.4,0.9,0.7000000000000002,1.25,26.74385,47.75688,return,2.6311366000009,,,,,,,,,,,,,,,,,901,18,male,left_right_width,2024-10-10_08h59.57.849,exp1,2023.1.0,59.979223197731365,
,,,,,,,,,,,,,,,,3,9.1,10,10.9,0,0,0.9,0.35,0.55,2.35,10,initial,36.05,328,361,393,0,0,9,9,9,0,0,,,,,,,4,0,4,0,0,32,32,33,,,,,,,,,,,,num_2,0.6238270999892848,num_2,0.55,1.0,0.6500000000000001,1.4,24.83358,53.48771,return,1.5050021000060951,,,,,,,,,,,,,,,,,901,18,male,left_right_width,2024-10-10_08h59.57.849,exp1,2023.1.0,59.979223197731365,
,,,,,,,,,,,,,,,,5,8.2,9.1,10,10.9,11.8,0.9,0.35,0.55,4.15,10,initial,36.05,296,328,361,393,425,9,9,9,9,9,,,,,,,4,0,4,0,0,33,33,48,,,,,,,,,,,,num_4,0.8326420000084909,num_4,0.3,0.4,0.7000000000000001,1.4,26.74385,53.48771,return,5.116176900002756,,,,,,,,,,,,,,,,,901,18,male,left_right_width,2024-10-10_08h59.57.849,exp1,2023.1.0,59.979223197731365,
,,,,,,,,,,,,,,,,4,8.65,9.55,10.45,11.35,0,0.9,0.35,0.55,3.25,10,initial,36.05,312,344,377,409,0,9,9,9,9,0,,,,,,,4,0,4,0,0,34,34,37,,,,,,,,,,,,num_4,0.7467104999959702,num_4,0.35,1.2,0.7500000000000001,1.2,28.65413,45.8466,return,1.7205623000045307,,,,,,,,,,,,,,,,,901,18,male,left_right_width,2024-10-10_08h59.57.849,exp1,2023.1.0,59.979223197731365,
,,,,,,,,,,,,,,,,3,9.1,10,10.9,0,0,0.9,0.35,0.55,2.35,10,initial,36.05,328,361,393,0,0,9,9,9,0,0,,,,,,,4,0,4,0,0,35,35,31,,,,,,,,,,,,num_2,0.6178363999933936,num_2,0.55,1.0,0.7500000000000002,1.6,28.65413,61.12881,return,3.083477199994377,,,,,,,,,,,,,,,,,901,18,male,left_right_width,2024-10-10_08h59.57.849,exp1,2023.1.0,59.979223197731365,
,,,,,,,,,,,,,,,,5,8.2,9.1,10,10.9,11.8,0.9,0.35,0.55,4.15,10,initial,36.05,296,328,361,393,425,9,9,9,9,9,,,,,,,4,0,4,0,0,36,36,18,,,,,,,,,,,,num_4,0.892924599989783,num_4,0.3,1.0,0.7500000000000001,1.6,28.65413,61.12881,return,3.312568299996201,,,,,,,,,,,,,,,,,901,18,male,left_right_width,2024-10-10_08h59.57.849,exp1,2023.1.0,59.979223197731365,
,,,,,,,,,,,,,,,,4,8.65,9.55,10.45,11.35,0,0.9,0.35,0.55,3.25,10,initial,36.05,312,344,377,409,0,9,9,9,9,0,,,,,,,4,0,4,0,0,37,37,12,,,,,,,,,,,,num_3,0.8531625999894459,num_3,0.55,0.8,0.7000000000000002,1.6,26.74385,61.12881,return,6.060605000006035,,,,,,,,,,,,,,,,,901,18,male,left_right_width,2024-10-10_08h59.57.849,exp1,2023.1.0,59.979223197731365,
,,,,,,,,,,,,,,,,4,8.65,9.55,10.45,11.35,0,0.9,0.35,0.55,3.25,10,initial,36.05,312,344,377,409,0,9,9,9,9,0,,,,,,,4,0,4,0,0,38,38,36,,,,,,,,,,,,num_3,0.7102044000057504,num_3,0.35,0.4,0.7000000000000001,1.35,26.74385,51.57743,return,6.851358200001414,,,,,,,,,,,,,,,,,901,18,male,left_right_width,2024-10-10_08h59.57.849,exp1,2023.1.0,59.979223197731365,
,,,,,,,,,,,,,,,,3,9.1,10,10.9,0,0,0.9,0.35,0.55,2.35,10,initial,36.05,328,361,393,0,0,9,9,9,0,0,,,,,,,4,0,4,0,0,39,39,29,,,,,,,,,,,,num_2,0.8424897000077181,num_2,0.55,0.8,0.7500000000000002,1.5,28.65413,57.30826,return,2.6754987000022084,,,,,,,,,,,,,,,,,901,18,male,left_right_width,2024-10-10_08h59.57.849,exp1,2023.1.0,59.979223197731365,
,,,,,,,,,,,,,,,,5,8.2,9.1,10,10.9,11.8,0.9,0.35,0.55,4.15,10,initial,36.05,296,328,361,393,425,9,9,9,9,9,,,,,,,4,0,4,0,0,40,40,22,,,,,,,,,,,,num_4,0.8840708999923663,num_4,0.25,1.0,0.8000000000000002,1.6,30.5644,61.12881,return,3.9964051999995718,,,,,,,,,,,,,,,,,901,18,male,left_right_width,2024-10-10_08h59.57.849,exp1,2023.1.0,59.979223197731365,
,,,,,,,,,,,,,,,,5,8.2,9.1,10,10.9,11.8,0.9,0.35,0.55,4.15,10,initial,36.05,296,328,361,393,425,9,9,9,9,9,,,,,,,4,0,4,0,0,41,41,25,,,,,,,,,,,,num_4,0.8780922999867471,num_4,0.25,0.5,0.7500000000000001,1.5,28.65413,57.30826,return,3.653368799990858,,,,,,,,,,,,,,,,,901,18,male,left_right_width,2024-10-10_08h59.57.849,exp1,2023.1.0,59.979223197731365,
,,,,,,,,,,,,,,,,4,8.65,9.55,10.45,11.35,0,0.9,0.35,0.55,3.25,10,initial,36.05,312,344,377,409,0,9,9,9,9,0,,,,,,,4,0,4,0,0,42,42,38,,,,,,,,,,,,num_3,0.6645927000063239,num_3,0.45,0.5,0.7000000000000002,1.45,26.74385,55.39798,return,5.45303459999559,,,,,,,,,,,,,,,,,901,18,male,left_right_width,2024-10-10_08h59.57.849,exp1,2023.1.0,59.979223197731365,
,,,,,,,,,,,,,,,,5,8.2,9.1,10,10.9,11.8,0.9,0.35,0.55,4.15,10,initial,36.05,296,328,361,393,425,9,9,9,9,9,,,,,,,4,0,4,0,0,43,43,52,,,,,,,,,,,,num_4,0.9343075999931898,num_4,0.25,0.8,0.7500000000000001,1.5,28.65413,57.30826,return,5.578262900002301,,,,,,,,,,,,,,,,,901,18,male,left_right_width,2024-10-10_08h59.57.849,exp1,2023.1.0,59.979223197731365,
,,,,,,,,,,,,,,,,5,8.2,9.1,10,10.9,11.8,0.9,0.35,0.55,4.15,10,initial,36.05,296,328,361,393,425,9,9,9,9,9,,,,,,,4,0,4,0,0,44,44,23,,,,,,,,,,,,num_4,0.9457285999960732,num_4,0.35,0.7,0.7000000000000001,1.3,26.74385,49.66716,return,2.115758799991454,,,,,,,,,,,,,,,,,901,18,male,left_right_width,2024-10-10_08h59.57.849,exp1,2023.1.0,59.979223197731365,
,,,,,,,,,,,,,,,,5,8.2,9.1,10,10.9,11.8,0.9,0.35,0.55,4.15,10,initial,36.05,296,328,361,393,425,9,9,9,9,9,,,,,,,4,0,4,0,0,45,45,19,,,,,,,,,,,,num_4,0.782483900009538,num_4,0.2,0.5,0.65,1.3,24.83358,49.66716,return,3.3661671000008937,,,,,,,,,,,,,,,,,901,18,male,left_right_width,2024-10-10_08h59.57.849,exp1,2023.1.0,59.979223197731365,
,,,,,,,,,,,,,,,,3,9.1,10,10.9,0,0,0.9,0.35,0.55,2.35,10,initial,36.05,328,361,393,0,0,9,9,9,0,0,,,,,,,4,0,4,0,0,46,46,30,,,,,,,,,,,,num_2,0.8247267999977339,num_2,0.25,0.4,0.65,1.3,24.83358,49.66716,return,2.881405599997379,,,,,,,,,,,,,,,,,901,18,male,left_right_width,2024-10-10_08h59.57.849,exp1,2023.1.0,59.979223197731365,
,,,,,,,,,,,,,,,,4,8.65,9.55,10.45,11.35,0,0.9,0.35,0.55,3.25,10,initial,36.05,312,344,377,409,0,9,9,9,9,0,,,,,,,4,0,4,0,0,47,47,10,,,,,,,,,,,,num_4,0.999270999993314,num_4,0.2,0.3,0.65,1.3,24.83358,49.66716,return,3.166125899995677,,,,,,,,,,,,,,,,,901,18,male,left_right_width,2024-10-10_08h59.57.849,exp1,2023.1.0,59.979223197731365,
,,,,,,,,,,,,,,,,4,8.65,9.55,10.45,11.35,0,0.9,0.35,0.55,3.25,10,initial,36.05,312,344,377,409,0,9,9,9,9,0,,,,,,,4,0,4,0,0,48,48,43,,,,,,,,,,,,num_3,0.9042683000006946,num_3,0.5,0.9,0.7000000000000002,1.25,26.74385,47.75688,return,2.3481922000064515,,,,,,,,,,,,,,,,,901,18,male,left_right_width,2024-10-10_08h59.57.849,exp1,2023.1.0,59.979223197731365,
,,,,,,,,,,,,,,,,5,8.2,9.1,10,10.9,11.8,0.9,0.35,0.55,4.15,10,initial,36.05,296,328,361,393,425,9,9,9,9,9,,,,,,,4,0,4,0,0,49,49,46,,,,,,,,,,,,num_4,0.9051102999947034,num_4,0.5,1.1,0.6500000000000001,1.2,24.83358,45.8466,return,2.2961836000031326,,,,,,,,,,,,,,,,,901,18,male,left_right_width,2024-10-10_08h59.57.849,exp1,2023.1.0,59.979223197731365,
,,,,,,,,,,,,,,,,3,9.1,10,10.9,0,0,0.9,0.35,0.55,2.35,10,initial,36.05,328,361,393,0,0,9,9,9,0,0,,,,,,,4,0,4,0,0,50,50,32,,,,,,,,,,,,num_2,0.8461881999974139,num_2,0.2,0.4,0.65,1.5,24.83358,57.30826,return,3.476429600006668,,,,,,,,,,,,,,,,,901,18,male,left_right_width,2024-10-10_08h59.57.849,exp1,2023.1.0,59.979223197731365,
,,,,,,,,,,,,,,,,3,9.1,10,10.9,0,0,0.9,0.35,0.55,2.35,10,initial,36.05,328,361,393,0,0,9,9,9,0,0,,,,,,,4,0,4,0,0,51,51,8,,,,,,,,,,,,num_2,0.8020965000032447,num_2,0.55,1.0,0.6000000000000001,1.1,22.9233,42.02605,return,2.5062516999896616,,,,,,,,,,,,,,,,,901,18,male,left_right_width,2024-10-10_08h59.57.849,exp1,2023.1.0,59.979223197731365,
,,,,,,,,,,,,,,,,3,9.1,10,10.9,0,0,0.9,0.35,0.55,2.35,10,initial,36.05,328,361,393,0,0,9,9,9,0,0,,,,,,,4,0,4,0,0,52,52,35,,,,,,,,,,,,num_2,0.9022913000080734,num_2,0.35,0.4,0.65,1.4,24.83358,53.48771,return,3.403172000005725,,,,,,,,,,,,,,,,,901,18,male,left_right_width,2024-10-10_08h59.57.849,exp1,2023.1.0,59.979223197731365,
,,,,,,,,,,,,,,,,5,8.2,9.1,10,10.9,11.8,0.9,0.35,0.55,4.15,10,initial,36.05,296,328,361,393,425,9,9,9,9,9,,,,,,,4,0,4,0,0,53,53,26,,,,,,,,,,,,num_4,0.8963994999940041,num_4,0.35,1.0,0.7000000000000001,1.4,26.74385,53.48771,return,4.408086399998865,,,,,,,,,,,,,,,,,901,18,male,left_right_width,2024-10-10_08h59.57.849,exp1,2023.1.0,59.979223197731365,
,,,,,,,,,,,,,,,,,,,,,,,,,,,,,,,,,,,,,,,,,,,,,4,0,4,0,,,,,,,,,,,,,,,,,,,,,,,,,,,,,2287.8880770999967,2287.8880770999967,2287.8880770999967,,,,,,,,,,,,901,18,male,left_right_width,2024-10-10_08h59.57.849,exp1,2023.1.0,59.979223197731365,
,,,,,,,,,,,,,,,,3,9.5,10,10.5,0,0,0.5,0.25,0.25,1.25,10,initial,36.05,342,361,379,0,0,9,9,9,0,0,,,,,,,5,0,5,0,0,0,0,28,,,,,,,,,,,,num_2,1.0030304999963846,num_2,0.35,1.2,0.2,0.7,7.6411,26.74385,return,2.2360191000043415,,,,,,,,,,,,,,,,,901,18,male,left_right_width,2024-10-10_08h59.57.849,exp1,2023.1.0,59.979223197731365,
,,,,,,,,,,,,,,,,4,9.25,9.75,10.25,10.75,0,0.5,0.25,0.25,1.75,10,initial,36.05,333,351,370,388,0,9,9,9,9,0,,,,,,,5,0,5,0,0,1,1,10,,,,,,,,,,,,num_3,0.9702515000099083,num_3,0.25,1.1,0.2,0.7,7.6411,26.74385,return,3.8102886999986367,,,,,,,,,,,,,,,,,901,18,male,left_right_width,2024-10-10_08h59.57.849,exp1,2023.1.0,59.979223197731365,
,,,,,,,,,,,,,,,,5,9,9.5,10,10.5,11,0.5,0.25,0.25,2.25,10,initial,36.05,324,342,361,379,397,9,9,9,9,9,,,,,,,5,0,5,0,0,2,2,25,,,,,,,,,,,,num_4,0.8708832999982405,num_4,0.4,1.3,0.15000000000000008,0.8,5.73083,30.5644,return,2.9268961000052514,,,,,,,,,,,,,,,,,901,18,male,left_right_width,2024-10-10_08h59.57.849,exp1,2023.1.0,59.979223197731365,
,,,,,,,,,,,,,,,,3,9.5,10,10.5,0,0,0.5,0.25,0.25,1.25,10,initial,36.05,342,361,379,0,0,9,9,9,0,0,,,,,,,5,0,5,0,0,3,3,0,,,,,,,,,,,,num_2,1.7393186999979662,num_2,0.5,0.8,0.15000000000000008,0.7,5.73083,26.74385,return,4.400626599992393,,,,,,,,,,,,,,,,,901,18,male,left_right_width,2024-10-10_08h59.57.849,exp1,2023.1.0,59.979223197731365,
,,,,,,,,,,,,,,,,3,9.5,10,10.5,0,0,0.5,0.25,0.25,1.25,10,initial,36.05,342,361,379,0,0,9,9,9,0,0,,,,,,,5,0,5,0,0,4,4,35,,,,,,,,,,,,num_2,0.8767806999967434,num_2,0.45,1.0,0.15000000000000008,0.8,5.73083,30.5644,return,2.40323840000201,,,,,,,,,,,,,,,,,901,18,male,left_right_width,2024-10-10_08h59.57.849,exp1,2023.1.0,59.979223197731365,
,,,,,,,,,,,,,,,,5,9,9.5,10,10.5,11,0.5,0.25,0.25,2.25,10,initial,36.05,324,342,361,379,397,9,9,9,9,9,,,,,,,5,0,5,0,0,5,5,46,,,,,,,,,,,,num_3,0.9831295999902068,num_3,0.55,1.3,0.20000000000000007,0.85,7.6411,32.47468,return,3.6912009000079706,,,,,,,,,,,,,,,,,901,18,male,left_right_width,2024-10-10_08h59.57.849,exp1,2023.1.0,59.979223197731365,
,,,,,,,,,,,,,,,,4,9.25,9.75,10.25,10.75,0,0.5,0.25,0.25,1.75,10,initial,36.05,333,351,370,388,0,9,9,9,9,0,,,,,,,5,0,5,0,0,6,6,15,,,,,,,,,,,,num_3,0.9258322000096086,num_3,0.3,0.4,0.15000000000000002,0.65,5.73083,24.83358,return,3.536006599999382,,,,,,,,,,,,,,,,,901,18,male,left_right_width,2024-10-10_08h59.57.849,exp1,2023.1.0,59.979223197731365,
,,,,,,,,,,,,,,,,3,9.5,10,10.5,0,0,0.5,0.25,0.25,1.25,10,initial,36.05,342,361,379,0,0,9,9,9,0,0,,,,,,,5,0,5,0,0,7,7,33,,,,,,,,,,,,num_2,0.9307316000049468,num_2,0.25,0.6,0.15000000000000002,0.6,5.73083,22.9233,return,1.6083665000041947,,,,,,,,,,,,,,,,,901,18,male,left_right_width,2024-10-10_08h59.57.849,exp1,2023.1.0,59.979223197731365,
