amount_p,posx1_p,posx2_p,posx3_p,posx4_p,posx5_p,center_to_center_p,edge_to_edge_p,w_p,stim_length_p,eccentricity_p,line1_p,line2_p,line3_p,line4_p,line5_p,amount,posx1,posx2,posx3,posx4,posx5,center_to_center,edge_to_edge,w,stim_length,eccentricity,trial_type,deg_to_pix_index,posx1_in_pix,posx2_in_pix,posx3_in_pix,posx4_in_pix,posx5_in_pix,line1,line2,line3,line4,line5,posx,setsize_cobdi,trials.thisRepN,trials.thisTrialN,trials.thisN,trials.thisIndex,blocks.thisRepN,blocks.thisTrialN,blocks.thisN,blocks.thisIndex,loop.thisRepN,loop.thisTrialN,loop.thisN,loop.thisIndex,first.thisRepN,first.thisTrialN,first.thisN,first.thisIndex,second.thisRepN,second.thisTrialN,second.thisN,second.thisIndex,key_resp_3.started,key_resp_3.keys,key_resp_3.rt,key_resp.keys,key_resp.rt,response,starting_width_deg,starting_space_deg,response_width_degree,response_spacing_degree,response_width_pixel,response_spacing_pixel,next_5.keys,next_5.rt,key_resp_4.keys,key_resp_4.rt,text_3.started,text_4.started,key_resp_2.started,text_2.started,key_resp_2.keys,key_resp_2.rt,adjusting.started,next.keys,next.rt,text_control2.started,key_resp.started,key_resp.corr,text_bye.started,text_bye.stopped,participant,age,gender,resp_group,date,expName,psychopyVersion,frameRate,
,,,,,,,,,,,,,,,,,,,,,,,,,,,,,,,,,,,,,,,,,,,,,,,,,,,,,,,,,,,,,43.52332409998053,c,174.8380940000061,,,,,,,,,,,,,,,,,,,,,,,,,,,,902,19,female,up_down_width,2024-10-11_18h39.59.229,exp1,2023.1.0,59.99487643695273,
5,9,9.5,10,10.5,11,0.5,0.1,0.4,2.4,10,9,9,9,9,9,,,,,,,,,,,,,,,,,,,,,,,,,,0,0,0,5,,,,,,,,,,,,,,,,,,,,num_3,2.0931680999929085,num_3,0.25,0.7,0.15000000000000002,0.7,5.73083,26.74385,return,30.898818699992262,,,,,,,,,,,,,,,,,902,19,female,up_down_width,2024-10-11_18h39.59.229,exp1,2023.1.0,59.99487643695273,
4,9.25,9.75,10.25,10.75,0,0.5,0.25,0.25,1.75,10,9,9,9,9,0,,,,,,,,,,,,,,,,,,,,,,,,,,0,1,1,1,,,,,,,,,,,,,,,,,,,,num_3,1.8156090999837033,num_3,0.35,1.1,0.25,0.55,9.55138,21.01303,return,10.446809299988672,,,,,,,,,,,,,,,,,902,19,female,up_down_width,2024-10-11_18h39.59.229,exp1,2023.1.0,59.99487643695273,
4,9.25,9.75,10.25,10.75,0,0.5,0.1,0.4,1.9000000000000001,10,9,9,9,9,0,,,,,,,,,,,,,,,,,,,,,,,,,,0,2,2,4,,,,,,,,,,,,,,,,,,,,num_3,2.0346924000186846,num_3,0.25,0.7,0.35,0.65,13.37193,24.83358,return,4.493736700009322,,,,,,,,,,,,,,,,,902,19,female,up_down_width,2024-10-11_18h39.59.229,exp1,2023.1.0,59.99487643695273,
3,9.1,10,10.9,0,0,0.9,0.35,0.55,2.35,10,9,9,9,0,0,,,,,,,,,,,,,,,,,,,,,,,,,,0,3,3,3,,,,,,,,,,,,,,,,,,,,num_3,2.190894900006242,num_3,0.35,0.4,0.6,0.8,22.9233,30.5644,return,6.8063250000122935,,,,,,,,,,,,,,,,,902,19,female,up_down_width,2024-10-11_18h39.59.229,exp1,2023.1.0,59.99487643695273,
5,8.2,9.1,10,10.9,11.8,0.9,0.35,0.55,4.15,10,9,9,9,9,9,,,,,,,,,,,,,,,,,,,,,,,,,,0,4,4,2,,,,,,,,,,,,,,,,,,,,num_4,2.319722299987916,num_4,0.4,0.5,0.55,0.8,21.01303,30.5644,return,4.286701800010633,,,,,,,,,,,,,,,,,902,19,female,up_down_width,2024-10-11_18h39.59.229,exp1,2023.1.0,59.99487643695273,
3,9.5,10,10.5,0,0,0.5,0.25,0.25,1.25,10,9,9,9,0,0,,,,,,,,,,,,,,,,,,,,,,,,,,0,5,5,0,,,,,,,,,,,,,,,,,,,,num_3,2.286345499975141,num_3,0.2,0.4,0.2,0.4,7.6411,15.2822,return,1.05806229999871,,,,,,,,,,,,,,,,,902,19,female,up_down_width,2024-10-11_18h39.59.229,exp1,2023.1.0,59.99487643695273,
,,,,,,,,,,,,,,,,,,,,,,,,,,,,,,,,,,,,,,,,,,,,,,,,,,,,,,,,,,,,,,,,,,,,,,,,,,,c,34.64694530001725,,,,,,,,,,,,,,,902,19,female,up_down_width,2024-10-11_18h39.59.229,exp1,2023.1.0,59.99487643695273,
,,,,,,,,,,,,,,,,4,9.25,9.75,10.25,10.75,0,0.5,0.25,0.25,1.75,10,initial,36.05,333,351,370,388,0,9,9,9,9,0,,,,,,,0,0,0,0,0,0,0,17,,,,,,,,,,,,num_3,1.9340169000206515,num_3,0.3,1.3,0.3,0.85,11.46165,32.47468,return,4.716844899987336,,,,,,,,,,,,,,,,,902,19,female,up_down_width,2024-10-11_18h39.59.229,exp1,2023.1.0,59.99487643695273,
,,,,,,,,,,,,,,,,5,9,9.5,10,10.5,11,0.5,0.25,0.25,2.25,10,initial,36.05,324,342,361,379,397,9,9,9,9,9,,,,,,,0,0,0,0,0,1,1,20,,,,,,,,,,,,num_4,1.760409200011054,num_4,0.45,1.0,0.25000000000000006,0.6,9.55138,22.9233,return,10.69446520000929,,,,,,,,,,,,,,,,,902,19,female,up_down_width,2024-10-11_18h39.59.229,exp1,2023.1.0,59.99487643695273,
,,,,,,,,,,,,,,,,5,9,9.5,10,10.5,11,0.5,0.25,0.25,2.25,10,initial,36.05,324,342,361,379,397,9,9,9,9,9,,,,,,,0,0,0,0,0,2,2,45,,,,,,,,,,,,num_5,2.4786084999796003,num_5,0.3,1.2,0.2,0.65,7.6411,24.83358,return,4.713564999983646,,,,,,,,,,,,,,,,,902,19,female,up_down_width,2024-10-11_18h39.59.229,exp1,2023.1.0,59.99487643695273,
,,,,,,,,,,,,,,,,3,9.5,10,10.5,0,0,0.5,0.25,0.25,1.25,10,initial,36.05,342,361,379,0,0,9,9,9,0,0,,,,,,,0,0,0,0,0,3,3,2,,,,,,,,,,,,num_3,1.8090825999970548,num_3,0.25,0.6,0.25,0.6,9.55138,22.9233,return,1.733013499993831,,,,,,,,,,,,,,,,,902,19,female,up_down_width,2024-10-11_18h39.59.229,exp1,2023.1.0,59.99487643695273,
,,,,,,,,,,,,,,,,5,9,9.5,10,10.5,11,0.5,0.25,0.25,2.25,10,initial,36.05,324,342,361,379,397,9,9,9,9,9,,,,,,,0,0,0,0,0,4,4,52,,,,,,,,,,,,num_4,1.7914103000075556,num_4,0.35,1.0,0.2,0.7,7.6411,26.74385,return,6.0365456999861635,,,,,,,,,,,,,,,,,902,19,female,up_down_width,2024-10-11_18h39.59.229,exp1,2023.1.0,59.99487643695273,
,,,,,,,,,,,,,,,,4,9.25,9.75,10.25,10.75,0,0.5,0.25,0.25,1.75,10,initial,36.05,333,351,370,388,0,9,9,9,9,0,,,,,,,0,0,0,0,0,5,5,16,,,,,,,,,,,,num_4,1.5021259999775793,num_4,0.2,1.1,0.2,0.6,7.6411,22.9233,return,3.0965832000074442,,,,,,,,,,,,,,,,,902,19,female,up_down_width,2024-10-11_18h39.59.229,exp1,2023.1.0,59.99487643695273,
,,,,,,,,,,,,,,,,4,9.25,9.75,10.25,10.75,0,0.5,0.25,0.25,1.75,10,initial,36.05,333,351,370,388,0,9,9,9,9,0,,,,,,,0,0,0,0,0,6,6,12,,,,,,,,,,,,num_4,2.2304965000075754,num_4,0.2,1.3,0.2,0.6,7.6411,22.9233,return,2.1981339000049047,,,,,,,,,,,,,,,,,902,19,female,up_down_width,2024-10-11_18h39.59.229,exp1,2023.1.0,59.99487643695273,
,,,,,,,,,,,,,,,,5,9,9.5,10,10.5,11,0.5,0.25,0.25,2.25,10,initial,36.05,324,342,361,379,397,9,9,9,9,9,,,,,,,0,0,0,0,0,7,7,22,,,,,,,,,,,,num_5,1.7829081999952905,num_5,0.4,1.2,0.20000000000000007,0.7,7.6411,26.74385,return,3.845698299992364,,,,,,,,,,,,,,,,,902,19,female,up_down_width,2024-10-11_18h39.59.229,exp1,2023.1.0,59.99487643695273,
,,,,,,,,,,,,,,,,4,9.25,9.75,10.25,10.75,0,0.5,0.25,0.25,1.75,10,initial,36.05,333,351,370,388,0,9,9,9,9,0,,,,,,,0,0,0,0,0,8,8,10,,,,,,,,,,,,num_5,2.119361299992306,num_5,0.25,1.1,0.2,0.7,7.6411,26.74385,return,3.6320093999966048,,,,,,,,,,,,,,,,,902,19,female,up_down_width,2024-10-11_18h39.59.229,exp1,2023.1.0,59.99487643695273,
,,,,,,,,,,,,,,,,3,9.5,10,10.5,0,0,0.5,0.25,0.25,1.25,10,initial,36.05,342,361,379,0,0,9,9,9,0,0,,,,,,,0,0,0,0,0,9,9,4,,,,,,,,,,,,num_4,1.5641888999962248,num_4,0.45,1.1,0.20000000000000007,0.7,7.6411,26.74385,return,6.759291199996369,,,,,,,,,,,,,,,,,902,19,female,up_down_width,2024-10-11_18h39.59.229,exp1,2023.1.0,59.99487643695273,
,,,,,,,,,,,,,,,,3,9.5,10,10.5,0,0,0.5,0.25,0.25,1.25,10,initial,36.05,342,361,379,0,0,9,9,9,0,0,,,,,,,0,0,0,0,0,10,10,28,,,,,,,,,,,,num_3,2.175735500000883,num_3,0.2,1.1,0.25,0.8,9.55138,30.5644,return,5.154936599981738,,,,,,,,,,,,,,,,,902,19,female,up_down_width,2024-10-11_18h39.59.229,exp1,2023.1.0,59.99487643695273,
,,,,,,,,,,,,,,,,5,9,9.5,10,10.5,11,0.5,0.25,0.25,2.25,10,initial,36.05,324,342,361,379,397,9,9,9,9,9,,,,,,,0,0,0,0,0,11,11,25,,,,,,,,,,,,num_5,1.5776697999972384,num_5,0.4,0.8,0.20000000000000007,0.65,7.6411,24.83358,return,3.543509500013897,,,,,,,,,,,,,,,,,902,19,female,up_down_width,2024-10-11_18h39.59.229,exp1,2023.1.0,59.99487643695273,
,,,,,,,,,,,,,,,,3,9.5,10,10.5,0,0,0.5,0.25,0.25,1.25,10,initial,36.05,342,361,379,0,0,9,9,9,0,0,,,,,,,0,0,0,0,0,12,12,1,,,,,,,,,,,,num_3,1.3687509000010323,num_3,0.4,1.3,0.25000000000000006,0.75,9.55138,28.65413,return,4.249599099974148,,,,,,,,,,,,,,,,,902,19,female,up_down_width,2024-10-11_18h39.59.229,exp1,2023.1.0,59.99487643695273,
,,,,,,,,,,,,,,,,3,9.5,10,10.5,0,0,0.5,0.25,0.25,1.25,10,initial,36.05,342,361,379,0,0,9,9,9,0,0,,,,,,,0,0,0,0,0,13,13,30,,,,,,,,,,,,num_3,2.9159550000040326,num_3,0.4,0.9,0.25000000000000006,0.7,9.55138,26.74385,return,3.547892699978547,,,,,,,,,,,,,,,,,902,19,female,up_down_width,2024-10-11_18h39.59.229,exp1,2023.1.0,59.99487643695273,
,,,,,,,,,,,,,,,,3,9.5,10,10.5,0,0,0.5,0.25,0.25,1.25,10,initial,36.05,342,361,379,0,0,9,9,9,0,0,,,,,,,0,0,0,0,0,14,14,6,,,,,,,,,,,,num_4,1.8851055999984965,num_4,0.4,1.1,0.25000000000000006,0.6,9.55138,22.9233,return,3.5977831999771297,,,,,,,,,,,,,,,,,902,19,female,up_down_width,2024-10-11_18h39.59.229,exp1,2023.1.0,59.99487643695273,
,,,,,,,,,,,,,,,,4,9.25,9.75,10.25,10.75,0,0.5,0.25,0.25,1.75,10,initial,36.05,333,351,370,388,0,9,9,9,9,0,,,,,,,0,0,0,0,0,15,15,11,,,,,,,,,,,,num_5,1.5662944000214338,num_5,0.25,0.5,0.25,0.5,9.55138,19.10275,return,1.102913599985186,,,,,,,,,,,,,,,,,902,19,female,up_down_width,2024-10-11_18h39.59.229,exp1,2023.1.0,59.99487643695273,
,,,,,,,,,,,,,,,,3,9.5,10,10.5,0,0,0.5,0.25,0.25,1.25,10,initial,36.05,342,361,379,0,0,9,9,9,0,0,,,,,,,0,0,0,0,0,16,16,8,,,,,,,,,,,,num_3,2.0543876999872737,num_3,0.55,0.7,0.20000000000000007,0.55,7.6411,21.01303,return,3.627264099981403,,,,,,,,,,,,,,,,,902,19,female,up_down_width,2024-10-11_18h39.59.229,exp1,2023.1.0,59.99487643695273,
,,,,,,,,,,,,,,,,3,9.5,10,10.5,0,0,0.5,0.25,0.25,1.25,10,initial,36.05,342,361,379,0,0,9,9,9,0,0,,,,,,,0,0,0,0,0,17,17,27,,,,,,,,,,,,num_4,2.091492300009122,num_4,0.2,1.3,0.15000000000000002,0.5,5.73083,19.10275,return,3.090831600013189,,,,,,,,,,,,,,,,,902,19,female,up_down_width,2024-10-11_18h39.59.229,exp1,2023.1.0,59.99487643695273,
,,,,,,,,,,,,,,,,4,9.25,9.75,10.25,10.75,0,0.5,0.25,0.25,1.75,10,initial,36.05,333,351,370,388,0,9,9,9,9,0,,,,,,,0,0,0,0,0,18,18,41,,,,,,,,,,,,num_5,1.3878333999891765,num_5,0.2,0.4,0.2,0.4,7.6411,15.2822,return,0.9056834000220988,,,,,,,,,,,,,,,,,902,19,female,up_down_width,2024-10-11_18h39.59.229,exp1,2023.1.0,59.99487643695273,
,,,,,,,,,,,,,,,,3,9.5,10,10.5,0,0,0.5,0.25,0.25,1.25,10,initial,36.05,342,361,379,0,0,9,9,9,0,0,,,,,,,0,0,0,0,0,19,19,29,,,,,,,,,,,,num_3,2.3538065000029746,num_3,0.55,0.8,0.20000000000000007,0.55,7.6411,21.01303,return,4.065785999991931,,,,,,,,,,,,,,,,,902,19,female,up_down_width,2024-10-11_18h39.59.229,exp1,2023.1.0,59.99487643695273,
,,,,,,,,,,,,,,,,5,9,9.5,10,10.5,11,0.5,0.25,0.25,2.25,10,initial,36.05,324,342,361,379,397,9,9,9,9,9,,,,,,,0,0,0,0,0,20,20,48,,,,,,,,,,,,num_5,1.3795476999948733,num_5,0.55,1.0,0.20000000000000007,0.5,7.6411,19.10275,return,5.030321600002935,,,,,,,,,,,,,,,,,902,19,female,up_down_width,2024-10-11_18h39.59.229,exp1,2023.1.0,59.99487643695273,
,,,,,,,,,,,,,,,,3,9.5,10,10.5,0,0,0.5,0.25,0.25,1.25,10,initial,36.05,342,361,379,0,0,9,9,9,0,0,,,,,,,0,0,0,0,0,21,21,5,,,,,,,,,,,,num_3,1.9797550000075717,num_3,0.55,0.7,0.20000000000000007,0.55,7.6411,21.01303,return,3.9426110000058543,,,,,,,,,,,,,,,,,902,19,female,up_down_width,2024-10-11_18h39.59.229,exp1,2023.1.0,59.99487643695273,
,,,,,,,,,,,,,,,,5,9,9.5,10,10.5,11,0.5,0.25,0.25,2.25,10,initial,36.05,324,342,361,379,397,9,9,9,9,9,,,,,,,0,0,0,0,0,22,22,23,,,,,,,,,,,,num_6,1.663041499996325,num_6,0.45,0.9,0.25000000000000006,0.6,9.55138,22.9233,return,10.375775200023782,,,,,,,,,,,,,,,,,902,19,female,up_down_width,2024-10-11_18h39.59.229,exp1,2023.1.0,59.99487643695273,
,,,,,,,,,,,,,,,,3,9.5,10,10.5,0,0,0.5,0.25,0.25,1.25,10,initial,36.05,342,361,379,0,0,9,9,9,0,0,,,,,,,0,0,0,0,0,23,23,3,,,,,,,,,,,,num_3,1.571426500013331,num_3,0.2,1.2,0.15000000000000002,0.75,5.73083,28.65413,return,5.87485100000049,,,,,,,,,,,,,,,,,902,19,female,up_down_width,2024-10-11_18h39.59.229,exp1,2023.1.0,59.99487643695273,
,,,,,,,,,,,,,,,,4,9.25,9.75,10.25,10.75,0,0.5,0.25,0.25,1.75,10,initial,36.05,333,351,370,388,0,9,9,9,9,0,,,,,,,0,0,0,0,0,24,24,13,,,,,,,,,,,,num_4,1.9416778999730013,num_4,0.45,1.1,0.25000000000000006,0.5,9.55138,19.10275,return,3.4883965000044554,,,,,,,,,,,,,,,,,902,19,female,up_down_width,2024-10-11_18h39.59.229,exp1,2023.1.0,59.99487643695273,
,,,,,,,,,,,,,,,,5,9,9.5,10,10.5,11,0.5,0.25,0.25,2.25,10,initial,36.05,324,342,361,379,397,9,9,9,9,9,,,,,,,0,0,0,0,0,25,25,53,,,,,,,,,,,,num_5,1.691622999991523,num_5,0.5,0.8,0.25000000000000006,0.7,9.55138,26.74385,return,5.732067999982974,,,,,,,,,,,,,,,,,902,19,female,up_down_width,2024-10-11_18h39.59.229,exp1,2023.1.0,59.99487643695273,
,,,,,,,,,,,,,,,,4,9.25,9.75,10.25,10.75,0,0.5,0.25,0.25,1.75,10,initial,36.05,333,351,370,388,0,9,9,9,9,0,,,,,,,0,0,0,0,0,26,26,42,,,,,,,,,,,,num_5,1.6091612999734934,num_5,0.25,0.9,0.25,0.6,9.55138,22.9233,return,2.4183328000071924,,,,,,,,,,,,,,,,,902,19,female,up_down_width,2024-10-11_18h39.59.229,exp1,2023.1.0,59.99487643695273,
,,,,,,,,,,,,,,,,4,9.25,9.75,10.25,10.75,0,0.5,0.25,0.25,1.75,10,initial,36.05,333,351,370,388,0,9,9,9,9,0,,,,,,,0,0,0,0,0,27,27,44,,,,,,,,,,,,num_5,1.6144861000066157,num_5,0.2,0.5,0.25,0.5,9.55138,19.10275,return,2.284149199986132,,,,,,,,,,,,,,,,,902,19,female,up_down_width,2024-10-11_18h39.59.229,exp1,2023.1.0,59.99487643695273,
,,,,,,,,,,,,,,,,4,9.25,9.75,10.25,10.75,0,0.5,0.25,0.25,1.75,10,initial,36.05,333,351,370,388,0,9,9,9,9,0,,,,,,,0,0,0,0,0,28,28,37,,,,,,,,,,,,num_5,1.4580563000054099,num_5,0.25,1.2,0.2,0.6,7.6411,22.9233,return,5.4273707999964245,,,,,,,,,,,,,,,,,902,19,female,up_down_width,2024-10-11_18h39.59.229,exp1,2023.1.0,59.99487643695273,
,,,,,,,,,,,,,,,,5,9,9.5,10,10.5,11,0.5,0.25,0.25,2.25,10,initial,36.05,324,342,361,379,397,9,9,9,9,9,,,,,,,0,0,0,0,0,29,29,47,,,,,,,,,,,,num_5,1.2915276999992784,num_5,0.4,1.3,0.20000000000000007,0.6,7.6411,22.9233,return,7.509499599982519,,,,,,,,,,,,,,,,,902,19,female,up_down_width,2024-10-11_18h39.59.229,exp1,2023.1.0,59.99487643695273,
,,,,,,,,,,,,,,,,5,9,9.5,10,10.5,11,0.5,0.25,0.25,2.25,10,initial,36.05,324,342,361,379,397,9,9,9,9,9,,,,,,,0,0,0,0,0,30,30,51,,,,,,,,,,,,num_5,1.259125699987635,num_5,0.55,0.9,0.20000000000000007,0.5,7.6411,19.10275,return,4.308158100000583,,,,,,,,,,,,,,,,,902,19,female,up_down_width,2024-10-11_18h39.59.229,exp1,2023.1.0,59.99487643695273,
,,,,,,,,,,,,,,,,5,9,9.5,10,10.5,11,0.5,0.25,0.25,2.25,10,initial,36.05,324,342,361,379,397,9,9,9,9,9,,,,,,,0,0,0,0,0,31,31,24,,,,,,,,,,,,num_5,1.3995543000055477,num_5,0.25,0.3,0.2,0.55,7.6411,21.01303,return,9.495406400004867,,,,,,,,,,,,,,,,,902,19,female,up_down_width,2024-10-11_18h39.59.229,exp1,2023.1.0,59.99487643695273,
,,,,,,,,,,,,,,,,4,9.25,9.75,10.25,10.75,0,0.5,0.25,0.25,1.75,10,initial,36.05,333,351,370,388,0,9,9,9,9,0,,,,,,,0,0,0,0,0,32,32,38,,,,,,,,,,,,num_4,1.293809599999804,num_4,0.5,0.8,0.25000000000000006,0.6,9.55138,22.9233,return,3.711391699995147,,,,,,,,,,,,,,,,,902,19,female,up_down_width,2024-10-11_18h39.59.229,exp1,2023.1.0,59.99487643695273,
,,,,,,,,,,,,,,,,5,9,9.5,10,10.5,11,0.5,0.25,0.25,2.25,10,initial,36.05,324,342,361,379,397,9,9,9,9,9,,,,,,,0,0,0,0,0,33,33,26,,,,,,,,,,,,num_5,1.7661229000077583,num_5,0.5,1.2,0.20000000000000007,0.55,7.6411,21.01303,return,5.005607400002191,,,,,,,,,,,,,,,,,902,19,female,up_down_width,2024-10-11_18h39.59.229,exp1,2023.1.0,59.99487643695273,
,,,,,,,,,,,,,,,,3,9.5,10,10.5,0,0,0.5,0.25,0.25,1.25,10,initial,36.05,342,361,379,0,0,9,9,9,0,0,,,,,,,0,0,0,0,0,34,34,7,,,,,,,,,,,,num_3,1.6715928000048734,num_3,0.25,0.8,0.3,0.7,11.46165,26.74385,return,3.952950399980182,,,,,,,,,,,,,,,,,902,19,female,up_down_width,2024-10-11_18h39.59.229,exp1,2023.1.0,59.99487643695273,
,,,,,,,,,,,,,,,,4,9.25,9.75,10.25,10.75,0,0.5,0.25,0.25,1.75,10,initial,36.05,333,351,370,388,0,9,9,9,9,0,,,,,,,0,0,0,0,0,35,35,39,,,,,,,,,,,,num_4,2.057619800005341,num_4,0.55,1.0,0.15000000000000008,0.5,5.73083,19.10275,return,5.266278900002362,,,,,,,,,,,,,,,,,902,19,female,up_down_width,2024-10-11_18h39.59.229,exp1,2023.1.0,59.99487643695273,
,,,,,,,,,,,,,,,,3,9.5,10,10.5,0,0,0.5,0.25,0.25,1.25,10,initial,36.05,342,361,379,0,0,9,9,9,0,0,,,,,,,0,0,0,0,0,36,36,33,,,,,,,,,,,,num_3,1.2928295999881811,num_3,0.55,1.3,0.25000000000000006,0.75,9.55138,28.65413,return,6.818255600024713,,,,,,,,,,,,,,,,,902,19,female,up_down_width,2024-10-11_18h39.59.229,exp1,2023.1.0,59.99487643695273,
,,,,,,,,,,,,,,,,4,9.25,9.75,10.25,10.75,0,0.5,0.25,0.25,1.75,10,initial,36.05,333,351,370,388,0,9,9,9,9,0,,,,,,,0,0,0,0,0,37,37,40,,,,,,,,,,,,num_3,1.880448299983982,num_3,0.35,1.3,0.2,0.6,7.6411,22.9233,return,5.915730099979555,,,,,,,,,,,,,,,,,902,19,female,up_down_width,2024-10-11_18h39.59.229,exp1,2023.1.0,59.99487643695273,
,,,,,,,,,,,,,,,,4,9.25,9.75,10.25,10.75,0,0.5,0.25,0.25,1.75,10,initial,36.05,333,351,370,388,0,9,9,9,9,0,,,,,,,0,0,0,0,0,38,38,9,,,,,,,,,,,,num_4,3.9331075999944005,num_4,0.3,0.6,0.15000000000000002,0.5,5.73083,19.10275,return,3.720128699991619,,,,,,,,,,,,,,,,,902,19,female,up_down_width,2024-10-11_18h39.59.229,exp1,2023.1.0,59.99487643695273,
,,,,,,,,,,,,,,,,3,9.5,10,10.5,0,0,0.5,0.25,0.25,1.25,10,initial,36.05,342,361,379,0,0,9,9,9,0,0,,,,,,,0,0,0,0,0,39,39,0,,,,,,,,,,,,num_3,3.6013954000081867,num_3,0.55,1.3,0.25000000000000006,0.65,9.55138,24.83358,return,5.659799299988663,,,,,,,,,,,,,,,,,902,19,female,up_down_width,2024-10-11_18h39.59.229,exp1,2023.1.0,59.99487643695273,
,,,,,,,,,,,,,,,,3,9.5,10,10.5,0,0,0.5,0.25,0.25,1.25,10,initial,36.05,342,361,379,0,0,9,9,9,0,0,,,,,,,0,0,0,0,0,40,40,34,,,,,,,,,,,,num_3,1.4075128000113182,num_3,0.4,0.9,0.20000000000000007,0.75,7.6411,28.65413,return,3.168762599991169,,,,,,,,,,,,,,,,,902,19,female,up_down_width,2024-10-11_18h39.59.229,exp1,2023.1.0,59.99487643695273,
,,,,,,,,,,,,,,,,5,9,9.5,10,10.5,11,0.5,0.25,0.25,2.25,10,initial,36.05,324,342,361,379,397,9,9,9,9,9,,,,,,,0,0,0,0,0,41,41,46,,,,,,,,,,,,num_5,1.4991654999903403,num_5,0.5,1.2,0.15000000000000008,0.55,5.73083,21.01303,return,4.682057400001213,,,,,,,,,,,,,,,,,902,19,female,up_down_width,2024-10-11_18h39.59.229,exp1,2023.1.0,59.99487643695273,
,,,,,,,,,,,,,,,,5,9,9.5,10,10.5,11,0.5,0.25,0.25,2.25,10,initial,36.05,324,342,361,379,397,9,9,9,9,9,,,,,,,0,0,0,0,0,42,42,50,,,,,,,,,,,,num_5,1.269272399978945,num_5,0.55,1.0,0.25000000000000006,0.75,9.55138,28.65413,return,5.297024900006363,,,,,,,,,,,,,,,,,902,19,female,up_down_width,2024-10-11_18h39.59.229,exp1,2023.1.0,59.99487643695273,
,,,,,,,,,,,,,,,,4,9.25,9.75,10.25,10.75,0,0.5,0.25,0.25,1.75,10,initial,36.05,333,351,370,388,0,9,9,9,9,0,,,,,,,0,0,0,0,0,43,43,15,,,,,,,,,,,,num_4,1.3072665999934543,num_4,0.3,0.7,0.3,0.7,11.46165,26.74385,return,1.2210216999810655,,,,,,,,,,,,,,,,,902,19,female,up_down_width,2024-10-11_18h39.59.229,exp1,2023.1.0,59.99487643695273,
,,,,,,,,,,,,,,,,5,9,9.5,10,10.5,11,0.5,0.25,0.25,2.25,10,initial,36.05,324,342,361,379,397,9,9,9,9,9,,,,,,,0,0,0,0,0,44,44,21,,,,,,,,,,,,num_5,1.3196541000215802,num_5,0.4,1.1,0.15000000000000008,0.55,5.73083,21.01303,return,5.275569199991878,,,,,,,,,,,,,,,,,902,19,female,up_down_width,2024-10-11_18h39.59.229,exp1,2023.1.0,59.99487643695273,
,,,,,,,,,,,,,,,,3,9.5,10,10.5,0,0,0.5,0.25,0.25,1.25,10,initial,36.05,342,361,379,0,0,9,9,9,0,0,,,,,,,0,0,0,0,0,45,45,31,,,,,,,,,,,,num_3,1.4517388999811374,num_3,0.2,1.1,0.2,0.7,7.6411,26.74385,return,5.024327899998752,,,,,,,,,,,,,,,,,902,19,female,up_down_width,2024-10-11_18h39.59.229,exp1,2023.1.0,59.99487643695273,
,,,,,,,,,,,,,,,,5,9,9.5,10,10.5,11,0.5,0.25,0.25,2.25,10,initial,36.05,324,342,361,379,397,9,9,9,9,9,,,,,,,0,0,0,0,0,46,46,18,,,,,,,,,,,,num_5,1.2251516999967862,num_5,0.25,0.8,0.2,0.65,7.6411,24.83358,return,3.6346710000070743,,,,,,,,,,,,,,,,,902,19,female,up_down_width,2024-10-11_18h39.59.229,exp1,2023.1.0,59.99487643695273,
,,,,,,,,,,,,,,,,4,9.25,9.75,10.25,10.75,0,0.5,0.25,0.25,1.75,10,initial,36.05,333,351,370,388,0,9,9,9,9,0,,,,,,,0,0,0,0,0,47,47,36,,,,,,,,,,,,num_4,1.1541889999934938,num_4,0.3,0.9,0.2,0.8,7.6411,30.5644,return,4.940490599983605,,,,,,,,,,,,,,,,,902,19,female,up_down_width,2024-10-11_18h39.59.229,exp1,2023.1.0,59.99487643695273,
,,,,,,,,,,,,,,,,5,9,9.5,10,10.5,11,0.5,0.25,0.25,2.25,10,initial,36.05,324,342,361,379,397,9,9,9,9,9,,,,,,,0,0,0,0,0,48,48,49,,,,,,,,,,,,num_5,1.299316099990392,num_5,0.5,1.1,0.25000000000000006,0.7,9.55138,26.74385,return,4.074863300018478,,,,,,,,,,,,,,,,,902,19,female,up_down_width,2024-10-11_18h39.59.229,exp1,2023.1.0,59.99487643695273,
,,,,,,,,,,,,,,,,4,9.25,9.75,10.25,10.75,0,0.5,0.25,0.25,1.75,10,initial,36.05,333,351,370,388,0,9,9,9,9,0,,,,,,,0,0,0,0,0,49,49,14,,,,,,,,,,,,num_4,1.7150870999903418,num_4,0.25,1.3,0.25,0.7,9.55138,26.74385,return,2.1666022000135854,,,,,,,,,,,,,,,,,902,19,female,up_down_width,2024-10-11_18h39.59.229,exp1,2023.1.0,59.99487643695273,
,,,,,,,,,,,,,,,,3,9.5,10,10.5,0,0,0.5,0.25,0.25,1.25,10,initial,36.05,342,361,379,0,0,9,9,9,0,0,,,,,,,0,0,0,0,0,50,50,32,,,,,,,,,,,,num_3,1.8694981999869924,num_3,0.35,0.9,0.2,0.85,7.6411,32.47468,return,2.380051899992395,,,,,,,,,,,,,,,,,902,19,female,up_down_width,2024-10-11_18h39.59.229,exp1,2023.1.0,59.99487643695273,
,,,,,,,,,,,,,,,,5,9,9.5,10,10.5,11,0.5,0.25,0.25,2.25,10,initial,36.05,324,342,361,379,397,9,9,9,9,9,,,,,,,0,0,0,0,0,51,51,19,,,,,,,,,,,,num_5,1.2198547000007238,num_5,0.4,1.0,0.20000000000000007,0.65,7.6411,24.83358,return,3.4674035999923944,,,,,,,,,,,,,,,,,902,19,female,up_down_width,2024-10-11_18h39.59.229,exp1,2023.1.0,59.99487643695273,
,,,,,,,,,,,,,,,,3,9.5,10,10.5,0,0,0.5,0.25,0.25,1.25,10,initial,36.05,342,361,379,0,0,9,9,9,0,0,,,,,,,0,0,0,0,0,52,52,35,,,,,,,,,,,,num_3,1.375570499978494,num_3,0.2,0.5,0.2,0.5,7.6411,19.10275,return,1.123993099987274,,,,,,,,,,,,,,,,,902,19,female,up_down_width,2024-10-11_18h39.59.229,exp1,2023.1.0,59.99487643695273,
,,,,,,,,,,,,,,,,4,9.25,9.75,10.25,10.75,0,0.5,0.25,0.25,1.75,10,initial,36.05,333,351,370,388,0,9,9,9,9,0,,,,,,,0,0,0,0,0,53,53,43,,,,,,,,,,,,num_4,1.1160093999933451,num_4,0.2,1.2,0.2,0.6,7.6411,22.9233,return,1.9466205000062473,,,,,,,,,,,,,,,,,902,19,female,up_down_width,2024-10-11_18h39.59.229,exp1,2023.1.0,59.99487643695273,
,,,,,,,,,,,,,,,,,,,,,,,,,,,,,,,,,,,,,,,,,,,,,0,0,0,0,,,,,,,,,,,,,,,,,,,,,,,,,,,,,752.2486915999907,752.2486915999907,752.2486915999907,,,,,,,,,,,,902,19,female,up_down_width,2024-10-11_18h39.59.229,exp1,2023.1.0,59.99487643695273,
,,,,,,,,,,,,,,,,4,8.65,9.55,10.45,11.35,0,0.9,0.35,0.55,3.25,10,initial,36.05,312,344,377,409,0,9,9,9,9,0,,,,,,,1,0,1,0,0,0,0,36,,,,,,,,,,,,num_4,1.454265399981523,num_4,0.35,1.2,0.49999999999999994,1.0,19.10275,38.2055,return,3.2450570999935735,,,,,,,,,,,,,,,,,902,19,female,up_down_width,2024-10-11_18h39.59.229,exp1,2023.1.0,59.99487643695273,
,,,,,,,,,,,,,,,,4,8.65,9.55,10.45,11.35,0,0.9,0.35,0.55,3.25,10,initial,36.05,312,344,377,409,0,9,9,9,9,0,,,,,,,1,0,1,0,0,1,1,43,,,,,,,,,,,,num_4,1.2313350999902468,num_4,0.2,0.9,0.44999999999999996,0.9,17.19248,34.38495,return,2.3490479000029154,,,,,,,,,,,,,,,,,902,19,female,up_down_width,2024-10-11_18h39.59.229,exp1,2023.1.0,59.99487643695273,
,,,,,,,,,,,,,,,,5,8.2,9.1,10,10.9,11.8,0.9,0.35,0.55,4.15,10,initial,36.05,296,328,361,393,425,9,9,9,9,9,,,,,,,1,0,1,0,0,2,2,45,,,,,,,,,,,,num_5,1.1707812999957241,num_5,0.3,0.4,0.39999999999999997,0.9,15.2822,34.38495,return,5.595656199991936,,,,,,,,,,,,,,,,,902,19,female,up_down_width,2024-10-11_18h39.59.229,exp1,2023.1.0,59.99487643695273,
,,,,,,,,,,,,,,,,5,8.2,9.1,10,10.9,11.8,0.9,0.35,0.55,4.15,10,initial,36.05,296,328,361,393,425,9,9,9,9,9,,,,,,,1,0,1,0,0,3,3,23,,,,,,,,,,,,num_5,1.1564055999915581,num_5,0.25,0.3,0.44999999999999996,0.9,17.19248,34.38495,return,4.527680800005328,,,,,,,,,,,,,,,,,902,19,female,up_down_width,2024-10-11_18h39.59.229,exp1,2023.1.0,59.99487643695273,
,,,,,,,,,,,,,,,,4,8.65,9.55,10.45,11.35,0,0.9,0.35,0.55,3.25,10,initial,36.05,312,344,377,409,0,9,9,9,9,0,,,,,,,1,0,1,0,0,4,4,39,,,,,,,,,,,,num_4,1.0201470000029076,num_4,0.4,1.2,0.4,1.0,15.2822,38.2055,return,1.550749599991832,,,,,,,,,,,,,,,,,902,19,female,up_down_width,2024-10-11_18h39.59.229,exp1,2023.1.0,59.99487643695273,
,,,,,,,,,,,,,,,,3,9.1,10,10.9,0,0,0.9,0.35,0.55,2.35,10,initial,36.05,328,361,393,0,0,9,9,9,0,0,,,,,,,1,0,1,0,0,5,5,32,,,,,,,,,,,,num_3,1.243665999994846,num_3,0.4,0.5,0.4,0.95,15.2822,36.29523,return,4.41709939998691,,,,,,,,,,,,,,,,,902,19,female,up_down_width,2024-10-11_18h39.59.229,exp1,2023.1.0,59.99487643695273,
,,,,,,,,,,,,,,,,4,8.65,9.55,10.45,11.35,0,0.9,0.35,0.55,3.25,10,initial,36.05,312,344,377,409,0,9,9,9,9,0,,,,,,,1,0,1,0,0,6,6,40,,,,,,,,,,,,num_4,1.192715599987423,num_4,0.3,0.8,0.44999999999999996,0.8,17.19248,30.5644,return,2.680025799985742,,,,,,,,,,,,,,,,,902,19,female,up_down_width,2024-10-11_18h39.59.229,exp1,2023.1.0,59.99487643695273,
,,,,,,,,,,,,,,,,4,8.65,9.55,10.45,11.35,0,0.9,0.35,0.55,3.25,10,initial,36.05,312,344,377,409,0,9,9,9,9,0,,,,,,,1,0,1,0,0,7,7,44,,,,,,,,,,,,num_4,1.0383907000068575,num_4,0.25,0.6,0.49999999999999994,0.9,19.10275,34.38495,return,3.581268200010527,,,,,,,,,,,,,,,,,902,19,female,up_down_width,2024-10-11_18h39.59.229,exp1,2023.1.0,59.99487643695273,
,,,,,,,,,,,,,,,,4,8.65,9.55,10.45,11.35,0,0.9,0.35,0.55,3.25,10,initial,36.05,312,344,377,409,0,9,9,9,9,0,,,,,,,1,0,1,0,0,8,8,42,,,,,,,,,,,,num_4,0.9321202999853995,num_4,0.4,0.7,0.4,0.7,15.2822,26.74385,return,2.6831540999992285,,,,,,,,,,,,,,,,,902,19,female,up_down_width,2024-10-11_18h39.59.229,exp1,2023.1.0,59.99487643695273,
,,,,,,,,,,,,,,,,5,8.2,9.1,10,10.9,11.8,0.9,0.35,0.55,4.15,10,initial,36.05,296,328,361,393,425,9,9,9,9,9,,,,,,,1,0,1,0,0,9,9,51,,,,,,,,,,,,num_5,1.3571278000017628,num_5,0.2,0.8,0.49999999999999994,0.85,19.10275,32.47468,return,4.770048400008818,,,,,,,,,,,,,,,,,902,19,female,up_down_width,2024-10-11_18h39.59.229,exp1,2023.1.0,59.99487643695273,
,,,,,,,,,,,,,,,,5,8.2,9.1,10,10.9,11.8,0.9,0.35,0.55,4.15,10,initial,36.05,296,328,361,393,425,9,9,9,9,9,,,,,,,1,0,1,0,0,10,10,47,,,,,,,,,,,,num_5,1.218768299993826,num_5,0.4,0.9,0.4,0.85,15.2822,32.47468,return,1.3375461999967229,,,,,,,,,,,,,,,,,902,19,female,up_down_width,2024-10-11_18h39.59.229,exp1,2023.1.0,59.99487643695273,
,,,,,,,,,,,,,,,,5,8.2,9.1,10,10.9,11.8,0.9,0.35,0.55,4.15,10,initial,36.05,296,328,361,393,425,9,9,9,9,9,,,,,,,1,0,1,0,0,11,11,53,,,,,,,,,,,,num_5,1.0269683000224177,num_5,0.35,1.3,0.44999999999999996,1.0,17.19248,38.2055,return,2.4497966000053566,,,,,,,,,,,,,,,,,902,19,female,up_down_width,2024-10-11_18h39.59.229,exp1,2023.1.0,59.99487643695273,
,,,,,,,,,,,,,,,,3,9.1,10,10.9,0,0,0.9,0.35,0.55,2.35,10,initial,36.05,328,361,393,0,0,9,9,9,0,0,,,,,,,1,0,1,0,0,12,12,4,,,,,,,,,,,,num_3,1.2091276999854017,num_3,0.2,1,0.44999999999999996,1,17.19248,38.2055,return,1.538864999980433,,,,,,,,,,,,,,,,,902,19,female,up_down_width,2024-10-11_18h39.59.229,exp1,2023.1.0,59.99487643695273,
,,,,,,,,,,,,,,,,3,9.1,10,10.9,0,0,0.9,0.35,0.55,2.35,10,initial,36.05,328,361,393,0,0,9,9,9,0,0,,,,,,,1,0,1,0,0,13,13,35,,,,,,,,,,,,num_3,0.9092419999942649,num_3,0.45,0.8,0.45,1.0,17.19248,38.2055,return,3.1760366999951657,,,,,,,,,,,,,,,,,902,19,female,up_down_width,2024-10-11_18h39.59.229,exp1,2023.1.0,59.99487643695273,
,,,,,,,,,,,,,,,,3,9.1,10,10.9,0,0,0.9,0.35,0.55,2.35,10,initial,36.05,328,361,393,0,0,9,9,9,0,0,,,,,,,1,0,1,0,0,14,14,5,,,,,,,,,,,,num_3,0.9623734999913722,num_3,0.4,1.3,0.4,1.0,15.2822,38.2055,return,1.7305594999925233,,,,,,,,,,,,,,,,,902,19,female,up_down_width,2024-10-11_18h39.59.229,exp1,2023.1.0,59.99487643695273,
,,,,,,,,,,,,,,,,4,8.65,9.55,10.45,11.35,0,0.9,0.35,0.55,3.25,10,initial,36.05,312,344,377,409,0,9,9,9,9,0,,,,,,,1,0,1,0,0,15,15,16,,,,,,,,,,,,num_4,1.1177823999896646,num_4,0.3,1.1,0.44999999999999996,0.9,17.19248,34.38495,return,4.729755999986082,,,,,,,,,,,,,,,,,902,19,female,up_down_width,2024-10-11_18h39.59.229,exp1,2023.1.0,59.99487643695273,
,,,,,,,,,,,,,,,,3,9.1,10,10.9,0,0,0.9,0.35,0.55,2.35,10,initial,36.05,328,361,393,0,0,9,9,9,0,0,,,,,,,1,0,1,0,0,16,16,30,,,,,,,,,,,,num_3,1.0017343999934383,num_3,0.3,1.3,0.44999999999999996,1.1,17.19248,42.02605,return,1.9361051000014413,,,,,,,,,,,,,,,,,902,19,female,up_down_width,2024-10-11_18h39.59.229,exp1,2023.1.0,59.99487643695273,
,,,,,,,,,,,,,,,,4,8.65,9.55,10.45,11.35,0,0.9,0.35,0.55,3.25,10,initial,36.05,312,344,377,409,0,9,9,9,9,0,,,,,,,1,0,1,0,0,17,17,38,,,,,,,,,,,,num_4,0.9861804000101984,num_4,0.5,1.3,0.5,0.9,19.10275,34.38495,return,2.2236474999808706,,,,,,,,,,,,,,,,,902,19,female,up_down_width,2024-10-11_18h39.59.229,exp1,2023.1.0,59.99487643695273,
,,,,,,,,,,,,,,,,3,9.1,10,10.9,0,0,0.9,0.35,0.55,2.35,10,initial,36.05,328,361,393,0,0,9,9,9,0,0,,,,,,,1,0,1,0,0,18,18,31,,,,,,,,,,,,num_3,1.996190799982287,num_3,0.55,1.3,0.4,0.95,15.2822,36.29523,return,2.9147232999966945,,,,,,,,,,,,,,,,,902,19,female,up_down_width,2024-10-11_18h39.59.229,exp1,2023.1.0,59.99487643695273,
,,,,,,,,,,,,,,,,3,9.1,10,10.9,0,0,0.9,0.35,0.55,2.35,10,initial,36.05,328,361,393,0,0,9,9,9,0,0,,,,,,,1,0,1,0,0,19,19,1,,,,,,,,,,,,num_3,1.0476545999699738,num_3,0.3,0.4,0.3,0.8,11.46165,30.5644,return,3.9101388000126462,,,,,,,,,,,,,,,,,902,19,female,up_down_width,2024-10-11_18h39.59.229,exp1,2023.1.0,59.99487643695273,
,,,,,,,,,,,,,,,,3,9.1,10,10.9,0,0,0.9,0.35,0.55,2.35,10,initial,36.05,328,361,393,0,0,9,9,9,0,0,,,,,,,1,0,1,0,0,20,20,8,,,,,,,,,,,,num_3,1.38844350000727,num_3,0.2,1.3,0.39999999999999997,0.95,15.2822,36.29523,return,3.9187742000212893,,,,,,,,,,,,,,,,,902,19,female,up_down_width,2024-10-11_18h39.59.229,exp1,2023.1.0,59.99487643695273,
,,,,,,,,,,,,,,,,5,8.2,9.1,10,10.9,11.8,0.9,0.35,0.55,4.15,10,initial,36.05,296,328,361,393,425,9,9,9,9,9,,,,,,,1,0,1,0,0,21,21,49,,,,,,,,,,,,num_5,1.0228892999875825,num_5,0.2,0.5,0.49999999999999994,1.0,19.10275,38.2055,return,5.476219100004528,,,,,,,,,,,,,,,,,902,19,female,up_down_width,2024-10-11_18h39.59.229,exp1,2023.1.0,59.99487643695273,
,,,,,,,,,,,,,,,,3,9.1,10,10.9,0,0,0.9,0.35,0.55,2.35,10,initial,36.05,328,361,393,0,0,9,9,9,0,0,,,,,,,1,0,1,0,0,22,22,27,,,,,,,,,,,,num_3,1.0746545000001788,num_3,0.2,1.3,0.49999999999999994,1.15,19.10275,43.93633,return,2.6312827999936417,,,,,,,,,,,,,,,,,902,19,female,up_down_width,2024-10-11_18h39.59.229,exp1,2023.1.0,59.99487643695273,
,,,,,,,,,,,,,,,,4,8.65,9.55,10.45,11.35,0,0.9,0.35,0.55,3.25,10,initial,36.05,312,344,377,409,0,9,9,9,9,0,,,,,,,1,0,1,0,0,23,23,37,,,,,,,,,,,,num_4,1.030709399987245,num_4,0.45,1.2,0.45,0.9,17.19248,34.38495,return,1.4187358999915887,,,,,,,,,,,,,,,,,902,19,female,up_down_width,2024-10-11_18h39.59.229,exp1,2023.1.0,59.99487643695273,
,,,,,,,,,,,,,,,,5,8.2,9.1,10,10.9,11.8,0.9,0.35,0.55,4.15,10,initial,36.05,296,328,361,393,425,9,9,9,9,9,,,,,,,1,0,1,0,0,24,24,48,,,,,,,,,,,,num_5,1.0951080000086222,num_5,0.5,0.7,0.35000000000000003,0.85,13.37193,32.47468,return,4.0696484000072815,,,,,,,,,,,,,,,,,902,19,female,up_down_width,2024-10-11_18h39.59.229,exp1,2023.1.0,59.99487643695273,
,,,,,,,,,,,,,,,,3,9.1,10,10.9,0,0,0.9,0.35,0.55,2.35,10,initial,36.05,328,361,393,0,0,9,9,9,0,0,,,,,,,1,0,1,0,0,25,25,28,,,,,,,,,,,,num_3,1.0561876999854576,num_3,0.55,0.9,0.55,0.9,21.01303,34.38495,return,1.1721890000044368,,,,,,,,,,,,,,,,,902,19,female,up_down_width,2024-10-11_18h39.59.229,exp1,2023.1.0,59.99487643695273,
,,,,,,,,,,,,,,,,5,8.2,9.1,10,10.9,11.8,0.9,0.35,0.55,4.15,10,initial,36.05,296,328,361,393,425,9,9,9,9,9,,,,,,,1,0,1,0,0,26,26,25,,,,,,,,,,,,num_5,1.6977448999823537,num_5,0.35,0.8,0.35,0.8,13.37193,30.5644,return,0.9518194000120275,,,,,,,,,,,,,,,,,902,19,female,up_down_width,2024-10-11_18h39.59.229,exp1,2023.1.0,59.99487643695273,
,,,,,,,,,,,,,,,,4,8.65,9.55,10.45,11.35,0,0.9,0.35,0.55,3.25,10,initial,36.05,312,344,377,409,0,9,9,9,9,0,,,,,,,1,0,1,0,0,27,27,17,,,,,,,,,,,,num_4,0.9747444999811705,num_4,0.55,1.2,0.4,0.7,15.2822,26.74385,return,2.870275399996899,,,,,,,,,,,,,,,,,902,19,female,up_down_width,2024-10-11_18h39.59.229,exp1,2023.1.0,59.99487643695273,
,,,,,,,,,,,,,,,,4,8.65,9.55,10.45,11.35,0,0.9,0.35,0.55,3.25,10,initial,36.05,312,344,377,409,0,9,9,9,9,0,,,,,,,1,0,1,0,0,28,28,10,,,,,,,,,,,,num_5,1.8924288999987766,num_5,0.2,0.8,0.35,0.65,13.37193,24.83358,return,2.19553990001441,,,,,,,,,,,,,,,,,902,19,female,up_down_width,2024-10-11_18h39.59.229,exp1,2023.1.0,59.99487643695273,
,,,,,,,,,,,,,,,,3,9.1,10,10.9,0,0,0.9,0.35,0.55,2.35,10,initial,36.05,328,361,393,0,0,9,9,9,0,0,,,,,,,1,0,1,0,0,29,29,29,,,,,,,,,,,,num_3,0.9473421000002418,num_3,0.35,0.9,0.5499999999999999,0.9,21.01303,34.38495,return,1.5283198000106495,,,,,,,,,,,,,,,,,902,19,female,up_down_width,2024-10-11_18h39.59.229,exp1,2023.1.0,59.99487643695273,
,,,,,,,,,,,,,,,,5,8.2,9.1,10,10.9,11.8,0.9,0.35,0.55,4.15,10,initial,36.05,296,328,361,393,425,9,9,9,9,9,,,,,,,1,0,1,0,0,30,30,18,,,,,,,,,,,,num_5,0.9930705000006128,num_5,0.5,0.9,0.5,0.9,19.10275,34.38495,return,1.0250994999951217,,,,,,,,,,,,,,,,,902,19,female,up_down_width,2024-10-11_18h39.59.229,exp1,2023.1.0,59.99487643695273,
,,,,,,,,,,,,,,,,3,9.1,10,10.9,0,0,0.9,0.35,0.55,2.35,10,initial,36.05,328,361,393,0,0,9,9,9,0,0,,,,,,,1,0,1,0,0,31,31,7,,,,,,,,,,,,num_2,1.1673738999816123,num_2,0.55,1.6,0.55,1.0,21.01303,38.2055,return,1.9161637999932282,,,,,,,,,,,,,,,,,902,19,female,up_down_width,2024-10-11_18h39.59.229,exp1,2023.1.0,59.99487643695273,
,,,,,,,,,,,,,,,,4,8.65,9.55,10.45,11.35,0,0.9,0.35,0.55,3.25,10,initial,36.05,312,344,377,409,0,9,9,9,9,0,,,,,,,1,0,1,0,0,32,32,41,,,,,,,,,,,,num_4,1.0197556000202894,num_4,0.5,1.3,0.45,0.8,17.19248,30.5644,return,2.1777235999761615,,,,,,,,,,,,,,,,,902,19,female,up_down_width,2024-10-11_18h39.59.229,exp1,2023.1.0,59.99487643695273,
,,,,,,,,,,,,,,,,3,9.1,10,10.9,0,0,0.9,0.35,0.55,2.35,10,initial,36.05,328,361,393,0,0,9,9,9,0,0,,,,,,,1,0,1,0,0,33,33,34,,,,,,,,,,,,num_3,1.4478335000167135,num_3,0.45,1.1,0.4,0.9,15.2822,34.38495,return,1.718965300009586,,,,,,,,,,,,,,,,,902,19,female,up_down_width,2024-10-11_18h39.59.229,exp1,2023.1.0,59.99487643695273,
,,,,,,,,,,,,,,,,5,8.2,9.1,10,10.9,11.8,0.9,0.35,0.55,4.15,10,initial,36.05,296,328,361,393,425,9,9,9,9,9,,,,,,,1,0,1,0,0,34,34,50,,,,,,,,,,,,num_6,1.4577291999885347,num_6,0.45,0.9,0.4,0.8,15.2822,30.5644,return,1.989478900009999,,,,,,,,,,,,,,,,,902,19,female,up_down_width,2024-10-11_18h39.59.229,exp1,2023.1.0,59.99487643695273,
,,,,,,,,,,,,,,,,5,8.2,9.1,10,10.9,11.8,0.9,0.35,0.55,4.15,10,initial,36.05,296,328,361,393,425,9,9,9,9,9,,,,,,,1,0,1,0,0,35,35,52,,,,,,,,,,,,num_6,1.2730043999908958,num_6,0.4,1.1,0.35000000000000003,0.7,13.37193,26.74385,return,2.0531353999977,,,,,,,,,,,,,,,,,902,19,female,up_down_width,2024-10-11_18h39.59.229,exp1,2023.1.0,59.99487643695273,
,,,,,,,,,,,,,,,,3,9.1,10,10.9,0,0,0.9,0.35,0.55,2.35,10,initial,36.05,328,361,393,0,0,9,9,9,0,0,,,,,,,1,0,1,0,0,36,36,33,,,,,,,,,,,,num_3,1.3383966000110377,num_3,0.3,1.1,0.35,0.8,13.37193,30.5644,return,3.602952599991113,,,,,,,,,,,,,,,,,902,19,female,up_down_width,2024-10-11_18h39.59.229,exp1,2023.1.0,59.99487643695273,
,,,,,,,,,,,,,,,,3,9.1,10,10.9,0,0,0.9,0.35,0.55,2.35,10,initial,36.05,328,361,393,0,0,9,9,9,0,0,,,,,,,1,0,1,0,0,37,37,2,,,,,,,,,,,,num_3,1.141457799996715,num_3,0.55,1.3,0.4,1.0,15.2822,38.2055,return,3.026517699996475,,,,,,,,,,,,,,,,,902,19,female,up_down_width,2024-10-11_18h39.59.229,exp1,2023.1.0,59.99487643695273,
,,,,,,,,,,,,,,,,3,9.1,10,10.9,0,0,0.9,0.35,0.55,2.35,10,initial,36.05,328,361,393,0,0,9,9,9,0,0,,,,,,,1,0,1,0,0,38,38,3,,,,,,,,,,,,num_3,1.4288531999918632,num_3,0.25,0.5,0.39999999999999997,0.8,15.2822,30.5644,return,5.076954499993008,,,,,,,,,,,,,,,,,902,19,female,up_down_width,2024-10-11_18h39.59.229,exp1,2023.1.0,59.99487643695273,
,,,,,,,,,,,,,,,,4,8.65,9.55,10.45,11.35,0,0.9,0.35,0.55,3.25,10,initial,36.05,312,344,377,409,0,9,9,9,9,0,,,,,,,1,0,1,0,0,39,39,11,,,,,,,,,,,,num_4,1.0884560999984387,num_4,0.5,0.6,0.45,1.0,17.19248,38.2055,return,7.1796659999818075,,,,,,,,,,,,,,,,,902,19,female,up_down_width,2024-10-11_18h39.59.229,exp1,2023.1.0,59.99487643695273,
,,,,,,,,,,,,,,,,4,8.65,9.55,10.45,11.35,0,0.9,0.35,0.55,3.25,10,initial,36.05,312,344,377,409,0,9,9,9,9,0,,,,,,,1,0,1,0,0,40,40,13,,,,,,,,,,,,num_4,1.2917992000002414,num_4,0.3,0.9,0.44999999999999996,0.9,17.19248,34.38495,return,2.8811365000146907,,,,,,,,,,,,,,,,,902,19,female,up_down_width,2024-10-11_18h39.59.229,exp1,2023.1.0,59.99487643695273,
,,,,,,,,,,,,,,,,5,8.2,9.1,10,10.9,11.8,0.9,0.35,0.55,4.15,10,initial,36.05,296,328,361,393,425,9,9,9,9,9,,,,,,,1,0,1,0,0,41,41,20,,,,,,,,,,,,num_5,1.0116119999729563,num_5,0.25,1.3,0.39999999999999997,0.95,15.2822,36.29523,return,2.5844399000052363,,,,,,,,,,,,,,,,,902,19,female,up_down_width,2024-10-11_18h39.59.229,exp1,2023.1.0,59.99487643695273,
,,,,,,,,,,,,,,,,5,8.2,9.1,10,10.9,11.8,0.9,0.35,0.55,4.15,10,initial,36.05,296,328,361,393,425,9,9,9,9,9,,,,,,,1,0,1,0,0,42,42,26,,,,,,,,,,,,num_5,1.0612075999961235,num_5,0.35,1.0,0.44999999999999996,0.85,17.19248,32.47468,return,1.8417714000097476,,,,,,,,,,,,,,,,,902,19,female,up_down_width,2024-10-11_18h39.59.229,exp1,2023.1.0,59.99487643695273,
,,,,,,,,,,,,,,,,5,8.2,9.1,10,10.9,11.8,0.9,0.35,0.55,4.15,10,initial,36.05,296,328,361,393,425,9,9,9,9,9,,,,,,,1,0,1,0,0,43,43,24,,,,,,,,,,,,num_5,1.2086776999931317,num_5,0.4,1.3,0.35000000000000003,0.75,13.37193,28.65413,return,3.143001299991738,,,,,,,,,,,,,,,,,902,19,female,up_down_width,2024-10-11_18h39.59.229,exp1,2023.1.0,59.99487643695273,
,,,,,,,,,,,,,,,,5,8.2,9.1,10,10.9,11.8,0.9,0.35,0.55,4.15,10,initial,36.05,296,328,361,393,425,9,9,9,9,9,,,,,,,1,0,1,0,0,44,44,22,,,,,,,,,,,,num_5,1.2130844999919645,num_5,0.55,0.8,0.45,0.8,17.19248,30.5644,return,1.9273618999868631,,,,,,,,,,,,,,,,,902,19,female,up_down_width,2024-10-11_18h39.59.229,exp1,2023.1.0,59.99487643695273,
,,,,,,,,,,,,,,,,4,8.65,9.55,10.45,11.35,0,0.9,0.35,0.55,3.25,10,initial,36.05,312,344,377,409,0,9,9,9,9,0,,,,,,,1,0,1,0,0,45,45,14,,,,,,,,,,,,num_4,1.1426096000068355,num_4,0.25,1.2,0.44999999999999996,1.0,17.19248,38.2055,return,3.6505371000093874,,,,,,,,,,,,,,,,,902,19,female,up_down_width,2024-10-11_18h39.59.229,exp1,2023.1.0,59.99487643695273,
,,,,,,,,,,,,,,,,5,8.2,9.1,10,10.9,11.8,0.9,0.35,0.55,4.15,10,initial,36.05,296,328,361,393,425,9,9,9,9,9,,,,,,,1,0,1,0,0,46,46,21,,,,,,,,,,,,num_5,1.2473418999870773,num_5,0.45,0.7,0.45,0.7,17.19248,26.74385,return,0.9401004000101238,,,,,,,,,,,,,,,,,902,19,female,up_down_width,2024-10-11_18h39.59.229,exp1,2023.1.0,59.99487643695273,
,,,,,,,,,,,,,,,,4,8.65,9.55,10.45,11.35,0,0.9,0.35,0.55,3.25,10,initial,36.05,312,344,377,409,0,9,9,9,9,0,,,,,,,1,0,1,0,0,47,47,9,,,,,,,,,,,,num_4,0.9384900000004563,num_4,0.4,0.9,0.4,0.9,15.2822,34.38495,return,1.3322759000002407,,,,,,,,,,,,,,,,,902,19,female,up_down_width,2024-10-11_18h39.59.229,exp1,2023.1.0,59.99487643695273,
,,,,,,,,,,,,,,,,3,9.1,10,10.9,0,0,0.9,0.35,0.55,2.35,10,initial,36.05,328,361,393,0,0,9,9,9,0,0,,,,,,,1,0,1,0,0,48,48,0,,,,,,,,,,,,num_3,1.6009620999975596,num_3,0.35,1.1,0.39999999999999997,0.9,15.2822,34.38495,return,2.169422599981772,,,,,,,,,,,,,,,,,902,19,female,up_down_width,2024-10-11_18h39.59.229,exp1,2023.1.0,59.99487643695273,
,,,,,,,,,,,,,,,,4,8.65,9.55,10.45,11.35,0,0.9,0.35,0.55,3.25,10,initial,36.05,312,344,377,409,0,9,9,9,9,0,,,,,,,1,0,1,0,0,49,49,12,,,,,,,,,,,,num_4,1.0195527999894693,num_4,0.4,1.0,0.45,0.8,17.19248,30.5644,return,2.4824460000090767,,,,,,,,,,,,,,,,,902,19,female,up_down_width,2024-10-11_18h39.59.229,exp1,2023.1.0,59.99487643695273,
,,,,,,,,,,,,,,,,5,8.2,9.1,10,10.9,11.8,0.9,0.35,0.55,4.15,10,initial,36.05,296,328,361,393,425,9,9,9,9,9,,,,,,,1,0,1,0,0,50,50,19,,,,,,,,,,,,num_5,1.0351292999694124,num_5,0.55,1.1,0.35000000000000003,0.85,13.37193,32.47468,return,2.9110931000031997,,,,,,,,,,,,,,,,,902,19,female,up_down_width,2024-10-11_18h39.59.229,exp1,2023.1.0,59.99487643695273,
,,,,,,,,,,,,,,,,5,8.2,9.1,10,10.9,11.8,0.9,0.35,0.55,4.15,10,initial,36.05,296,328,361,393,425,9,9,9,9,9,,,,,,,1,0,1,0,0,51,51,46,,,,,,,,,,,,num_5,1.0374187999987043,num_5,0.55,0.6,0.30000000000000004,0.8,11.46165,30.5644,return,6.018942800001241,,,,,,,,,,,,,,,,,902,19,female,up_down_width,2024-10-11_18h39.59.229,exp1,2023.1.0,59.99487643695273,
,,,,,,,,,,,,,,,,4,8.65,9.55,10.45,11.35,0,0.9,0.35,0.55,3.25,10,initial,36.05,312,344,377,409,0,9,9,9,9,0,,,,,,,1,0,1,0,0,52,52,15,,,,,,,,,,,,num_4,1.1297583999985363,num_4,0.4,0.7,0.4,1.0,15.2822,38.2055,return,1.7849500000011176,,,,,,,,,,,,,,,,,902,19,female,up_down_width,2024-10-11_18h39.59.229,exp1,2023.1.0,59.99487643695273,
,,,,,,,,,,,,,,,,3,9.1,10,10.9,0,0,0.9,0.35,0.55,2.35,10,initial,36.05,328,361,393,0,0,9,9,9,0,0,,,,,,,1,0,1,0,0,53,53,6,,,,,,,,,,,,num_3,1.149526999972295,num_3,0.55,1.2,0.55,1.05,21.01303,40.11578,return,1.6301545000169426,,,,,,,,,,,,,,,,,902,19,female,up_down_width,2024-10-11_18h39.59.229,exp1,2023.1.0,59.99487643695273,
,,,,,,,,,,,,,,,,,,,,,,,,,,,,,,,,,,,,,,,,,,,,,1,0,1,0,,,,,,,,,,,,,,,,,,,,,,,,,,,,,1107.9312787999806,1107.9312787999806,1107.9312787999806,,,,,,,,,,,,902,19,female,up_down_width,2024-10-11_18h39.59.229,exp1,2023.1.0,59.99487643695273,
,,,,,,,,,,,,,,,,5,9,9.5,10,10.5,11,0.5,0.1,0.4,2.4,10,initial,36.05,324,342,361,379,397,9,9,9,9,9,,,,,,,2,0,2,0,0,0,0,22,,,,,,,,,,,,num_4,1.1238451999961399,num_4,0.25,0.4,0.44999999999999996,0.6,17.19248,22.9233,return,4.433363699994516,,,,,,,,,,,,,,,,,902,19,female,up_down_width,2024-10-11_18h39.59.229,exp1,2023.1.0,59.99487643695273,
,,,,,,,,,,,,,,,,5,9,9.5,10,10.5,11,0.5,0.1,0.4,2.4,10,initial,36.05,324,342,361,379,397,9,9,9,9,9,,,,,,,2,0,2,0,0,1,1,52,,,,,,,,,,,,num_4,1.3076363000145648,num_4,0.25,1.1,0.25,0.5,9.55138,19.10275,return,2.566007199988235,,,,,,,,,,,,,,,,,902,19,female,up_down_width,2024-10-11_18h39.59.229,exp1,2023.1.0,59.99487643695273,
,,,,,,,,,,,,,,,,5,9,9.5,10,10.5,11,0.5,0.1,0.4,2.4,10,initial,36.05,324,342,361,379,397,9,9,9,9,9,,,,,,,2,0,2,0,0,2,2,48,,,,,,,,,,,,num_4,1.792507400008617,num_4,0.2,0.9,0.44999999999999996,0.7,17.19248,26.74385,return,2.690395499987062,,,,,,,,,,,,,,,,,902,19,female,up_down_width,2024-10-11_18h39.59.229,exp1,2023.1.0,59.99487643695273,
,,,,,,,,,,,,,,,,5,9,9.5,10,10.5,11,0.5,0.1,0.4,2.4,10,initial,36.05,324,342,361,379,397,9,9,9,9,9,,,,,,,2,0,2,0,0,3,3,49,,,,,,,,,,,,num_4,1.203168200008804,num_4,0.3,0.3,0.35,0.6,13.37193,22.9233,return,4.714972200017655,,,,,,,,,,,,,,,,,902,19,female,up_down_width,2024-10-11_18h39.59.229,exp1,2023.1.0,59.99487643695273,
,,,,,,,,,,,,,,,,5,9,9.5,10,10.5,11,0.5,0.1,0.4,2.4,10,initial,36.05,324,342,361,379,397,9,9,9,9,9,,,,,,,2,0,2,0,0,4,4,47,,,,,,,,,,,,num_5,1.0195105000166222,num_5,0.45,1.1,0.25000000000000006,0.5,9.55138,19.10275,return,6.2389416999940295,,,,,,,,,,,,,,,,,902,19,female,up_down_width,2024-10-11_18h39.59.229,exp1,2023.1.0,59.99487643695273,
,,,,,,,,,,,,,,,,4,9.25,9.75,10.25,10.75,0,0.5,0.1,0.4,1.9000000000000001,10,initial,36.05,333,351,370,388,0,9,9,9,9,0,,,,,,,2,0,2,0,0,5,5,9,,,,,,,,,,,,num_3,1.3134350999898743,num_3,0.2,1.2,0.3,0.65,11.46165,24.83358,return,4.507563199993456,,,,,,,,,,,,,,,,,902,19,female,up_down_width,2024-10-11_18h39.59.229,exp1,2023.1.0,59.99487643695273,
,,,,,,,,,,,,,,,,3,9.5,10,10.5,0,0,0.5,0.1,0.4,1.4000000000000001,10,initial,36.05,342,361,379,0,0,9,9,9,0,0,,,,,,,2,0,2,0,0,6,6,5,,,,,,,,,,,,num_3,1.146488300000783,num_3,0.25,0.9,0.3,0.45,11.46165,17.19248,return,5.527705200016499,,,,,,,,,,,,,,,,,902,19,female,up_down_width,2024-10-11_18h39.59.229,exp1,2023.1.0,59.99487643695273,
,,,,,,,,,,,,,,,,5,9,9.5,10,10.5,11,0.5,0.1,0.4,2.4,10,initial,36.05,324,342,361,379,397,9,9,9,9,9,,,,,,,2,0,2,0,0,7,7,53,,,,,,,,,,,,num_4,1.2121774000115693,num_4,0.55,1.3,0.35000000000000003,0.6,13.37193,22.9233,return,3.7982673999795225,,,,,,,,,,,,,,,,,902,19,female,up_down_width,2024-10-11_18h39.59.229,exp1,2023.1.0,59.99487643695273,
,,,,,,,,,,,,,,,,3,9.5,10,10.5,0,0,0.5,0.1,0.4,1.4000000000000001,10,initial,36.05,342,361,379,0,0,9,9,9,0,0,,,,,,,2,0,2,0,0,8,8,27,,,,,,,,,,,,num_3,1.259878499986371,num_3,0.55,0.9,0.25000000000000006,0.4,9.55138,15.2822,return,4.4718152999994345,,,,,,,,,,,,,,,,,902,19,female,up_down_width,2024-10-11_18h39.59.229,exp1,2023.1.0,59.99487643695273,
,,,,,,,,,,,,,,,,4,9.25,9.75,10.25,10.75,0,0.5,0.1,0.4,1.9000000000000001,10,initial,36.05,333,351,370,388,0,9,9,9,9,0,,,,,,,2,0,2,0,0,9,9,17,,,,,,,,,,,,num_3,1.0201818000059575,num_3,0.25,0.3,0.49999999999999994,0.75,19.10275,28.65413,return,4.334749499976169,,,,,,,,,,,,,,,,,902,19,female,up_down_width,2024-10-11_18h39.59.229,exp1,2023.1.0,59.99487643695273,
,,,,,,,,,,,,,,,,5,9,9.5,10,10.5,11,0.5,0.1,0.4,2.4,10,initial,36.05,324,342,361,379,397,9,9,9,9,9,,,,,,,2,0,2,0,0,10,10,51,,,,,,,,,,,,num_4,0.926697899994906,num_4,0.4,1.3,0.4,0.6,15.2822,22.9233,return,3.0599175000097603,,,,,,,,,,,,,,,,,902,19,female,up_down_width,2024-10-11_18h39.59.229,exp1,2023.1.0,59.99487643695273,
,,,,,,,,,,,,,,,,3,9.5,10,10.5,0,0,0.5,0.1,0.4,1.4000000000000001,10,initial,36.05,342,361,379,0,0,9,9,9,0,0,,,,,,,2,0,2,0,0,11,11,6,,,,,,,,,,,,num_3,1.4829202000109944,num_3,0.55,1,0.4,0.7,15.2822,26.74385,return,3.9825355999928433,,,,,,,,,,,,,,,,,902,19,female,up_down_width,2024-10-11_18h39.59.229,exp1,2023.1.0,59.99487643695273,
,,,,,,,,,,,,,,,,3,9.5,10,10.5,0,0,0.5,0.1,0.4,1.4000000000000001,10,initial,36.05,342,361,379,0,0,9,9,9,0,0,,,,,,,2,0,2,0,0,12,12,7,,,,,,,,,,,,num_3,3.432974399998784,num_3,0.3,1,0.3,0.6,11.46165,22.9233,return,4.013644099992234,,,,,,,,,,,,,,,,,902,19,female,up_down_width,2024-10-11_18h39.59.229,exp1,2023.1.0,59.99487643695273,
,,,,,,,,,,,,,,,,3,9.5,10,10.5,0,0,0.5,0.1,0.4,1.4000000000000001,10,initial,36.05,342,361,379,0,0,9,9,9,0,0,,,,,,,2,0,2,0,0,13,13,0,,,,,,,,,,,,num_3,1.4949626000015996,num_3,0.5,1,0.30000000000000004,0.55,11.46165,21.01303,return,3.4994277000078,,,,,,,,,,,,,,,,,902,19,female,up_down_width,2024-10-11_18h39.59.229,exp1,2023.1.0,59.99487643695273,
,,,,,,,,,,,,,,,,4,9.25,9.75,10.25,10.75,0,0.5,0.1,0.4,1.9000000000000001,10,initial,36.05,333,351,370,388,0,9,9,9,9,0,,,,,,,2,0,2,0,0,14,14,37,,,,,,,,,,,,num_3,1.7077095000131521,num_3,0.2,0.9,0.39999999999999997,0.6,15.2822,22.9233,return,2.965625500015449,,,,,,,,,,,,,,,,,902,19,female,up_down_width,2024-10-11_18h39.59.229,exp1,2023.1.0,59.99487643695273,
,,,,,,,,,,,,,,,,3,9.5,10,10.5,0,0,0.5,0.1,0.4,1.4000000000000001,10,initial,36.05,342,361,379,0,0,9,9,9,0,0,,,,,,,2,0,2,0,0,15,15,8,,,,,,,,,,,,num_3,1.1751399000058882,num_3,0.2,0.8,0.39999999999999997,0.55,15.2822,21.01303,return,2.642934100003913,,,,,,,,,,,,,,,,,902,19,female,up_down_width,2024-10-11_18h39.59.229,exp1,2023.1.0,59.99487643695273,
,,,,,,,,,,,,,,,,5,9,9.5,10,10.5,11,0.5,0.1,0.4,2.4,10,initial,36.05,324,342,361,379,397,9,9,9,9,9,,,,,,,2,0,2,0,0,16,16,45,,,,,,,,,,,,num_4,1.2150135000119917,num_4,0.4,0.8,0.25000000000000006,0.5,9.55138,19.10275,return,2.152472999994643,,,,,,,,,,,,,,,,,902,19,female,up_down_width,2024-10-11_18h39.59.229,exp1,2023.1.0,59.99487643695273,
,,,,,,,,,,,,,,,,5,9,9.5,10,10.5,11,0.5,0.1,0.4,2.4,10,initial,36.05,324,342,361,379,397,9,9,9,9,9,,,,,,,2,0,2,0,0,17,17,46,,,,,,,,,,,,num_5,1.167370299983304,num_5,0.5,1.1,0.30000000000000004,0.6,11.46165,22.9233,return,5.054158799990546,,,,,,,,,,,,,,,,,902,19,female,up_down_width,2024-10-11_18h39.59.229,exp1,2023.1.0,59.99487643695273,
,,,,,,,,,,,,,,,,4,9.25,9.75,10.25,10.75,0,0.5,0.1,0.4,1.9000000000000001,10,initial,36.05,333,351,370,388,0,9,9,9,9,0,,,,,,,2,0,2,0,0,18,18,13,,,,,,,,,,,,num_3,3.525710399990203,num_3,0.3,0.7,0.49999999999999994,0.7,19.10275,26.74385,return,2.4876239000004716,,,,,,,,,,,,,,,,,902,19,female,up_down_width,2024-10-11_18h39.59.229,exp1,2023.1.0,59.99487643695273,
,,,,,,,,,,,,,,,,4,9.25,9.75,10.25,10.75,0,0.5,0.1,0.4,1.9000000000000001,10,initial,36.05,333,351,370,388,0,9,9,9,9,0,,,,,,,2,0,2,0,0,19,19,41,,,,,,,,,,,,num_4,1.2276837000099476,num_4,0.3,0.9,0.3,0.6,11.46165,22.9233,return,3.766196199983824,,,,,,,,,,,,,,,,,902,19,female,up_down_width,2024-10-11_18h39.59.229,exp1,2023.1.0,59.99487643695273,
,,,,,,,,,,,,,,,,5,9,9.5,10,10.5,11,0.5,0.1,0.4,2.4,10,initial,36.05,324,342,361,379,397,9,9,9,9,9,,,,,,,2,0,2,0,0,20,20,50,,,,,,,,,,,,num_5,1.5311555000080261,num_5,0.35,1.2,0.35,0.5,13.37193,19.10275,return,3.804325199977029,,,,,,,,,,,,,,,,,902,19,female,up_down_width,2024-10-11_18h39.59.229,exp1,2023.1.0,59.99487643695273,
,,,,,,,,,,,,,,,,4,9.25,9.75,10.25,10.75,0,0.5,0.1,0.4,1.9000000000000001,10,initial,36.05,333,351,370,388,0,9,9,9,9,0,,,,,,,2,0,2,0,0,21,21,14,,,,,,,,,,,,num_5,1.701127699983772,num_5,0.3,0.5,0.3,0.5,11.46165,19.10275,return,1.9509569000219926,,,,,,,,,,,,,,,,,902,19,female,up_down_width,2024-10-11_18h39.59.229,exp1,2023.1.0,59.99487643695273,
,,,,,,,,,,,,,,,,3,9.5,10,10.5,0,0,0.5,0.1,0.4,1.4000000000000001,10,initial,36.05,342,361,379,0,0,9,9,9,0,0,,,,,,,2,0,2,0,0,22,22,3,,,,,,,,,,,,num_3,1.2725679999857675,num_3,0.55,0.6,0.35000000000000003,0.7,13.37193,26.74385,return,4.321963700000197,,,,,,,,,,,,,,,,,902,19,female,up_down_width,2024-10-11_18h39.59.229,exp1,2023.1.0,59.99487643695273,
,,,,,,,,,,,,,,,,5,9,9.5,10,10.5,11,0.5,0.1,0.4,2.4,10,initial,36.05,324,342,361,379,397,9,9,9,9,9,,,,,,,2,0,2,0,0,23,23,26,,,,,,,,,,,,num_4,1.2019105000072159,num_4,0.25,0.3,0.6,0.8,22.9233,30.5644,return,4.827183999994304,,,,,,,,,,,,,,,,,902,19,female,up_down_width,2024-10-11_18h39.59.229,exp1,2023.1.0,59.99487643695273,
,,,,,,,,,,,,,,,,5,9,9.5,10,10.5,11,0.5,0.1,0.4,2.4,10,initial,36.05,324,342,361,379,397,9,9,9,9,9,,,,,,,2,0,2,0,0,24,24,19,,,,,,,,,,,,num_5,1.0139954999904148,num_5,0.55,1.3,0.30000000000000004,0.55,11.46165,21.01303,return,5.815874199994141,,,,,,,,,,,,,,,,,902,19,female,up_down_width,2024-10-11_18h39.59.229,exp1,2023.1.0,59.99487643695273,
,,,,,,,,,,,,,,,,3,9.5,10,10.5,0,0,0.5,0.1,0.4,1.4000000000000001,10,initial,36.05,342,361,379,0,0,9,9,9,0,0,,,,,,,2,0,2,0,0,25,25,1,,,,,,,,,,,,num_3,1.2288190000108443,num_3,0.4,1,0.4,0.65,15.2822,24.83358,return,6.3266456999699585,,,,,,,,,,,,,,,,,902,19,female,up_down_width,2024-10-11_18h39.59.229,exp1,2023.1.0,59.99487643695273,
,,,,,,,,,,,,,,,,5,9,9.5,10,10.5,11,0.5,0.1,0.4,2.4,10,initial,36.05,324,342,361,379,397,9,9,9,9,9,,,,,,,2,0,2,0,0,26,26,24,,,,,,,,,,,,num_5,1.3757794999983162,num_5,0.4,0.7,0.30000000000000004,0.55,11.46165,21.01303,return,2.339664399973117,,,,,,,,,,,,,,,,,902,19,female,up_down_width,2024-10-11_18h39.59.229,exp1,2023.1.0,59.99487643695273,
,,,,,,,,,,,,,,,,4,9.25,9.75,10.25,10.75,0,0.5,0.1,0.4,1.9000000000000001,10,initial,36.05,333,351,370,388,0,9,9,9,9,0,,,,,,,2,0,2,0,0,27,27,38,,,,,,,,,,,,num_3,1.134361499978695,num_3,0.45,0.9,0.4,0.6,15.2822,22.9233,return,3.1282598999969196,,,,,,,,,,,,,,,,,902,19,female,up_down_width,2024-10-11_18h39.59.229,exp1,2023.1.0,59.99487643695273,
,,,,,,,,,,,,,,,,5,9,9.5,10,10.5,11,0.5,0.1,0.4,2.4,10,initial,36.05,324,342,361,379,397,9,9,9,9,9,,,,,,,2,0,2,0,0,28,28,21,,,,,,,,,,,,num_5,1.007082600001013,num_5,0.3,1.0,0.3,0.55,11.46165,21.01303,return,3.728300799994031,,,,,,,,,,,,,,,,,902,19,female,up_down_width,2024-10-11_18h39.59.229,exp1,2023.1.0,59.99487643695273,
,,,,,,,,,,,,,,,,4,9.25,9.75,10.25,10.75,0,0.5,0.1,0.4,1.9000000000000001,10,initial,36.05,333,351,370,388,0,9,9,9,9,0,,,,,,,2,0,2,0,0,29,29,40,,,,,,,,,,,,num_3,1.1491092999931425,num_3,0.2,0.7,0.3,0.5,11.46165,19.10275,return,2.287894300010521,,,,,,,,,,,,,,,,,902,19,female,up_down_width,2024-10-11_18h39.59.229,exp1,2023.1.0,59.99487643695273,
,,,,,,,,,,,,,,,,3,9.5,10,10.5,0,0,0.5,0.1,0.4,1.4000000000000001,10,initial,36.05,342,361,379,0,0,9,9,9,0,0,,,,,,,2,0,2,0,0,30,30,29,,,,,,,,,,,,num_2,1.2700834999850485,num_2,0.45,1.4,0.45,0.7,17.19248,26.74385,return,2.3011857999954373,,,,,,,,,,,,,,,,,902,19,female,up_down_width,2024-10-11_18h39.59.229,exp1,2023.1.0,59.99487643695273,
,,,,,,,,,,,,,,,,4,9.25,9.75,10.25,10.75,0,0.5,0.1,0.4,1.9000000000000001,10,initial,36.05,333,351,370,388,0,9,9,9,9,0,,,,,,,2,0,2,0,0,31,31,16,,,,,,,,,,,,num_3,0.9670066999970004,num_3,0.35,1.3,0.39999999999999997,0.6,15.2822,22.9233,return,5.532339800003683,,,,,,,,,,,,,,,,,902,19,female,up_down_width,2024-10-11_18h39.59.229,exp1,2023.1.0,59.99487643695273,
,,,,,,,,,,,,,,,,3,9.5,10,10.5,0,0,0.5,0.1,0.4,1.4000000000000001,10,initial,36.05,342,361,379,0,0,9,9,9,0,0,,,,,,,2,0,2,0,0,32,32,30,,,,,,,,,,,,num_2,1.0390273999946658,num_2,0.2,0.4,0.44999999999999996,0.7,17.19248,26.74385,return,5.5239296999934595,,,,,,,,,,,,,,,,,902,19,female,up_down_width,2024-10-11_18h39.59.229,exp1,2023.1.0,59.99487643695273,
,,,,,,,,,,,,,,,,4,9.25,9.75,10.25,10.75,0,0.5,0.1,0.4,1.9000000000000001,10,initial,36.05,333,351,370,388,0,9,9,9,9,0,,,,,,,2,0,2,0,0,33,33,15,,,,,,,,,,,,num_3,1.1161794000072405,num_3,0.55,0.9,0.4,0.65,15.2822,24.83358,return,2.8619104999816045,,,,,,,,,,,,,,,,,902,19,female,up_down_width,2024-10-11_18h39.59.229,exp1,2023.1.0,59.99487643695273,
,,,,,,,,,,,,,,,,4,9.25,9.75,10.25,10.75,0,0.5,0.1,0.4,1.9000000000000001,10,initial,36.05,333,351,370,388,0,9,9,9,9,0,,,,,,,2,0,2,0,0,34,34,10,,,,,,,,,,,,num_3,1.0006740000098944,num_3,0.25,0.7,0.39999999999999997,0.6,15.2822,22.9233,return,2.266844699974172,,,,,,,,,,,,,,,,,902,19,female,up_down_width,2024-10-11_18h39.59.229,exp1,2023.1.0,59.99487643695273,
,,,,,,,,,,,,,,,,3,9.5,10,10.5,0,0,0.5,0.1,0.4,1.4000000000000001,10,initial,36.05,342,361,379,0,0,9,9,9,0,0,,,,,,,2,0,2,0,0,35,35,28,,,,,,,,,,,,num_3,0.9811086000117939,num_3,0.4,1.3,0.4,0.7,15.2822,26.74385,return,4.245107700000517,,,,,,,,,,,,,,,,,902,19,female,up_down_width,2024-10-11_18h39.59.229,exp1,2023.1.0,59.99487643695273,
,,,,,,,,,,,,,,,,4,9.25,9.75,10.25,10.75,0,0.5,0.1,0.4,1.9000000000000001,10,initial,36.05,333,351,370,388,0,9,9,9,9,0,,,,,,,2,0,2,0,0,36,36,43,,,,,,,,,,,,num_4,1.3226883000170346,num_4,0.3,0.8,0.3,0.5,11.46165,19.10275,return,3.1563583999814,,,,,,,,,,,,,,,,,902,19,female,up_down_width,2024-10-11_18h39.59.229,exp1,2023.1.0,59.99487643695273,
,,,,,,,,,,,,,,,,5,9,9.5,10,10.5,11,0.5,0.1,0.4,2.4,10,initial,36.05,324,342,361,379,397,9,9,9,9,9,,,,,,,2,0,2,0,0,37,37,18,,,,,,,,,,,,num_5,1.247292899992317,num_5,0.4,0.9,0.30000000000000004,0.55,11.46165,21.01303,return,2.8124577999988105,,,,,,,,,,,,,,,,,902,19,female,up_down_width,2024-10-11_18h39.59.229,exp1,2023.1.0,59.99487643695273,
,,,,,,,,,,,,,,,,3,9.5,10,10.5,0,0,0.5,0.1,0.4,1.4000000000000001,10,initial,36.05,342,361,379,0,0,9,9,9,0,0,,,,,,,2,0,2,0,0,38,38,2,,,,,,,,,,,,num_3,1.2351516999769956,num_3,0.35,0.7,0.25,0.55,9.55138,21.01303,return,1.8189482000016142,,,,,,,,,,,,,,,,,902,19,female,up_down_width,2024-10-11_18h39.59.229,exp1,2023.1.0,59.99487643695273,
,,,,,,,,,,,,,,,,4,9.25,9.75,10.25,10.75,0,0.5,0.1,0.4,1.9000000000000001,10,initial,36.05,333,351,370,388,0,9,9,9,9,0,,,,,,,2,0,2,0,0,39,39,42,,,,,,,,,,,,num_4,1.1196307000063825,num_4,0.55,0.8,0.30000000000000004,0.6,11.46165,22.9233,return,4.161851599987131,,,,,,,,,,,,,,,,,902,19,female,up_down_width,2024-10-11_18h39.59.229,exp1,2023.1.0,59.99487643695273,
,,,,,,,,,,,,,,,,3,9.5,10,10.5,0,0,0.5,0.1,0.4,1.4000000000000001,10,initial,36.05,342,361,379,0,0,9,9,9,0,0,,,,,,,2,0,2,0,0,40,40,34,,,,,,,,,,,,num_2,1.0114367999776732,num_2,0.35,1.2,0.35,0.5,13.37193,19.10275,return,2.137534500012407,,,,,,,,,,,,,,,,,902,19,female,up_down_width,2024-10-11_18h39.59.229,exp1,2023.1.0,59.99487643695273,
,,,,,,,,,,,,,,,,3,9.5,10,10.5,0,0,0.5,0.1,0.4,1.4000000000000001,10,initial,36.05,342,361,379,0,0,9,9,9,0,0,,,,,,,2,0,2,0,0,41,41,33,,,,,,,,,,,,num_2,1.351170000009006,num_2,0.5,1.4,0.30000000000000004,0.5,11.46165,19.10275,return,3.887011800019536,,,,,,,,,,,,,,,,,902,19,female,up_down_width,2024-10-11_18h39.59.229,exp1,2023.1.0,59.99487643695273,
,,,,,,,,,,,,,,,,4,9.25,9.75,10.25,10.75,0,0.5,0.1,0.4,1.9000000000000001,10,initial,36.05,333,351,370,388,0,9,9,9,9,0,,,,,,,2,0,2,0,0,42,42,39,,,,,,,,,,,,num_3,1.2181098999863025,num_3,0.4,0.9,0.45,0.65,17.19248,24.83358,return,2.6062124999880325,,,,,,,,,,,,,,,,,902,19,female,up_down_width,2024-10-11_18h39.59.229,exp1,2023.1.0,59.99487643695273,
,,,,,,,,,,,,,,,,5,9,9.5,10,10.5,11,0.5,0.1,0.4,2.4,10,initial,36.05,324,342,361,379,397,9,9,9,9,9,,,,,,,2,0,2,0,0,43,43,20,,,,,,,,,,,,num_5,1.02233979999437,num_5,0.45,0.7,0.35000000000000003,0.55,13.37193,21.01303,return,2.0994050999870524,,,,,,,,,,,,,,,,,902,19,female,up_down_width,2024-10-11_18h39.59.229,exp1,2023.1.0,59.99487643695273,
,,,,,,,,,,,,,,,,4,9.25,9.75,10.25,10.75,0,0.5,0.1,0.4,1.9000000000000001,10,initial,36.05,333,351,370,388,0,9,9,9,9,0,,,,,,,2,0,2,0,0,44,44,12,,,,,,,,,,,,num_3,1.303125500009628,num_3,0.2,0.8,0.39999999999999997,0.65,15.2822,24.83358,return,3.3404150000133086,,,,,,,,,,,,,,,,,902,19,female,up_down_width,2024-10-11_18h39.59.229,exp1,2023.1.0,59.99487643695273,
,,,,,,,,,,,,,,,,5,9,9.5,10,10.5,11,0.5,0.1,0.4,2.4,10,initial,36.05,324,342,361,379,397,9,9,9,9,9,,,,,,,2,0,2,0,0,45,45,25,,,,,,,,,,,,num_5,1.1415210000122897,num_5,0.25,1.2,0.25,0.45,9.55138,17.19248,return,3.4729719000170007,,,,,,,,,,,,,,,,,902,19,female,up_down_width,2024-10-11_18h39.59.229,exp1,2023.1.0,59.99487643695273,
,,,,,,,,,,,,,,,,3,9.5,10,10.5,0,0,0.5,0.1,0.4,1.4000000000000001,10,initial,36.05,342,361,379,0,0,9,9,9,0,0,,,,,,,2,0,2,0,0,46,46,31,,,,,,,,,,,,num_3,1.0971101000031922,num_3,0.45,0.5,0.30000000000000004,0.5,11.46165,19.10275,return,2.42790799998329,,,,,,,,,,,,,,,,,902,19,female,up_down_width,2024-10-11_18h39.59.229,exp1,2023.1.0,59.99487643695273,
,,,,,,,,,,,,,,,,5,9,9.5,10,10.5,11,0.5,0.1,0.4,2.4,10,initial,36.05,324,342,361,379,397,9,9,9,9,9,,,,,,,2,0,2,0,0,47,47,23,,,,,,,,,,,,num_5,0.9994122999778483,num_5,0.5,1.1,0.35000000000000003,0.6,13.37193,22.9233,return,3.4551632000075188,,,,,,,,,,,,,,,,,902,19,female,up_down_width,2024-10-11_18h39.59.229,exp1,2023.1.0,59.99487643695273,
,,,,,,,,,,,,,,,,3,9.5,10,10.5,0,0,0.5,0.1,0.4,1.4000000000000001,10,initial,36.05,342,361,379,0,0,9,9,9,0,0,,,,,,,2,0,2,0,0,48,48,35,,,,,,,,,,,,num_2,1.1918894000118598,num_2,0.5,0.6,0.35000000000000003,0.6,13.37193,22.9233,return,4.060085200006142,,,,,,,,,,,,,,,,,902,19,female,up_down_width,2024-10-11_18h39.59.229,exp1,2023.1.0,59.99487643695273,
,,,,,,,,,,,,,,,,3,9.5,10,10.5,0,0,0.5,0.1,0.4,1.4000000000000001,10,initial,36.05,342,361,379,0,0,9,9,9,0,0,,,,,,,2,0,2,0,0,49,49,4,,,,,,,,,,,,num_2,0.902592900005402,num_2,0.2,0.8,0.35,0.5,13.37193,19.10275,return,2.1140260999964084,,,,,,,,,,,,,,,,,902,19,female,up_down_width,2024-10-11_18h39.59.229,exp1,2023.1.0,59.99487643695273,
,,,,,,,,,,,,,,,,4,9.25,9.75,10.25,10.75,0,0.5,0.1,0.4,1.9000000000000001,10,initial,36.05,333,351,370,388,0,9,9,9,9,0,,,,,,,2,0,2,0,0,50,50,11,,,,,,,,,,,,num_3,1.0542174999718554,num_3,0.25,1.2,0.3,0.6,11.46165,22.9233,return,3.6460833000019193,,,,,,,,,,,,,,,,,902,19,female,up_down_width,2024-10-11_18h39.59.229,exp1,2023.1.0,59.99487643695273,
,,,,,,,,,,,,,,,,4,9.25,9.75,10.25,10.75,0,0.5,0.1,0.4,1.9000000000000001,10,initial,36.05,333,351,370,388,0,9,9,9,9,0,,,,,,,2,0,2,0,0,51,51,36,,,,,,,,,,,,num_4,1.1510058999992907,num_4,0.5,1.0,0.4,0.7,15.2822,26.74385,return,3.4239564999879804,,,,,,,,,,,,,,,,,902,19,female,up_down_width,2024-10-11_18h39.59.229,exp1,2023.1.0,59.99487643695273,
,,,,,,,,,,,,,,,,3,9.5,10,10.5,0,0,0.5,0.1,0.4,1.4000000000000001,10,initial,36.05,342,361,379,0,0,9,9,9,0,0,,,,,,,2,0,2,0,0,52,52,32,,,,,,,,,,,,num_2,0.9518214999989141,num_2,0.45,1.4,0.45,0.6,17.19248,22.9233,return,2.123384700011229,,,,,,,,,,,,,,,,,902,19,female,up_down_width,2024-10-11_18h39.59.229,exp1,2023.1.0,59.99487643695273,
,,,,,,,,,,,,,,,,4,9.25,9.75,10.25,10.75,0,0.5,0.1,0.4,1.9000000000000001,10,initial,36.05,333,351,370,388,0,9,9,9,9,0,,,,,,,2,0,2,0,0,53,53,44,,,,,,,,,,,,num_5,2.187323899997864,num_5,0.2,0.9,0.3,0.55,11.46165,21.01303,return,5.78932540002279,,,,,,,,,,,,,,,,,902,19,female,up_down_width,2024-10-11_18h39.59.229,exp1,2023.1.0,59.99487643695273,
,,,,,,,,,,,,,,,,,,,,,,,,,,,,,,,,,,,,,,,,,,,,,2,0,2,0,,,,,,,,,,,,,,,,,,,,,,,,,,,,,1524.3803850999975,1524.3803850999975,1524.3803850999975,,,,,,,,,,,,902,19,female,up_down_width,2024-10-11_18h39.59.229,exp1,2023.1.0,59.99487643695273,
,,,,,,,,,,,,,,,,4,8.65,9.55,10.45,11.35,0,0.9,0.35,0.55,3.25,10,initial,36.05,312,344,377,409,0,9,9,9,9,0,,,,,,,3,0,3,0,0,0,0,37,,,,,,,,,,,,num_3,1.6952967999968678,num_3,0.25,0.8,0.7000000000000001,1.15,26.74385,43.93633,return,5.698972900019726,,,,,,,,,,,,,,,,,902,19,female,up_down_width,2024-10-11_18h39.59.229,exp1,2023.1.0,59.99487643695273,
,,,,,,,,,,,,,,,,5,8.2,9.1,10,10.9,11.8,0.9,0.35,0.55,4.15,10,initial,36.05,296,328,361,393,425,9,9,9,9,9,,,,,,,3,0,3,0,0,1,1,18,,,,,,,,,,,,num_5,0.9962390000000596,num_5,0.25,1.1,0.49999999999999994,1.3,19.10275,49.66716,return,5.529903899994679,,,,,,,,,,,,,,,,,902,19,female,up_down_width,2024-10-11_18h39.59.229,exp1,2023.1.0,59.99487643695273,
,,,,,,,,,,,,,,,,5,8.2,9.1,10,10.9,11.8,0.9,0.35,0.55,4.15,10,initial,36.05,296,328,361,393,425,9,9,9,9,9,,,,,,,3,0,3,0,0,2,2,52,,,,,,,,,,,,num_5,0.9131625999871176,num_5,0.4,1.1,0.4,1.1,15.2822,42.02605,return,0.7899984999967273,,,,,,,,,,,,,,,,,902,19,female,up_down_width,2024-10-11_18h39.59.229,exp1,2023.1.0,59.99487643695273,
,,,,,,,,,,,,,,,,4,8.65,9.55,10.45,11.35,0,0.9,0.35,0.55,3.25,10,initial,36.05,312,344,377,409,0,9,9,9,9,0,,,,,,,3,0,3,0,0,3,3,43,,,,,,,,,,,,num_4,0.8767334000149276,num_4,0.5,0.9,0.5,1.2,19.10275,45.8466,return,1.8778798999846913,,,,,,,,,,,,,,,,,902,19,female,up_down_width,2024-10-11_18h39.59.229,exp1,2023.1.0,59.99487643695273,
,,,,,,,,,,,,,,,,3,9.1,10,10.9,0,0,0.9,0.35,0.55,2.35,10,initial,36.05,328,361,393,0,0,9,9,9,0,0,,,,,,,3,0,3,0,0,4,4,1,,,,,,,,,,,,num_3,1.2012977999984287,num_3,0.35,0.5,0.44999999999999996,1.1,17.19248,42.02605,return,3.754260699992301,,,,,,,,,,,,,,,,,902,19,female,up_down_width,2024-10-11_18h39.59.229,exp1,2023.1.0,59.99487643695273,
,,,,,,,,,,,,,,,,3,9.1,10,10.9,0,0,0.9,0.35,0.55,2.35,10,initial,36.05,328,361,393,0,0,9,9,9,0,0,,,,,,,3,0,3,0,0,5,5,28,,,,,,,,,,,,num_3,0.8604189000034239,num_3,0.3,0.8,0.49999999999999994,1.1,19.10275,42.02605,return,2.610511699982453,,,,,,,,,,,,,,,,,902,19,female,up_down_width,2024-10-11_18h39.59.229,exp1,2023.1.0,59.99487643695273,
,,,,,,,,,,,,,,,,3,9.1,10,10.9,0,0,0.9,0.35,0.55,2.35,10,initial,36.05,328,361,393,0,0,9,9,9,0,0,,,,,,,3,0,3,0,0,6,6,31,,,,,,,,,,,,num_3,0.9995382000051904,num_3,0.25,0.7,0.49999999999999994,1.1,19.10275,42.02605,return,3.9824105000006966,,,,,,,,,,,,,,,,,902,19,female,up_down_width,2024-10-11_18h39.59.229,exp1,2023.1.0,59.99487643695273,
,,,,,,,,,,,,,,,,4,8.65,9.55,10.45,11.35,0,0.9,0.35,0.55,3.25,10,initial,36.05,312,344,377,409,0,9,9,9,9,0,,,,,,,3,0,3,0,0,7,7,13,,,,,,,,,,,,num_4,0.9977681999735069,num_4,0.4,0.6,0.35000000000000003,0.9,13.37193,34.38495,return,3.626674200000707,,,,,,,,,,,,,,,,,902,19,female,up_down_width,2024-10-11_18h39.59.229,exp1,2023.1.0,59.99487643695273,
,,,,,,,,,,,,,,,,4,8.65,9.55,10.45,11.35,0,0.9,0.35,0.55,3.25,10,initial,36.05,312,344,377,409,0,9,9,9,9,0,,,,,,,3,0,3,0,0,8,8,42,,,,,,,,,,,,num_5,0.9419151000038255,num_5,0.25,0.5,0.35,0.8,13.37193,30.5644,return,3.0642844999965746,,,,,,,,,,,,,,,,,902,19,female,up_down_width,2024-10-11_18h39.59.229,exp1,2023.1.0,59.99487643695273,
,,,,,,,,,,,,,,,,4,8.65,9.55,10.45,11.35,0,0.9,0.35,0.55,3.25,10,initial,36.05,312,344,377,409,0,9,9,9,9,0,,,,,,,3,0,3,0,0,9,9,14,,,,,,,,,,,,num_5,0.9223767999792472,num_5,0.3,0.6,0.39999999999999997,0.8,15.2822,30.5644,return,2.676075600000331,,,,,,,,,,,,,,,,,902,19,female,up_down_width,2024-10-11_18h39.59.229,exp1,2023.1.0,59.99487643695273,
,,,,,,,,,,,,,,,,4,8.65,9.55,10.45,11.35,0,0.9,0.35,0.55,3.25,10,initial,36.05,312,344,377,409,0,9,9,9,9,0,,,,,,,3,0,3,0,0,10,10,36,,,,,,,,,,,,num_5,1.2587323999905493,num_5,0.5,0.7,0.4,0.9,15.2822,34.38495,return,3.057816600019578,,,,,,,,,,,,,,,,,902,19,female,up_down_width,2024-10-11_18h39.59.229,exp1,2023.1.0,59.99487643695273,
,,,,,,,,,,,,,,,,5,8.2,9.1,10,10.9,11.8,0.9,0.35,0.55,4.15,10,initial,36.05,296,328,361,393,425,9,9,9,9,9,,,,,,,3,0,3,0,0,11,11,47,,,,,,,,,,,,num_5,0.825788799993461,num_5,0.5,0.8,0.4,0.85,15.2822,32.47468,return,2.8041101999988314,,,,,,,,,,,,,,,,,902,19,female,up_down_width,2024-10-11_18h39.59.229,exp1,2023.1.0,59.99487643695273,
,,,,,,,,,,,,,,,,5,8.2,9.1,10,10.9,11.8,0.9,0.35,0.55,4.15,10,initial,36.05,296,328,361,393,425,9,9,9,9,9,,,,,,,3,0,3,0,0,12,12,19,,,,,,,,,,,,num_5,1.2142132999724708,num_5,0.35,1.3,0.44999999999999996,0.9,17.19248,34.38495,return,3.709190099994885,,,,,,,,,,,,,,,,,902,19,female,up_down_width,2024-10-11_18h39.59.229,exp1,2023.1.0,59.99487643695273,
,,,,,,,,,,,,,,,,3,9.1,10,10.9,0,0,0.9,0.35,0.55,2.35,10,initial,36.05,328,361,393,0,0,9,9,9,0,0,,,,,,,3,0,3,0,0,13,13,32,,,,,,,,,,,,num_3,1.0257567999942694,num_3,0.2,0.3,0.44999999999999996,0.9,17.19248,34.38495,return,5.281385899987072,,,,,,,,,,,,,,,,,902,19,female,up_down_width,2024-10-11_18h39.59.229,exp1,2023.1.0,59.99487643695273,
,,,,,,,,,,,,,,,,4,8.65,9.55,10.45,11.35,0,0.9,0.35,0.55,3.25,10,initial,36.05,312,344,377,409,0,9,9,9,9,0,,,,,,,3,0,3,0,0,14,14,17,,,,,,,,,,,,num_4,0.9895217999874149,num_4,0.55,0.7,0.5,1.1,19.10275,42.02605,return,3.3746348999848124,,,,,,,,,,,,,,,,,902,19,female,up_down_width,2024-10-11_18h39.59.229,exp1,2023.1.0,59.99487643695273,
,,,,,,,,,,,,,,,,4,8.65,9.55,10.45,11.35,0,0.9,0.35,0.55,3.25,10,initial,36.05,312,344,377,409,0,9,9,9,9,0,,,,,,,3,0,3,0,0,15,15,41,,,,,,,,,,,,num_4,0.9969463999732397,num_4,0.5,0.9,0.45,1.1,17.19248,42.02605,return,3.3476616999832913,,,,,,,,,,,,,,,,,902,19,female,up_down_width,2024-10-11_18h39.59.229,exp1,2023.1.0,59.99487643695273,
,,,,,,,,,,,,,,,,5,8.2,9.1,10,10.9,11.8,0.9,0.35,0.55,4.15,10,initial,36.05,296,328,361,393,425,9,9,9,9,9,,,,,,,3,0,3,0,0,16,16,45,,,,,,,,,,,,num_5,0.8510558999842033,num_5,0.4,1.2,0.5,1.05,19.10275,40.11578,return,3.031871699990006,,,,,,,,,,,,,,,,,902,19,female,up_down_width,2024-10-11_18h39.59.229,exp1,2023.1.0,59.99487643695273,
,,,,,,,,,,,,,,,,4,8.65,9.55,10.45,11.35,0,0.9,0.35,0.55,3.25,10,initial,36.05,312,344,377,409,0,9,9,9,9,0,,,,,,,3,0,3,0,0,17,17,11,,,,,,,,,,,,num_4,1.0651113000058103,num_4,0.45,0.7,0.55,1.2,21.01303,45.8466,return,3.062207799986936,,,,,,,,,,,,,,,,,902,19,female,up_down_width,2024-10-11_18h39.59.229,exp1,2023.1.0,59.99487643695273,
,,,,,,,,,,,,,,,,4,8.65,9.55,10.45,11.35,0,0.9,0.35,0.55,3.25,10,initial,36.05,312,344,377,409,0,9,9,9,9,0,,,,,,,3,0,3,0,0,18,18,44,,,,,,,,,,,,num_4,0.763734200008912,num_4,0.25,1.0,0.5499999999999999,1.0,21.01303,38.2055,return,1.8516627999779303,,,,,,,,,,,,,,,,,902,19,female,up_down_width,2024-10-11_18h39.59.229,exp1,2023.1.0,59.99487643695273,
,,,,,,,,,,,,,,,,5,8.2,9.1,10,10.9,11.8,0.9,0.35,0.55,4.15,10,initial,36.05,296,328,361,393,425,9,9,9,9,9,,,,,,,3,0,3,0,0,19,19,50,,,,,,,,,,,,num_5,0.842972499987809,num_5,0.2,1.1,0.39999999999999997,0.9,15.2822,34.38495,return,3.9429586000042036,,,,,,,,,,,,,,,,,902,19,female,up_down_width,2024-10-11_18h39.59.229,exp1,2023.1.0,59.99487643695273,
,,,,,,,,,,,,,,,,5,8.2,9.1,10,10.9,11.8,0.9,0.35,0.55,4.15,10,initial,36.05,296,328,361,393,425,9,9,9,9,9,,,,,,,3,0,3,0,0,20,20,22,,,,,,,,,,,,num_5,0.788827999989735,num_5,0.3,1.1,0.39999999999999997,0.85,15.2822,32.47468,return,3.0886092000000644,,,,,,,,,,,,,,,,,902,19,female,up_down_width,2024-10-11_18h39.59.229,exp1,2023.1.0,59.99487643695273,
,,,,,,,,,,,,,,,,3,9.1,10,10.9,0,0,0.9,0.35,0.55,2.35,10,initial,36.05,328,361,393,0,0,9,9,9,0,0,,,,,,,3,0,3,0,0,21,21,34,,,,,,,,,,,,num_2,1.0992353000037838,num_2,0.3,0.6,0.49999999999999994,0.8,19.10275,30.5644,return,2.813341999979457,,,,,,,,,,,,,,,,,902,19,female,up_down_width,2024-10-11_18h39.59.229,exp1,2023.1.0,59.99487643695273,
,,,,,,,,,,,,,,,,3,9.1,10,10.9,0,0,0.9,0.35,0.55,2.35,10,initial,36.05,328,361,393,0,0,9,9,9,0,0,,,,,,,3,0,3,0,0,22,22,6,,,,,,,,,,,,num_2,0.9902948999952059,num_2,0.3,1.6,0.49999999999999994,0.8,19.10275,30.5644,return,3.010693199990783,,,,,,,,,,,,,,,,,902,19,female,up_down_width,2024-10-11_18h39.59.229,exp1,2023.1.0,59.99487643695273,
,,,,,,,,,,,,,,,,3,9.1,10,10.9,0,0,0.9,0.35,0.55,2.35,10,initial,36.05,328,361,393,0,0,9,9,9,0,0,,,,,,,3,0,3,0,0,23,23,29,,,,,,,,,,,,num_2,0.9275745000049938,num_2,0.2,1.0,0.44999999999999996,0.8,17.19248,30.5644,return,2.617596099997172,,,,,,,,,,,,,,,,,902,19,female,up_down_width,2024-10-11_18h39.59.229,exp1,2023.1.0,59.99487643695273,
,,,,,,,,,,,,,,,,5,8.2,9.1,10,10.9,11.8,0.9,0.35,0.55,4.15,10,initial,36.05,296,328,361,393,425,9,9,9,9,9,,,,,,,3,0,3,0,0,24,24,48,,,,,,,,,,,,num_5,0.8747184999810997,num_5,0.4,1.1,0.4,0.9,15.2822,34.38495,return,1.3472160000237636,,,,,,,,,,,,,,,,,902,19,female,up_down_width,2024-10-11_18h39.59.229,exp1,2023.1.0,59.99487643695273,
,,,,,,,,,,,,,,,,3,9.1,10,10.9,0,0,0.9,0.35,0.55,2.35,10,initial,36.05,328,361,393,0,0,9,9,9,0,0,,,,,,,3,0,3,0,0,25,25,33,,,,,,,,,,,,num_3,1.463538600015454,num_3,0.4,1.1,0.35000000000000003,0.7,13.37193,26.74385,return,3.1635368000133894,,,,,,,,,,,,,,,,,902,19,female,up_down_width,2024-10-11_18h39.59.229,exp1,2023.1.0,59.99487643695273,
,,,,,,,,,,,,,,,,5,8.2,9.1,10,10.9,11.8,0.9,0.35,0.55,4.15,10,initial,36.05,296,328,361,393,425,9,9,9,9,9,,,,,,,3,0,3,0,0,26,26,20,,,,,,,,,,,,num_5,1.072524200018961,num_5,0.45,0.6,0.45,0.95,17.19248,36.29523,return,2.340503399987938,,,,,,,,,,,,,,,,,902,19,female,up_down_width,2024-10-11_18h39.59.229,exp1,2023.1.0,59.99487643695273,
,,,,,,,,,,,,,,,,4,8.65,9.55,10.45,11.35,0,0.9,0.35,0.55,3.25,10,initial,36.05,312,344,377,409,0,9,9,9,9,0,,,,,,,3,0,3,0,0,27,27,40,,,,,,,,,,,,num_4,1.0659098000032827,num_4,0.25,0.7,0.49999999999999994,1.0,19.10275,38.2055,return,4.283285900019109,,,,,,,,,,,,,,,,,902,19,female,up_down_width,2024-10-11_18h39.59.229,exp1,2023.1.0,59.99487643695273,
,,,,,,,,,,,,,,,,4,8.65,9.55,10.45,11.35,0,0.9,0.35,0.55,3.25,10,initial,36.05,312,344,377,409,0,9,9,9,9,0,,,,,,,3,0,3,0,0,28,28,39,,,,,,,,,,,,num_4,0.9826440000033472,num_4,0.3,1.2,0.44999999999999996,0.9,17.19248,34.38495,return,3.386599000019487,,,,,,,,,,,,,,,,,902,19,female,up_down_width,2024-10-11_18h39.59.229,exp1,2023.1.0,59.99487643695273,
,,,,,,,,,,,,,,,,4,8.65,9.55,10.45,11.35,0,0.9,0.35,0.55,3.25,10,initial,36.05,312,344,377,409,0,9,9,9,9,0,,,,,,,3,0,3,0,0,29,29,15,,,,,,,,,,,,num_4,0.9645439999876544,num_4,0.5,0.8,0.4,0.9,15.2822,34.38495,return,2.8277432000031695,,,,,,,,,,,,,,,,,902,19,female,up_down_width,2024-10-11_18h39.59.229,exp1,2023.1.0,59.99487643695273,
,,,,,,,,,,,,,,,,3,9.1,10,10.9,0,0,0.9,0.35,0.55,2.35,10,initial,36.05,328,361,393,0,0,9,9,9,0,0,,,,,,,3,0,3,0,0,30,30,8,,,,,,,,,,,,num_2,1.4069408999930602,num_2,0.35,1.2,0.39999999999999997,0.7,15.2822,26.74385,return,3.477338199998485,,,,,,,,,,,,,,,,,902,19,female,up_down_width,2024-10-11_18h39.59.229,exp1,2023.1.0,59.99487643695273,
,,,,,,,,,,,,,,,,3,9.1,10,10.9,0,0,0.9,0.35,0.55,2.35,10,initial,36.05,328,361,393,0,0,9,9,9,0,0,,,,,,,3,0,3,0,0,31,31,3,,,,,,,,,,,,num_2,0.7916198000020813,num_2,0.3,0.6,0.39999999999999997,0.8,15.2822,30.5644,return,3.6695493000152055,,,,,,,,,,,,,,,,,902,19,female,up_down_width,2024-10-11_18h39.59.229,exp1,2023.1.0,59.99487643695273,
,,,,,,,,,,,,,,,,5,8.2,9.1,10,10.9,11.8,0.9,0.35,0.55,4.15,10,initial,36.05,296,328,361,393,425,9,9,9,9,9,,,,,,,3,0,3,0,0,32,32,25,,,,,,,,,,,,num_5,0.8325864000071306,num_5,0.2,1.0,0.49999999999999994,0.8,19.10275,30.5644,return,3.452614599984372,,,,,,,,,,,,,,,,,902,19,female,up_down_width,2024-10-11_18h39.59.229,exp1,2023.1.0,59.99487643695273,
,,,,,,,,,,,,,,,,3,9.1,10,10.9,0,0,0.9,0.35,0.55,2.35,10,initial,36.05,328,361,393,0,0,9,9,9,0,0,,,,,,,3,0,3,0,0,33,33,4,,,,,,,,,,,,num_2,0.9747039999929257,num_2,0.55,1.4,0.55,0.9,21.01303,34.38495,return,2.3416021000011824,,,,,,,,,,,,,,,,,902,19,female,up_down_width,2024-10-11_18h39.59.229,exp1,2023.1.0,59.99487643695273,
,,,,,,,,,,,,,,,,3,9.1,10,10.9,0,0,0.9,0.35,0.55,2.35,10,initial,36.05,328,361,393,0,0,9,9,9,0,0,,,,,,,3,0,3,0,0,34,34,27,,,,,,,,,,,,num_3,1.5453391000046395,num_3,0.2,1,0.49999999999999994,0.8,19.10275,30.5644,return,3.734103299997514,,,,,,,,,,,,,,,,,902,19,female,up_down_width,2024-10-11_18h39.59.229,exp1,2023.1.0,59.99487643695273,
,,,,,,,,,,,,,,,,5,8.2,9.1,10,10.9,11.8,0.9,0.35,0.55,4.15,10,initial,36.05,296,328,361,393,425,9,9,9,9,9,,,,,,,3,0,3,0,0,35,35,51,,,,,,,,,,,,num_5,0.9141203000035603,num_5,0.3,0.5,0.49999999999999994,0.7,19.10275,26.74385,return,3.1759977000183426,,,,,,,,,,,,,,,,,902,19,female,up_down_width,2024-10-11_18h39.59.229,exp1,2023.1.0,59.99487643695273,
,,,,,,,,,,,,,,,,4,8.65,9.55,10.45,11.35,0,0.9,0.35,0.55,3.25,10,initial,36.05,312,344,377,409,0,9,9,9,9,0,,,,,,,3,0,3,0,0,36,36,12,,,,,,,,,,,,num_4,0.9341282999957912,num_4,0.3,0.6,0.49999999999999994,0.9,19.10275,34.38495,return,2.3135571999882814,,,,,,,,,,,,,,,,,902,19,female,up_down_width,2024-10-11_18h39.59.229,exp1,2023.1.0,59.99487643695273,
,,,,,,,,,,,,,,,,3,9.1,10,10.9,0,0,0.9,0.35,0.55,2.35,10,initial,36.05,328,361,393,0,0,9,9,9,0,0,,,,,,,3,0,3,0,0,37,37,30,,,,,,,,,,,,num_2,1.0507628999766894,num_2,0.5,0.8,0.8000000000000003,1.1,30.5644,42.02605,return,2.6820173999876715,,,,,,,,,,,,,,,,,902,19,female,up_down_width,2024-10-11_18h39.59.229,exp1,2023.1.0,59.99487643695273,
,,,,,,,,,,,,,,,,5,8.2,9.1,10,10.9,11.8,0.9,0.35,0.55,4.15,10,initial,36.05,296,328,361,393,425,9,9,9,9,9,,,,,,,3,0,3,0,0,38,38,24,,,,,,,,,,,,num_5,1.2227342000114731,num_5,0.25,0.8,0.49999999999999994,1.0,19.10275,38.2055,return,2.462076600000728,,,,,,,,,,,,,,,,,902,19,female,up_down_width,2024-10-11_18h39.59.229,exp1,2023.1.0,59.99487643695273,
,,,,,,,,,,,,,,,,4,8.65,9.55,10.45,11.35,0,0.9,0.35,0.55,3.25,10,initial,36.05,312,344,377,409,0,9,9,9,9,0,,,,,,,3,0,3,0,0,39,39,10,,,,,,,,,,,,num_3,1.3915691999718547,num_3,0.2,1,0.5499999999999999,1.0,21.01303,38.2055,return,3.5049857000121847,,,,,,,,,,,,,,,,,902,19,female,up_down_width,2024-10-11_18h39.59.229,exp1,2023.1.0,59.99487643695273,
,,,,,,,,,,,,,,,,5,8.2,9.1,10,10.9,11.8,0.9,0.35,0.55,4.15,10,initial,36.05,296,328,361,393,425,9,9,9,9,9,,,,,,,3,0,3,0,0,40,40,49,,,,,,,,,,,,num_5,0.8914820999780204,num_5,0.5,0.8,0.5,0.9,19.10275,34.38495,return,3.459855699999025,,,,,,,,,,,,,,,,,902,19,female,up_down_width,2024-10-11_18h39.59.229,exp1,2023.1.0,59.99487643695273,
,,,,,,,,,,,,,,,,3,9.1,10,10.9,0,0,0.9,0.35,0.55,2.35,10,initial,36.05,328,361,393,0,0,9,9,9,0,0,,,,,,,3,0,3,0,0,41,41,7,,,,,,,,,,,,num_2,0.8517229999997653,num_2,0.35,0.6,0.39999999999999997,0.9,15.2822,34.38495,return,1.8502074999851175,,,,,,,,,,,,,,,,,902,19,female,up_down_width,2024-10-11_18h39.59.229,exp1,2023.1.0,59.99487643695273,
,,,,,,,,,,,,,,,,5,8.2,9.1,10,10.9,11.8,0.9,0.35,0.55,4.15,10,initial,36.05,296,328,361,393,425,9,9,9,9,9,,,,,,,3,0,3,0,0,42,42,53,,,,,,,,,,,,num_5,0.8449572999961674,num_5,0.3,0.4,0.35,0.75,13.37193,28.65413,return,5.210418300004676,,,,,,,,,,,,,,,,,902,19,female,up_down_width,2024-10-11_18h39.59.229,exp1,2023.1.0,59.99487643695273,
,,,,,,,,,,,,,,,,5,8.2,9.1,10,10.9,11.8,0.9,0.35,0.55,4.15,10,initial,36.05,296,328,361,393,425,9,9,9,9,9,,,,,,,3,0,3,0,0,43,43,26,,,,,,,,,,,,num_5,0.7809838999819476,num_5,0.5,0.6,0.6000000000000001,0.95,22.9233,36.29523,return,3.927792499976931,,,,,,,,,,,,,,,,,902,19,female,up_down_width,2024-10-11_18h39.59.229,exp1,2023.1.0,59.99487643695273,
,,,,,,,,,,,,,,,,3,9.1,10,10.9,0,0,0.9,0.35,0.55,2.35,10,initial,36.05,328,361,393,0,0,9,9,9,0,0,,,,,,,3,0,3,0,0,44,44,5,,,,,,,,,,,,num_3,0.9977196000108961,num_3,0.3,0.6,0.49999999999999994,0.85,19.10275,32.47468,return,2.918951499974355,,,,,,,,,,,,,,,,,902,19,female,up_down_width,2024-10-11_18h39.59.229,exp1,2023.1.0,59.99487643695273,
,,,,,,,,,,,,,,,,3,9.1,10,10.9,0,0,0.9,0.35,0.55,2.35,10,initial,36.05,328,361,393,0,0,9,9,9,0,0,,,,,,,3,0,3,0,0,45,45,0,,,,,,,,,,,,num_3,1.0740907000144944,num_3,0.35,1.3,0.44999999999999996,0.95,17.19248,36.29523,return,2.6549028999870643,,,,,,,,,,,,,,,,,902,19,female,up_down_width,2024-10-11_18h39.59.229,exp1,2023.1.0,59.99487643695273,
,,,,,,,,,,,,,,,,5,8.2,9.1,10,10.9,11.8,0.9,0.35,0.55,4.15,10,initial,36.05,296,328,361,393,425,9,9,9,9,9,,,,,,,3,0,3,0,0,46,46,21,,,,,,,,,,,,num_5,0.8680391000234522,num_5,0.2,0.9,0.44999999999999996,0.9,17.19248,34.38495,return,1.8879729000036605,,,,,,,,,,,,,,,,,902,19,female,up_down_width,2024-10-11_18h39.59.229,exp1,2023.1.0,59.99487643695273,
,,,,,,,,,,,,,,,,3,9.1,10,10.9,0,0,0.9,0.35,0.55,2.35,10,initial,36.05,328,361,393,0,0,9,9,9,0,0,,,,,,,3,0,3,0,0,47,47,2,,,,,,,,,,,,num_2,1.046350699994946,num_2,0.55,1.4,0.6000000000000001,1.2,22.9233,45.8466,return,3.1272102000075392,,,,,,,,,,,,,,,,,902,19,female,up_down_width,2024-10-11_18h39.59.229,exp1,2023.1.0,59.99487643695273,
,,,,,,,,,,,,,,,,3,9.1,10,10.9,0,0,0.9,0.35,0.55,2.35,10,initial,36.05,328,361,393,0,0,9,9,9,0,0,,,,,,,3,0,3,0,0,48,48,35,,,,,,,,,,,,num_2,0.9232799999881536,num_2,0.45,0.6,0.45,1.1,17.19248,42.02605,return,3.201450000022305,,,,,,,,,,,,,,,,,902,19,female,up_down_width,2024-10-11_18h39.59.229,exp1,2023.1.0,59.99487643695273,
,,,,,,,,,,,,,,,,5,8.2,9.1,10,10.9,11.8,0.9,0.35,0.55,4.15,10,initial,36.05,296,328,361,393,425,9,9,9,9,9,,,,,,,3,0,3,0,0,49,49,23,,,,,,,,,,,,num_5,0.9985339999839198,num_5,0.5,0.7,0.5,0.95,19.10275,36.29523,return,1.8795014999923296,,,,,,,,,,,,,,,,,902,19,female,up_down_width,2024-10-11_18h39.59.229,exp1,2023.1.0,59.99487643695273,
,,,,,,,,,,,,,,,,4,8.65,9.55,10.45,11.35,0,0.9,0.35,0.55,3.25,10,initial,36.05,312,344,377,409,0,9,9,9,9,0,,,,,,,3,0,3,0,0,50,50,16,,,,,,,,,,,,num_4,1.1934475000016391,num_4,0.3,0.9,0.39999999999999997,0.9,15.2822,34.38495,return,2.7559408000088297,,,,,,,,,,,,,,,,,902,19,female,up_down_width,2024-10-11_18h39.59.229,exp1,2023.1.0,59.99487643695273,
,,,,,,,,,,,,,,,,4,8.65,9.55,10.45,11.35,0,0.9,0.35,0.55,3.25,10,initial,36.05,312,344,377,409,0,9,9,9,9,0,,,,,,,3,0,3,0,0,51,51,9,,,,,,,,,,,,num_4,0.768788899993524,num_4,0.55,1.3,0.45,0.8,17.19248,30.5644,return,2.026395799999591,,,,,,,,,,,,,,,,,902,19,female,up_down_width,2024-10-11_18h39.59.229,exp1,2023.1.0,59.99487643695273,
,,,,,,,,,,,,,,,,4,8.65,9.55,10.45,11.35,0,0.9,0.35,0.55,3.25,10,initial,36.05,312,344,377,409,0,9,9,9,9,0,,,,,,,3,0,3,0,0,52,52,38,,,,,,,,,,,,num_4,0.9779435000091325,num_4,0.4,0.6,0.4,0.7,15.2822,26.74385,return,1.8493182999955025,,,,,,,,,,,,,,,,,902,19,female,up_down_width,2024-10-11_18h39.59.229,exp1,2023.1.0,59.99487643695273,
,,,,,,,,,,,,,,,,5,8.2,9.1,10,10.9,11.8,0.9,0.35,0.55,4.15,10,initial,36.05,296,328,361,393,425,9,9,9,9,9,,,,,,,3,0,3,0,0,53,53,46,,,,,,,,,,,,num_5,0.8727425999823026,num_5,0.25,0.3,0.35,0.95,13.37193,36.29523,return,3.88880230000359,,,,,,,,,,,,,,,,,902,19,female,up_down_width,2024-10-11_18h39.59.229,exp1,2023.1.0,59.99487643695273,
,,,,,,,,,,,,,,,,,,,,,,,,,,,,,,,,,,,,,,,,,,,,,3,0,3,0,,,,,,,,,,,,,,,,,,,,,,,,,,,,,1860.4463339000067,1860.4463339000067,1860.4463339000067,,,,,,,,,,,,902,19,female,up_down_width,2024-10-11_18h39.59.229,exp1,2023.1.0,59.99487643695273,
,,,,,,,,,,,,,,,,5,9,9.5,10,10.5,11,0.5,0.1,0.4,2.4,10,initial,36.05,324,342,361,379,397,9,9,9,9,9,,,,,,,4,0,4,0,0,0,0,50,,,,,,,,,,,,num_3,2.015514400001848,num_3,0.25,0.7,0.39999999999999997,0.6,15.2822,22.9233,return,2.878245500003686,,,,,,,,,,,,,,,,,902,19,female,up_down_width,2024-10-11_18h39.59.229,exp1,2023.1.0,59.99487643695273,
,,,,,,,,,,,,,,,,5,9,9.5,10,10.5,11,0.5,0.1,0.4,2.4,10,initial,36.05,324,342,361,379,397,9,9,9,9,9,,,,,,,4,0,4,0,0,1,1,47,,,,,,,,,,,,num_5,1.4845729999942705,num_5,0.35,0.6,0.3,0.5,11.46165,19.10275,return,3.035882700001821,,,,,,,,,,,,,,,,,902,19,female,up_down_width,2024-10-11_18h39.59.229,exp1,2023.1.0,59.99487643695273,
,,,,,,,,,,,,,,,,5,9,9.5,10,10.5,11,0.5,0.1,0.4,2.4,10,initial,36.05,324,342,361,379,397,9,9,9,9,9,,,,,,,4,0,4,0,0,2,2,49,,,,,,,,,,,,num_5,0.9825121000176296,num_5,0.35,1.2,0.35,0.6,13.37193,22.9233,return,3.111829099972965,,,,,,,,,,,,,,,,,902,19,female,up_down_width,2024-10-11_18h39.59.229,exp1,2023.1.0,59.99487643695273,
,,,,,,,,,,,,,,,,3,9.5,10,10.5,0,0,0.5,0.1,0.4,1.4000000000000001,10,initial,36.05,342,361,379,0,0,9,9,9,0,0,,,,,,,4,0,4,0,0,3,3,3,,,,,,,,,,,,num_2,0.835779300017748,num_2,0.2,1.4,0.3,0.5,11.46165,19.10275,return,2.8246030999871437,,,,,,,,,,,,,,,,,902,19,female,up_down_width,2024-10-11_18h39.59.229,exp1,2023.1.0,59.99487643695273,
,,,,,,,,,,,,,,,,4,9.25,9.75,10.25,10.75,0,0.5,0.1,0.4,1.9000000000000001,10,initial,36.05,333,351,370,388,0,9,9,9,9,0,,,,,,,4,0,4,0,0,4,4,40,,,,,,,,,,,,num_3,0.8186677999910899,num_3,0.25,0.5,0.25,0.5,9.55138,19.10275,return,0.8905372000008356,,,,,,,,,,,,,,,,,902,19,female,up_down_width,2024-10-11_18h39.59.229,exp1,2023.1.0,59.99487643695273,
,,,,,,,,,,,,,,,,4,9.25,9.75,10.25,10.75,0,0.5,0.1,0.4,1.9000000000000001,10,initial,36.05,333,351,370,388,0,9,9,9,9,0,,,,,,,4,0,4,0,0,5,5,38,,,,,,,,,,,,num_3,0.8159002000174951,num_3,0.3,1.2,0.3,0.6,11.46165,22.9233,return,3.054478800011566,,,,,,,,,,,,,,,,,902,19,female,up_down_width,2024-10-11_18h39.59.229,exp1,2023.1.0,59.99487643695273,
,,,,,,,,,,,,,,,,4,9.25,9.75,10.25,10.75,0,0.5,0.1,0.4,1.9000000000000001,10,initial,36.05,333,351,370,388,0,9,9,9,9,0,,,,,,,4,0,4,0,0,6,6,14,,,,,,,,,,,,num_4,0.9871485999901779,num_4,0.35,1.3,0.3,0.5,11.46165,19.10275,return,2.5568971000029705,,,,,,,,,,,,,,,,,902,19,female,up_down_width,2024-10-11_18h39.59.229,exp1,2023.1.0,59.99487643695273,
,,,,,,,,,,,,,,,,4,9.25,9.75,10.25,10.75,0,0.5,0.1,0.4,1.9000000000000001,10,initial,36.05,333,351,370,388,0,9,9,9,9,0,,,,,,,4,0,4,0,0,7,7,10,,,,,,,,,,,,num_3,0.9820633000053931,num_3,0.35,1.2,0.44999999999999996,0.75,17.19248,28.65413,return,2.9101097999955527,,,,,,,,,,,,,,,,,902,19,female,up_down_width,2024-10-11_18h39.59.229,exp1,2023.1.0,59.99487643695273,
,,,,,,,,,,,,,,,,4,9.25,9.75,10.25,10.75,0,0.5,0.1,0.4,1.9000000000000001,10,initial,36.05,333,351,370,388,0,9,9,9,9,0,,,,,,,4,0,4,0,0,8,8,9,,,,,,,,,,,,num_4,1.1007078000111505,num_4,0.4,0.7,0.35000000000000003,0.6,13.37193,22.9233,return,2.49276930000633,,,,,,,,,,,,,,,,,902,19,female,up_down_width,2024-10-11_18h39.59.229,exp1,2023.1.0,59.99487643695273,
,,,,,,,,,,,,,,,,4,9.25,9.75,10.25,10.75,0,0.5,0.1,0.4,1.9000000000000001,10,initial,36.05,333,351,370,388,0,9,9,9,9,0,,,,,,,4,0,4,0,0,9,9,41,,,,,,,,,,,,num_3,1.8073915999848396,num_3,0.5,1.2,0.35000000000000003,0.65,13.37193,24.83358,return,3.6987810999853536,,,,,,,,,,,,,,,,,902,19,female,up_down_width,2024-10-11_18h39.59.229,exp1,2023.1.0,59.99487643695273,
,,,,,,,,,,,,,,,,4,9.25,9.75,10.25,10.75,0,0.5,0.1,0.4,1.9000000000000001,10,initial,36.05,333,351,370,388,0,9,9,9,9,0,,,,,,,4,0,4,0,0,10,10,16,,,,,,,,,,,,num_3,1.0183912999927998,num_3,0.3,1.1,0.44999999999999996,0.6,17.19248,22.9233,return,3.4057239000103436,,,,,,,,,,,,,,,,,902,19,female,up_down_width,2024-10-11_18h39.59.229,exp1,2023.1.0,59.99487643695273,
,,,,,,,,,,,,,,,,3,9.5,10,10.5,0,0,0.5,0.1,0.4,1.4000000000000001,10,initial,36.05,342,361,379,0,0,9,9,9,0,0,,,,,,,4,0,4,0,0,11,11,2,,,,,,,,,,,,num_3,0.9975704000098631,num_3,0.25,0.6,0.3,0.55,11.46165,21.01303,return,2.8705940999789163,,,,,,,,,,,,,,,,,902,19,female,up_down_width,2024-10-11_18h39.59.229,exp1,2023.1.0,59.99487643695273,
,,,,,,,,,,,,,,,,5,9,9.5,10,10.5,11,0.5,0.1,0.4,2.4,10,initial,36.05,324,342,361,379,397,9,9,9,9,9,,,,,,,4,0,4,0,0,12,12,18,,,,,,,,,,,,num_5,0.9277269000012893,num_5,0.3,1.1,0.25,0.4,9.55138,15.2822,return,3.8482305000070482,,,,,,,,,,,,,,,,,902,19,female,up_down_width,2024-10-11_18h39.59.229,exp1,2023.1.0,59.99487643695273,
,,,,,,,,,,,,,,,,5,9,9.5,10,10.5,11,0.5,0.1,0.4,2.4,10,initial,36.05,324,342,361,379,397,9,9,9,9,9,,,,,,,4,0,4,0,0,13,13,19,,,,,,,,,,,,num_5,0.8555770000093617,num_5,0.2,0.6,0.3,0.45,11.46165,17.19248,return,2.7247711999807507,,,,,,,,,,,,,,,,,902,19,female,up_down_width,2024-10-11_18h39.59.229,exp1,2023.1.0,59.99487643695273,
,,,,,,,,,,,,,,,,3,9.5,10,10.5,0,0,0.5,0.1,0.4,1.4000000000000001,10,initial,36.05,342,361,379,0,0,9,9,9,0,0,,,,,,,4,0,4,0,0,14,14,6,,,,,,,,,,,,num_3,0.7929750000184868,num_3,0.5,0.9,0.35000000000000003,0.6,13.37193,22.9233,return,2.5357175999961328,,,,,,,,,,,,,,,,,902,19,female,up_down_width,2024-10-11_18h39.59.229,exp1,2023.1.0,59.99487643695273,
,,,,,,,,,,,,,,,,3,9.5,10,10.5,0,0,0.5,0.1,0.4,1.4000000000000001,10,initial,36.05,342,361,379,0,0,9,9,9,0,0,,,,,,,4,0,4,0,0,15,15,35,,,,,,,,,,,,num_3,1.0783356999745592,num_3,0.55,1.2,0.35000000000000003,0.55,13.37193,21.01303,return,4.457342999987304,,,,,,,,,,,,,,,,,902,19,female,up_down_width,2024-10-11_18h39.59.229,exp1,2023.1.0,59.99487643695273,
,,,,,,,,,,,,,,,,3,9.5,10,10.5,0,0,0.5,0.1,0.4,1.4000000000000001,10,initial,36.05,342,361,379,0,0,9,9,9,0,0,,,,,,,4,0,4,0,0,16,16,31,,,,,,,,,,,,num_2,0.8406575999979395,num_2,0.55,1.2,0.4,0.5,15.2822,19.10275,return,2.8498211999831256,,,,,,,,,,,,,,,,,902,19,female,up_down_width,2024-10-11_18h39.59.229,exp1,2023.1.0,59.99487643695273,
,,,,,,,,,,,,,,,,5,9,9.5,10,10.5,11,0.5,0.1,0.4,2.4,10,initial,36.05,324,342,361,379,397,9,9,9,9,9,,,,,,,4,0,4,0,0,17,17,25,,,,,,,,,,,,num_5,0.8939175000123214,num_5,0.45,0.8,0.30000000000000004,0.45,11.46165,17.19248,return,2.649299599986989,,,,,,,,,,,,,,,,,902,19,female,up_down_width,2024-10-11_18h39.59.229,exp1,2023.1.0,59.99487643695273,
,,,,,,,,,,,,,,,,3,9.5,10,10.5,0,0,0.5,0.1,0.4,1.4000000000000001,10,initial,36.05,342,361,379,0,0,9,9,9,0,0,,,,,,,4,0,4,0,0,18,18,28,,,,,,,,,,,,num_2,1.090710200020112,num_2,0.45,0.8,0.30000000000000004,0.5,11.46165,19.10275,return,1.3922545000095852,,,,,,,,,,,,,,,,,902,19,female,up_down_width,2024-10-11_18h39.59.229,exp1,2023.1.0,59.99487643695273,
,,,,,,,,,,,,,,,,4,9.25,9.75,10.25,10.75,0,0.5,0.1,0.4,1.9000000000000001,10,initial,36.05,333,351,370,388,0,9,9,9,9,0,,,,,,,4,0,4,0,0,19,19,11,,,,,,,,,,,,num_5,0.7839799999783281,num_5,0.45,0.5,0.35000000000000003,0.6,13.37193,22.9233,return,4.094276999996509,,,,,,,,,,,,,,,,,902,19,female,up_down_width,2024-10-11_18h39.59.229,exp1,2023.1.0,59.99487643695273,
,,,,,,,,,,,,,,,,5,9,9.5,10,10.5,11,0.5,0.1,0.4,2.4,10,initial,36.05,324,342,361,379,397,9,9,9,9,9,,,,,,,4,0,4,0,0,20,20,46,,,,,,,,,,,,num_5,0.874069999990752,num_5,0.45,0.7,0.30000000000000004,0.45,11.46165,17.19248,return,2.013649999978952,,,,,,,,,,,,,,,,,902,19,female,up_down_width,2024-10-11_18h39.59.229,exp1,2023.1.0,59.99487643695273,
,,,,,,,,,,,,,,,,3,9.5,10,10.5,0,0,0.5,0.1,0.4,1.4000000000000001,10,initial,36.05,342,361,379,0,0,9,9,9,0,0,,,,,,,4,0,4,0,0,21,21,7,,,,,,,,,,,,num_3,1.207515499991132,num_3,0.25,1.2,0.39999999999999997,0.6,15.2822,22.9233,return,3.937343300000066,,,,,,,,,,,,,,,,,902,19,female,up_down_width,2024-10-11_18h39.59.229,exp1,2023.1.0,59.99487643695273,
,,,,,,,,,,,,,,,,3,9.5,10,10.5,0,0,0.5,0.1,0.4,1.4000000000000001,10,initial,36.05,342,361,379,0,0,9,9,9,0,0,,,,,,,4,0,4,0,0,22,22,34,,,,,,,,,,,,num_2,1.1898931000032462,num_2,0.5,0.6,0.35000000000000003,0.5,13.37193,19.10275,return,1.9306464999972377,,,,,,,,,,,,,,,,,902,19,female,up_down_width,2024-10-11_18h39.59.229,exp1,2023.1.0,59.99487643695273,
,,,,,,,,,,,,,,,,4,9.25,9.75,10.25,10.75,0,0.5,0.1,0.4,1.9000000000000001,10,initial,36.05,333,351,370,388,0,9,9,9,9,0,,,,,,,4,0,4,0,0,23,23,42,,,,,,,,,,,,num_3,0.9530768999829888,num_3,0.2,0.5,0.39999999999999997,0.65,15.2822,24.83358,return,2.1207284000120126,,,,,,,,,,,,,,,,,902,19,female,up_down_width,2024-10-11_18h39.59.229,exp1,2023.1.0,59.99487643695273,
,,,,,,,,,,,,,,,,4,9.25,9.75,10.25,10.75,0,0.5,0.1,0.4,1.9000000000000001,10,initial,36.05,333,351,370,388,0,9,9,9,9,0,,,,,,,4,0,4,0,0,24,24,15,,,,,,,,,,,,num_5,0.7890787999785971,num_5,0.2,0.3,0.35,0.65,13.37193,24.83358,return,2.9805289000214543,,,,,,,,,,,,,,,,,902,19,female,up_down_width,2024-10-11_18h39.59.229,exp1,2023.1.0,59.99487643695273,
,,,,,,,,,,,,,,,,4,9.25,9.75,10.25,10.75,0,0.5,0.1,0.4,1.9000000000000001,10,initial,36.05,333,351,370,388,0,9,9,9,9,0,,,,,,,4,0,4,0,0,25,25,44,,,,,,,,,,,,num_4,0.8843275000108406,num_4,0.45,0.9,0.35000000000000003,0.5,13.37193,19.10275,return,2.0405123999807984,,,,,,,,,,,,,,,,,902,19,female,up_down_width,2024-10-11_18h39.59.229,exp1,2023.1.0,59.99487643695273,
,,,,,,,,,,,,,,,,5,9,9.5,10,10.5,11,0.5,0.1,0.4,2.4,10,initial,36.05,324,342,361,379,397,9,9,9,9,9,,,,,,,4,0,4,0,0,26,26,53,,,,,,,,,,,,num_5,0.7570201999915298,num_5,0.5,0.7,0.25000000000000006,0.6,9.55138,22.9233,return,5.2834088999952655,,,,,,,,,,,,,,,,,902,19,female,up_down_width,2024-10-11_18h39.59.229,exp1,2023.1.0,59.99487643695273,
,,,,,,,,,,,,,,,,3,9.5,10,10.5,0,0,0.5,0.1,0.4,1.4000000000000001,10,initial,36.05,342,361,379,0,0,9,9,9,0,0,,,,,,,4,0,4,0,0,27,27,1,,,,,,,,,,,,num_2,0.8992766999872401,num_2,0.45,1.2,0.35000000000000003,0.5,13.37193,19.10275,return,2.5555594000034034,,,,,,,,,,,,,,,,,902,19,female,up_down_width,2024-10-11_18h39.59.229,exp1,2023.1.0,59.99487643695273,
,,,,,,,,,,,,,,,,5,9,9.5,10,10.5,11,0.5,0.1,0.4,2.4,10,initial,36.05,324,342,361,379,397,9,9,9,9,9,,,,,,,4,0,4,0,0,28,28,51,,,,,,,,,,,,num_5,0.9080824000120629,num_5,0.3,1.1,0.35,0.55,13.37193,21.01303,return,3.6822331000003032,,,,,,,,,,,,,,,,,902,19,female,up_down_width,2024-10-11_18h39.59.229,exp1,2023.1.0,59.99487643695273,
,,,,,,,,,,,,,,,,3,9.5,10,10.5,0,0,0.5,0.1,0.4,1.4000000000000001,10,initial,36.05,342,361,379,0,0,9,9,9,0,0,,,,,,,4,0,4,0,0,29,29,8,,,,,,,,,,,,num_2,0.8517172999854665,num_2,0.3,0.6,0.25,0.6,9.55138,22.9233,return,1.354812099976698,,,,,,,,,,,,,,,,,902,19,female,up_down_width,2024-10-11_18h39.59.229,exp1,2023.1.0,59.99487643695273,
,,,,,,,,,,,,,,,,5,9,9.5,10,10.5,11,0.5,0.1,0.4,2.4,10,initial,36.05,324,342,361,379,397,9,9,9,9,9,,,,,,,4,0,4,0,0,30,30,24,,,,,,,,,,,,num_5,0.7656049000215717,num_5,0.4,0.9,0.4,0.6,15.2822,22.9233,return,3.1128233000054024,,,,,,,,,,,,,,,,,902,19,female,up_down_width,2024-10-11_18h39.59.229,exp1,2023.1.0,59.99487643695273,
,,,,,,,,,,,,,,,,3,9.5,10,10.5,0,0,0.5,0.1,0.4,1.4000000000000001,10,initial,36.05,342,361,379,0,0,9,9,9,0,0,,,,,,,4,0,4,0,0,31,31,27,,,,,,,,,,,,num_2,0.8366978999983985,num_2,0.5,1.6,0.25000000000000006,0.4,9.55138,15.2822,return,4.031557899987092,,,,,,,,,,,,,,,,,902,19,female,up_down_width,2024-10-11_18h39.59.229,exp1,2023.1.0,59.99487643695273,
,,,,,,,,,,,,,,,,4,9.25,9.75,10.25,10.75,0,0.5,0.1,0.4,1.9000000000000001,10,initial,36.05,333,351,370,388,0,9,9,9,9,0,,,,,,,4,0,4,0,0,32,32,36,,,,,,,,,,,,num_3,0.9621583999833092,num_3,0.3,1.3,0.3,0.5,11.46165,19.10275,return,3.430202499992447,,,,,,,,,,,,,,,,,902,19,female,up_down_width,2024-10-11_18h39.59.229,exp1,2023.1.0,59.99487643695273,
,,,,,,,,,,,,,,,,4,9.25,9.75,10.25,10.75,0,0.5,0.1,0.4,1.9000000000000001,10,initial,36.05,333,351,370,388,0,9,9,9,9,0,,,,,,,4,0,4,0,0,33,33,13,,,,,,,,,,,,num_4,0.8568491999758407,num_4,0.25,1.1,0.35,0.7,13.37193,26.74385,return,3.2531492999987677,,,,,,,,,,,,,,,,,902,19,female,up_down_width,2024-10-11_18h39.59.229,exp1,2023.1.0,59.99487643695273,
,,,,,,,,,,,,,,,,5,9,9.5,10,10.5,11,0.5,0.1,0.4,2.4,10,initial,36.05,324,342,361,379,397,9,9,9,9,9,,,,,,,4,0,4,0,0,34,34,26,,,,,,,,,,,,num_5,0.8451167999883182,num_5,0.4,1.1,0.30000000000000004,0.5,11.46165,19.10275,return,3.3057748999854084,,,,,,,,,,,,,,,,,902,19,female,up_down_width,2024-10-11_18h39.59.229,exp1,2023.1.0,59.99487643695273,
,,,,,,,,,,,,,,,,3,9.5,10,10.5,0,0,0.5,0.1,0.4,1.4000000000000001,10,initial,36.05,342,361,379,0,0,9,9,9,0,0,,,,,,,4,0,4,0,0,35,35,33,,,,,,,,,,,,num_2,0.8697632999974303,num_2,0.2,1.4,0.35,0.5,13.37193,19.10275,return,2.6840775000164285,,,,,,,,,,,,,,,,,902,19,female,up_down_width,2024-10-11_18h39.59.229,exp1,2023.1.0,59.99487643695273,
,,,,,,,,,,,,,,,,3,9.5,10,10.5,0,0,0.5,0.1,0.4,1.4000000000000001,10,initial,36.05,342,361,379,0,0,9,9,9,0,0,,,,,,,4,0,4,0,0,36,36,0,,,,,,,,,,,,num_2,0.8482717000006232,num_2,0.4,1.6,0.4,0.6,15.2822,22.9233,return,2.5199696000199765,,,,,,,,,,,,,,,,,902,19,female,up_down_width,2024-10-11_18h39.59.229,exp1,2023.1.0,59.99487643695273,
,,,,,,,,,,,,,,,,3,9.5,10,10.5,0,0,0.5,0.1,0.4,1.4000000000000001,10,initial,36.05,342,361,379,0,0,9,9,9,0,0,,,,,,,4,0,4,0,0,37,37,5,,,,,,,,,,,,num_2,0.8013815999729559,num_2,0.55,0.6,0.30000000000000004,0.5,11.46165,19.10275,return,2.143015200010268,,,,,,,,,,,,,,,,,902,19,female,up_down_width,2024-10-11_18h39.59.229,exp1,2023.1.0,59.99487643695273,
,,,,,,,,,,,,,,,,5,9,9.5,10,10.5,11,0.5,0.1,0.4,2.4,10,initial,36.05,324,342,361,379,397,9,9,9,9,9,,,,,,,4,0,4,0,0,38,38,20,,,,,,,,,,,,num_5,0.8620610999932978,num_5,0.3,1.3,0.25,0.4,9.55138,15.2822,return,5.174261399981333,,,,,,,,,,,,,,,,,902,19,female,up_down_width,2024-10-11_18h39.59.229,exp1,2023.1.0,59.99487643695273,
,,,,,,,,,,,,,,,,5,9,9.5,10,10.5,11,0.5,0.1,0.4,2.4,10,initial,36.05,324,342,361,379,397,9,9,9,9,9,,,,,,,4,0,4,0,0,39,39,45,,,,,,,,,,,,num_5,0.812732499995036,num_5,0.2,0.6,0.35,0.5,13.37193,19.10275,return,1.7700182999833487,,,,,,,,,,,,,,,,,902,19,female,up_down_width,2024-10-11_18h39.59.229,exp1,2023.1.0,59.99487643695273,
,,,,,,,,,,,,,,,,3,9.5,10,10.5,0,0,0.5,0.1,0.4,1.4000000000000001,10,initial,36.05,342,361,379,0,0,9,9,9,0,0,,,,,,,4,0,4,0,0,40,40,32,,,,,,,,,,,,num_3,1.3083917000039946,num_3,0.35,0.5,0.3,0.6,11.46165,22.9233,return,2.438997699995525,,,,,,,,,,,,,,,,,902,19,female,up_down_width,2024-10-11_18h39.59.229,exp1,2023.1.0,59.99487643695273,
,,,,,,,,,,,,,,,,5,9,9.5,10,10.5,11,0.5,0.1,0.4,2.4,10,initial,36.05,324,342,361,379,397,9,9,9,9,9,,,,,,,4,0,4,0,0,41,41,21,,,,,,,,,,,,num_5,0.8927668999822345,num_5,0.45,0.7,0.30000000000000004,0.45,11.46165,17.19248,return,2.6402582000009716,,,,,,,,,,,,,,,,,902,19,female,up_down_width,2024-10-11_18h39.59.229,exp1,2023.1.0,59.99487643695273,
,,,,,,,,,,,,,,,,3,9.5,10,10.5,0,0,0.5,0.1,0.4,1.4000000000000001,10,initial,36.05,342,361,379,0,0,9,9,9,0,0,,,,,,,4,0,4,0,0,42,42,29,,,,,,,,,,,,num_2,1.6272000999888405,num_2,0.25,0.8,0.3,0.5,11.46165,19.10275,return,3.704268500005128,,,,,,,,,,,,,,,,,902,19,female,up_down_width,2024-10-11_18h39.59.229,exp1,2023.1.0,59.99487643695273,
,,,,,,,,,,,,,,,,3,9.5,10,10.5,0,0,0.5,0.1,0.4,1.4000000000000001,10,initial,36.05,342,361,379,0,0,9,9,9,0,0,,,,,,,4,0,4,0,0,43,43,4,,,,,,,,,,,,num_2,0.9039833999995608,num_2,0.3,1.4,0.3,0.6,11.46165,22.9233,return,3.5543234000215307,,,,,,,,,,,,,,,,,902,19,female,up_down_width,2024-10-11_18h39.59.229,exp1,2023.1.0,59.99487643695273,
,,,,,,,,,,,,,,,,3,9.5,10,10.5,0,0,0.5,0.1,0.4,1.4000000000000001,10,initial,36.05,342,361,379,0,0,9,9,9,0,0,,,,,,,4,0,4,0,0,44,44,30,,,,,,,,,,,,num_2,0.8595421999925748,num_2,0.55,0.8,0.4,0.7,15.2822,26.74385,return,1.5121978000097442,,,,,,,,,,,,,,,,,902,19,female,up_down_width,2024-10-11_18h39.59.229,exp1,2023.1.0,59.99487643695273,
,,,,,,,,,,,,,,,,5,9,9.5,10,10.5,11,0.5,0.1,0.4,2.4,10,initial,36.05,324,342,361,379,397,9,9,9,9,9,,,,,,,4,0,4,0,0,45,45,23,,,,,,,,,,,,num_5,0.9953201999887824,num_5,0.2,1.2,0.3,0.5,11.46165,19.10275,return,4.007889100001194,,,,,,,,,,,,,,,,,902,19,female,up_down_width,2024-10-11_18h39.59.229,exp1,2023.1.0,59.99487643695273,
,,,,,,,,,,,,,,,,5,9,9.5,10,10.5,11,0.5,0.1,0.4,2.4,10,initial,36.05,324,342,361,379,397,9,9,9,9,9,,,,,,,4,0,4,0,0,46,46,52,,,,,,,,,,,,num_4,0.6894258999964222,num_4,0.4,0.9,0.30000000000000004,0.6,11.46165,22.9233,return,2.307286799972644,,,,,,,,,,,,,,,,,902,19,female,up_down_width,2024-10-11_18h39.59.229,exp1,2023.1.0,59.99487643695273,
,,,,,,,,,,,,,,,,5,9,9.5,10,10.5,11,0.5,0.1,0.4,2.4,10,initial,36.05,324,342,361,379,397,9,9,9,9,9,,,,,,,4,0,4,0,0,47,47,22,,,,,,,,,,,,num_5,0.8317255000001751,num_5,0.35,1.3,0.35,0.5,13.37193,19.10275,return,3.7580670999886934,,,,,,,,,,,,,,,,,902,19,female,up_down_width,2024-10-11_18h39.59.229,exp1,2023.1.0,59.99487643695273,
,,,,,,,,,,,,,,,,5,9,9.5,10,10.5,11,0.5,0.1,0.4,2.4,10,initial,36.05,324,342,361,379,397,9,9,9,9,9,,,,,,,4,0,4,0,0,48,48,48,,,,,,,,,,,,num_5,0.9975127000070643,num_5,0.45,1.2,0.30000000000000004,0.55,11.46165,21.01303,return,3.414944199990714,,,,,,,,,,,,,,,,,902,19,female,up_down_width,2024-10-11_18h39.59.229,exp1,2023.1.0,59.99487643695273,
,,,,,,,,,,,,,,,,4,9.25,9.75,10.25,10.75,0,0.5,0.1,0.4,1.9000000000000001,10,initial,36.05,333,351,370,388,0,9,9,9,9,0,,,,,,,4,0,4,0,0,49,49,17,,,,,,,,,,,,num_5,0.849340899992967,num_5,0.25,1.3,0.25,0.4,9.55138,15.2822,return,3.931066399993142,,,,,,,,,,,,,,,,,902,19,female,up_down_width,2024-10-11_18h39.59.229,exp1,2023.1.0,59.99487643695273,
,,,,,,,,,,,,,,,,4,9.25,9.75,10.25,10.75,0,0.5,0.1,0.4,1.9000000000000001,10,initial,36.05,333,351,370,388,0,9,9,9,9,0,,,,,,,4,0,4,0,0,50,50,43,,,,,,,,,,,,num_4,0.8997105000016745,num_4,0.35,0.9,0.3,0.5,11.46165,19.10275,return,3.085653599991929,,,,,,,,,,,,,,,,,902,19,female,up_down_width,2024-10-11_18h39.59.229,exp1,2023.1.0,59.99487643695273,
,,,,,,,,,,,,,,,,4,9.25,9.75,10.25,10.75,0,0.5,0.1,0.4,1.9000000000000001,10,initial,36.05,333,351,370,388,0,9,9,9,9,0,,,,,,,4,0,4,0,0,51,51,39,,,,,,,,,,,,num_4,0.8645542000012938,num_4,0.2,0.4,0.35,0.7,13.37193,26.74385,return,2.5066129000042565,,,,,,,,,,,,,,,,,902,19,female,up_down_width,2024-10-11_18h39.59.229,exp1,2023.1.0,59.99487643695273,
,,,,,,,,,,,,,,,,4,9.25,9.75,10.25,10.75,0,0.5,0.1,0.4,1.9000000000000001,10,initial,36.05,333,351,370,388,0,9,9,9,9,0,,,,,,,4,0,4,0,0,52,52,37,,,,,,,,,,,,num_4,0.769413900008658,num_4,0.3,1.0,0.35,0.6,13.37193,22.9233,return,3.1808162999805063,,,,,,,,,,,,,,,,,902,19,female,up_down_width,2024-10-11_18h39.59.229,exp1,2023.1.0,59.99487643695273,
,,,,,,,,,,,,,,,,4,9.25,9.75,10.25,10.75,0,0.5,0.1,0.4,1.9000000000000001,10,initial,36.05,333,351,370,388,0,9,9,9,9,0,,,,,,,4,0,4,0,0,53,53,12,,,,,,,,,,,,num_4,0.8632419999921694,num_4,0.25,1.0,0.3,0.5,11.46165,19.10275,return,3.6527665999892633,,,,,,,,,,,,,,,,,902,19,female,up_down_width,2024-10-11_18h39.59.229,exp1,2023.1.0,59.99487643695273,
,,,,,,,,,,,,,,,,,,,,,,,,,,,,,,,,,,,,,,,,,,,,,4,0,4,0,,,,,,,,,,,,,,,,,,,,,,,,,,,,,2311.6288722000027,2311.6288722000027,2311.6288722000027,,,,,,,,,,,,902,19,female,up_down_width,2024-10-11_18h39.59.229,exp1,2023.1.0,59.99487643695273,
,,,,,,,,,,,,,,,,4,9.25,9.75,10.25,10.75,0,0.5,0.25,0.25,1.75,10,initial,36.05,333,351,370,388,0,9,9,9,9,0,,,,,,,5,0,5,0,0,0,0,13,,,,,,,,,,,,num_3,1.0388759000052232,num_3,0.2,1.3,0.2,1.05,7.6411,40.11578,return,2.2909645999898203,,,,,,,,,,,,,,,,,902,19,female,up_down_width,2024-10-11_18h39.59.229,exp1,2023.1.0,59.99487643695273,
,,,,,,,,,,,,,,,,3,9.5,10,10.5,0,0,0.5,0.25,0.25,1.25,10,initial,36.05,342,361,379,0,0,9,9,9,0,0,,,,,,,5,0,5,0,0,1,1,2,,,,,,,,,,,,num_2,0.975830000010319,num_2,0.2,1.2,0.15000000000000002,0.7,5.73083,26.74385,return,2.120452400005888,,,,,,,,,,,,,,,,,902,19,female,up_down_width,2024-10-11_18h39.59.229,exp1,2023.1.0,59.99487643695273,
,,,,,,,,,,,,,,,,5,9,9.5,10,10.5,11,0.5,0.25,0.25,2.25,10,initial,36.05,324,342,361,379,397,9,9,9,9,9,,,,,,,5,0,5,0,0,2,2,49,,,,,,,,,,,,num_5,1.2159428999875672,num_5,0.25,0.3,0.15000000000000002,0.6,5.73083,22.9233,return,5.29318599999533,,,,,,,,,,,,,,,,,902,19,female,up_down_width,2024-10-11_18h39.59.229,exp1,2023.1.0,59.99487643695273,
,,,,,,,,,,,,,,,,3,9.5,10,10.5,0,0,0.5,0.25,0.25,1.25,10,initial,36.05,342,361,379,0,0,9,9,9,0,0,,,,,,,5,0,5,0,0,3,3,0,,,,,,,,,,,,num_2,0.9944045000011101,num_2,0.3,1.6,0.2,0.7,7.6411,26.74385,return,4.088184799998999,,,,,,,,,,,,,,,,,902,19,female,up_down_width,2024-10-11_18h39.59.229,exp1,2023.1.0,59.99487643695273,
,,,,,,,,,,,,,,,,5,9,9.5,10,10.5,11,0.5,0.25,0.25,2.25,10,initial,36.05,324,342,361,379,397,9,9,9,9,9,,,,,,,5,0,5,0,0,4,4,45,,,,,,,,,,,,num_5,0.8515857000020333,num_5,0.3,0.6,0.2,0.5,7.6411,19.10275,return,2.176354099996388,,,,,,,,,,,,,,,,,902,19,female,up_down_width,2024-10-11_18h39.59.229,exp1,2023.1.0,59.99487643695273,
,,,,,,,,,,,,,,,,5,9,9.5,10,10.5,11,0.5,0.25,0.25,2.25,10,initial,36.05,324,342,361,379,397,9,9,9,9,9,,,,,,,5,0,5,0,0,5,5,52,,,,,,,,,,,,num_5,0.9139225000108127,num_5,0.3,1.0,0.25,0.65,9.55138,24.83358,return,3.276467500021681,,,,,,,,,,,,,,,,,902,19,female,up_down_width,2024-10-11_18h39.59.229,exp1,2023.1.0,59.99487643695273,
,,,,,,,,,,,,,,,,5,9,9.5,10,10.5,11,0.5,0.25,0.25,2.25,10,initial,36.05,324,342,361,379,397,9,9,9,9,9,,,,,,,5,0,5,0,0,6,6,48,,,,,,,,,,,,num_5,0.779047799995169,num_5,0.3,0.6,0.2,0.45,7.6411,17.19248,return,1.9746328000037465,,,,,,,,,,,,,,,,,902,19,female,up_down_width,2024-10-11_18h39.59.229,exp1,2023.1.0,59.99487643695273,
,,,,,,,,,,,,,,,,5,9,9.5,10,10.5,11,0.5,0.25,0.25,2.25,10,initial,36.05,324,342,361,379,397,9,9,9,9,9,,,,,,,5,0,5,0,0,7,7,50,,,,,,,,,,,,num_5,1.0521398999844678,num_5,0.55,1.1,0.25000000000000006,0.6,9.55138,22.9233,return,4.144516499974998,,,,,,,,,,,,,,,,,902,19,female,up_down_width,2024-10-11_18h39.59.229,exp1,2023.1.0,59.99487643695273,
,,,,,,,,,,,,,,,,4,9.25,9.75,10.25,10.75,0,0.5,0.25,0.25,1.75,10,initial,36.05,333,351,370,388,0,9,9,9,9,0,,,,,,,5,0,5,0,0,8,8,42,,,,,,,,,,,,num_4,1.1071173000091221,num_4,0.35,0.4,0.15000000000000002,0.7,5.73083,26.74385,return,6.800853499997174,,,,,,,,,,,,,,,,,902,19,female,up_down_width,2024-10-11_18h39.59.229,exp1,2023.1.0,59.99487643695273,
,,,,,,,,,,,,,,,,4,9.25,9.75,10.25,10.75,0,0.5,0.25,0.25,1.75,10,initial,36.05,333,351,370,388,0,9,9,9,9,0,,,,,,,5,0,5,0,0,9,9,11,,,,,,,,,,,,num_4,0.9017466000223067,num_4,0.3,0.9,0.15000000000000002,0.8,5.73083,30.5644,return,5.853459000005387,,,,,,,,,,,,,,,,,902,19,female,up_down_width,2024-10-11_18h39.59.229,exp1,2023.1.0,59.99487643695273,
,,,,,,,,,,,,,,,,3,9.5,10,10.5,0,0,0.5,0.25,0.25,1.25,10,initial,36.05,342,361,379,0,0,9,9,9,0,0,,,,,,,5,0,5,0,0,10,10,4,,,,,,,,,,,,num_2,0.8184719000128098,num_2,0.3,1.2,0.2,0.6,7.6411,22.9233,return,2.0937632000132,,,,,,,,,,,,,,,,,902,19,female,up_down_width,2024-10-11_18h39.59.229,exp1,2023.1.0,59.99487643695273,
