amount_p,posx1_p,posx2_p,posx3_p,posx4_p,posx5_p,center_to_center_p,edge_to_edge_p,w_p,stim_length_p,eccentricity_p,line1_p,line2_p,line3_p,line4_p,line5_p,amount,posx1,posx2,posx3,posx4,posx5,center_to_center,edge_to_edge,w,stim_length,eccentricity,trial_type,deg_to_pix_index,posx1_in_pix,posx2_in_pix,posx3_in_pix,posx4_in_pix,posx5_in_pix,line1,line2,line3,line4,line5,posx,setsize_cobdi,trials.thisRepN,trials.thisTrialN,trials.thisN,trials.thisIndex,blocks.thisRepN,blocks.thisTrialN,blocks.thisN,blocks.thisIndex,loop.thisRepN,loop.thisTrialN,loop.thisN,loop.thisIndex,first.thisRepN,first.thisTrialN,first.thisN,first.thisIndex,second.thisRepN,second.thisTrialN,second.thisN,second.thisIndex,key_resp_3.started,key_resp_3.keys,key_resp_3.rt,key_resp.keys,key_resp.rt,response,starting_width_deg,starting_space_deg,response_width_degree,response_spacing_degree,response_width_pixel,response_spacing_pixel,next_5.keys,next_5.rt,key_resp_4.keys,key_resp_4.rt,text_3.started,text_4.started,key_resp_2.started,text_2.started,key_resp_2.keys,key_resp_2.rt,adjusting.started,next.keys,next.rt,text_control2.started,key_resp.started,key_resp.corr,text_bye.started,text_bye.stopped,participant,age,gender,resp_group,date,expName,psychopyVersion,frameRate,
,,,,,,,,,,,,,,,,,,,,,,,,,,,,,,,,,,,,,,,,,,,,,,,,,,,,,,,,,,,,,326.6653175998945,c,157.45136590010952,,,,,,,,,,,,,,,,,,,,,,,,,,,,904,26,female,left_right_width,2024-10-16_08h39.35.744,exp1,2023.1.0,60.017164900125174,
4,9.25,9.75,10.25,10.75,0,0.5,0.1,0.4,1.9000000000000001,10,9,9,9,9,0,,,,,,,,,,,,,,,,,,,,,,,,,,0,0,0,4,,,,,,,,,,,,,,,,,,,,num_3,8.358890699921176,num_3,0.25,1.2,0.3,0.7,11.46165,26.74385,return,18.72681120003108,,,,,,,,,,,,,,,,,904,26,female,left_right_width,2024-10-16_08h39.35.744,exp1,2023.1.0,60.017164900125174,
5,8.2,9.1,10,10.9,11.8,0.9,0.35,0.55,4.15,10,9,9,9,9,9,,,,,,,,,,,,,,,,,,,,,,,,,,0,1,1,2,,,,,,,,,,,,,,,,,,,,num_4,1.799541199929081,num_4,0.2,0.6,0.25,0.6,9.55138,22.9233,return,7.627848699921742,,,,,,,,,,,,,,,,,904,26,female,left_right_width,2024-10-16_08h39.35.744,exp1,2023.1.0,60.017164900125174,
4,9.25,9.75,10.25,10.75,0,0.5,0.25,0.25,1.75,10,9,9,9,9,0,,,,,,,,,,,,,,,,,,,,,,,,,,0,2,2,1,,,,,,,,,,,,,,,,,,,,num_4,4.25080739997793,num_4,0.5,0.9,0.30000000000000004,0.6,11.46165,22.9233,return,8.746898299898021,,,,,,,,,,,,,,,,,904,26,female,left_right_width,2024-10-16_08h39.35.744,exp1,2023.1.0,60.017164900125174,
3,9.1,10,10.9,0,0,0.9,0.35,0.55,2.35,10,9,9,9,0,0,,,,,,,,,,,,,,,,,,,,,,,,,,0,3,3,3,,,,,,,,,,,,,,,,,,,,num_3,1.624921299982816,num_3,0.35,0.7,0.39999999999999997,0.6,15.2822,22.9233,return,14.833774599945173,,,,,,,,,,,,,,,,,904,26,female,left_right_width,2024-10-16_08h39.35.744,exp1,2023.1.0,60.017164900125174,
5,9,9.5,10,10.5,11,0.5,0.1,0.4,2.4,10,9,9,9,9,9,,,,,,,,,,,,,,,,,,,,,,,,,,0,4,4,5,,,,,,,,,,,,,,,,,,,,num_4,1.7899942999938503,num_4,0.4,0.5,0.4,0.6,15.2822,22.9233,return,7.268948100041598,,,,,,,,,,,,,,,,,904,26,female,left_right_width,2024-10-16_08h39.35.744,exp1,2023.1.0,60.017164900125174,
3,9.5,10,10.5,0,0,0.5,0.25,0.25,1.25,10,9,9,9,0,0,,,,,,,,,,,,,,,,,,,,,,,,,,0,5,5,0,,,,,,,,,,,,,,,,,,,,num_3,1.6840851999586448,num_3,0.4,1,0.30000000000000004,0.5,11.46165,19.10275,return,9.19444529991597,,,,,,,,,,,,,,,,,904,26,female,left_right_width,2024-10-16_08h39.35.744,exp1,2023.1.0,60.017164900125174,
,,,,,,,,,,,,,,,,,,,,,,,,,,,,,,,,,,,,,,,,,,,,,,,,,,,,,,,,,,,,,,,,,,,,,,,,,,,c,158.62154039996676,,,,,,,,,,,,,,,904,26,female,left_right_width,2024-10-16_08h39.35.744,exp1,2023.1.0,60.017164900125174,
,,,,,,,,,,,,,,,,3,9.5,10,10.5,0,0,0.5,0.1,0.4,1.4000000000000001,10,initial,36.05,342,361,379,0,0,9,9,9,0,0,,,,,,,0,0,0,0,0,0,0,4,,,,,,,,,,,,num_3,1.8540516000939533,num_3,0.5,1,0.4,0.65,15.2822,24.83358,return,5.660743299988098,,,,,,,,,,,,,,,,,904,26,female,left_right_width,2024-10-16_08h39.35.744,exp1,2023.1.0,60.017164900125174,
,,,,,,,,,,,,,,,,3,9.5,10,10.5,0,0,0.5,0.1,0.4,1.4000000000000001,10,initial,36.05,342,361,379,0,0,9,9,9,0,0,,,,,,,0,0,0,0,0,1,1,34,,,,,,,,,,,,num_3,1.0592146000126377,num_3,0.35,1.2,0.35,0.65,13.37193,24.83358,return,6.9184140000725165,,,,,,,,,,,,,,,,,904,26,female,left_right_width,2024-10-16_08h39.35.744,exp1,2023.1.0,60.017164900125174,
,,,,,,,,,,,,,,,,3,9.5,10,10.5,0,0,0.5,0.1,0.4,1.4000000000000001,10,initial,36.05,342,361,379,0,0,9,9,9,0,0,,,,,,,0,0,0,0,0,2,2,8,,,,,,,,,,,,num_3,1.2927343000192195,num_3,0.45,0.9,0.25000000000000006,0.55,9.55138,21.01303,return,4.350623199949041,,,,,,,,,,,,,,,,,904,26,female,left_right_width,2024-10-16_08h39.35.744,exp1,2023.1.0,60.017164900125174,
,,,,,,,,,,,,,,,,4,9.25,9.75,10.25,10.75,0,0.5,0.1,0.4,1.9000000000000001,10,initial,36.05,333,351,370,388,0,9,9,9,9,0,,,,,,,0,0,0,0,0,3,3,43,,,,,,,,,,,,num_4,1.0685468999436125,num_4,0.3,0.9,0.39999999999999997,0.6,15.2822,22.9233,return,5.019279300002381,,,,,,,,,,,,,,,,,904,26,female,left_right_width,2024-10-16_08h39.35.744,exp1,2023.1.0,60.017164900125174,
,,,,,,,,,,,,,,,,4,9.25,9.75,10.25,10.75,0,0.5,0.1,0.4,1.9000000000000001,10,initial,36.05,333,351,370,388,0,9,9,9,9,0,,,,,,,0,0,0,0,0,4,4,11,,,,,,,,,,,,num_3,1.178877400001511,num_3,0.5,0.7,0.30000000000000004,0.55,11.46165,21.01303,return,4.101688900031149,,,,,,,,,,,,,,,,,904,26,female,left_right_width,2024-10-16_08h39.35.744,exp1,2023.1.0,60.017164900125174,
,,,,,,,,,,,,,,,,4,9.25,9.75,10.25,10.75,0,0.5,0.1,0.4,1.9000000000000001,10,initial,36.05,333,351,370,388,0,9,9,9,9,0,,,,,,,0,0,0,0,0,5,5,40,,,,,,,,,,,,num_4,1.8474307999713346,num_4,0.25,1.2,0.2,0.4,7.6411,15.2822,return,6.297130899969488,,,,,,,,,,,,,,,,,904,26,female,left_right_width,2024-10-16_08h39.35.744,exp1,2023.1.0,60.017164900125174,
,,,,,,,,,,,,,,,,3,9.5,10,10.5,0,0,0.5,0.1,0.4,1.4000000000000001,10,initial,36.05,342,361,379,0,0,9,9,9,0,0,,,,,,,0,0,0,0,0,6,6,6,,,,,,,,,,,,num_3,1.0798440999351442,num_3,0.35,1.3,0.3,0.6,11.46165,22.9233,return,5.926459399983287,,,,,,,,,,,,,,,,,904,26,female,left_right_width,2024-10-16_08h39.35.744,exp1,2023.1.0,60.017164900125174,
,,,,,,,,,,,,,,,,5,9,9.5,10,10.5,11,0.5,0.1,0.4,2.4,10,initial,36.05,324,342,361,379,397,9,9,9,9,9,,,,,,,0,0,0,0,0,7,7,18,,,,,,,,,,,,num_4,1.1375470000784844,num_4,0.5,0.7,0.4,0.6,15.2822,22.9233,return,3.9015628000488505,,,,,,,,,,,,,,,,,904,26,female,left_right_width,2024-10-16_08h39.35.744,exp1,2023.1.0,60.017164900125174,
,,,,,,,,,,,,,,,,5,9,9.5,10,10.5,11,0.5,0.1,0.4,2.4,10,initial,36.05,324,342,361,379,397,9,9,9,9,9,,,,,,,0,0,0,0,0,8,8,47,,,,,,,,,,,,num_4,0.9196300000185147,num_4,0.35,1.2,0.39999999999999997,0.6,15.2822,22.9233,return,8.13995610002894,,,,,,,,,,,,,,,,,904,26,female,left_right_width,2024-10-16_08h39.35.744,exp1,2023.1.0,60.017164900125174,
,,,,,,,,,,,,,,,,4,9.25,9.75,10.25,10.75,0,0.5,0.1,0.4,1.9000000000000001,10,initial,36.05,333,351,370,388,0,9,9,9,9,0,,,,,,,0,0,0,0,0,9,9,16,,,,,,,,,,,,num_4,1.106727399979718,num_4,0.4,0.7,0.4,0.5,15.2822,19.10275,return,2.221534900018014,,,,,,,,,,,,,,,,,904,26,female,left_right_width,2024-10-16_08h39.35.744,exp1,2023.1.0,60.017164900125174,
,,,,,,,,,,,,,,,,4,9.25,9.75,10.25,10.75,0,0.5,0.1,0.4,1.9000000000000001,10,initial,36.05,333,351,370,388,0,9,9,9,9,0,,,,,,,0,0,0,0,0,10,10,13,,,,,,,,,,,,num_4,1.1575411999365315,num_4,0.25,0.3,0.25,0.5,9.55138,19.10275,return,5.973835999961011,,,,,,,,,,,,,,,,,904,26,female,left_right_width,2024-10-16_08h39.35.744,exp1,2023.1.0,60.017164900125174,
,,,,,,,,,,,,,,,,5,9,9.5,10,10.5,11,0.5,0.1,0.4,2.4,10,initial,36.05,324,342,361,379,397,9,9,9,9,9,,,,,,,0,0,0,0,0,11,11,21,,,,,,,,,,,,num_4,0.9954915000125766,num_4,0.3,1.2,0.3,0.5,11.46165,19.10275,return,3.834770599962212,,,,,,,,,,,,,,,,,904,26,female,left_right_width,2024-10-16_08h39.35.744,exp1,2023.1.0,60.017164900125174,
,,,,,,,,,,,,,,,,4,9.25,9.75,10.25,10.75,0,0.5,0.1,0.4,1.9000000000000001,10,initial,36.05,333,351,370,388,0,9,9,9,9,0,,,,,,,0,0,0,0,0,12,12,44,,,,,,,,,,,,num_4,2.1547631999710575,num_4,0.4,1.3,0.35000000000000003,0.5,13.37193,19.10275,return,4.628808000008576,,,,,,,,,,,,,,,,,904,26,female,left_right_width,2024-10-16_08h39.35.744,exp1,2023.1.0,60.017164900125174,
,,,,,,,,,,,,,,,,5,9,9.5,10,10.5,11,0.5,0.1,0.4,2.4,10,initial,36.05,324,342,361,379,397,9,9,9,9,9,,,,,,,0,0,0,0,0,13,13,53,,,,,,,,,,,,num_4,2.0920031999703497,num_4,0.25,1.1,0.3,0.4,11.46165,15.2822,return,12.802621899987571,,,,,,,,,,,,,,,,,904,26,female,left_right_width,2024-10-16_08h39.35.744,exp1,2023.1.0,60.017164900125174,
,,,,,,,,,,,,,,,,4,9.25,9.75,10.25,10.75,0,0.5,0.1,0.4,1.9000000000000001,10,initial,36.05,333,351,370,388,0,9,9,9,9,0,,,,,,,0,0,0,0,0,14,14,42,,,,,,,,,,,,num_4,0.9599655999336392,num_4,0.2,0.3,0.2,0.3,7.6411,11.46165,return,3.4322236999869347,,,,,,,,,,,,,,,,,904,26,female,left_right_width,2024-10-16_08h39.35.744,exp1,2023.1.0,60.017164900125174,
,,,,,,,,,,,,,,,,4,9.25,9.75,10.25,10.75,0,0.5,0.1,0.4,1.9000000000000001,10,initial,36.05,333,351,370,388,0,9,9,9,9,0,,,,,,,0,0,0,0,0,15,15,15,,,,,,,,,,,,num_4,1.6325753000564873,num_4,0.45,1.3,0.35000000000000003,0.5,13.37193,19.10275,return,6.012030799989589,,,,,,,,,,,,,,,,,904,26,female,left_right_width,2024-10-16_08h39.35.744,exp1,2023.1.0,60.017164900125174,
,,,,,,,,,,,,,,,,4,9.25,9.75,10.25,10.75,0,0.5,0.1,0.4,1.9000000000000001,10,initial,36.05,333,351,370,388,0,9,9,9,9,0,,,,,,,0,0,0,0,0,16,16,39,,,,,,,,,,,,num_3,1.3979099999414757,num_3,0.2,0.7,0.3,0.55,11.46165,21.01303,return,6.412029400002211,,,,,,,,,,,,,,,,,904,26,female,left_right_width,2024-10-16_08h39.35.744,exp1,2023.1.0,60.017164900125174,
,,,,,,,,,,,,,,,,5,9,9.5,10,10.5,11,0.5,0.1,0.4,2.4,10,initial,36.05,324,342,361,379,397,9,9,9,9,9,,,,,,,0,0,0,0,0,17,17,52,,,,,,,,,,,,num_4,1.8608779000351205,num_4,0.3,0.3,0.3,0.5,11.46165,19.10275,return,3.478341600042768,,,,,,,,,,,,,,,,,904,26,female,left_right_width,2024-10-16_08h39.35.744,exp1,2023.1.0,60.017164900125174,
,,,,,,,,,,,,,,,,5,9,9.5,10,10.5,11,0.5,0.1,0.4,2.4,10,initial,36.05,324,342,361,379,397,9,9,9,9,9,,,,,,,0,0,0,0,0,18,18,48,,,,,,,,,,,,num_4,0.886318700038828,num_4,0.25,1.1,0.35,0.5,13.37193,19.10275,return,6.444250899949111,,,,,,,,,,,,,,,,,904,26,female,left_right_width,2024-10-16_08h39.35.744,exp1,2023.1.0,60.017164900125174,
,,,,,,,,,,,,,,,,3,9.5,10,10.5,0,0,0.5,0.1,0.4,1.4000000000000001,10,initial,36.05,342,361,379,0,0,9,9,9,0,0,,,,,,,0,0,0,0,0,19,19,29,,,,,,,,,,,,num_3,0.9995096999919042,num_3,0.45,0.5,0.35000000000000003,0.5,13.37193,19.10275,return,2.974096199963242,,,,,,,,,,,,,,,,,904,26,female,left_right_width,2024-10-16_08h39.35.744,exp1,2023.1.0,60.017164900125174,
,,,,,,,,,,,,,,,,3,9.5,10,10.5,0,0,0.5,0.1,0.4,1.4000000000000001,10,initial,36.05,342,361,379,0,0,9,9,9,0,0,,,,,,,0,0,0,0,0,20,20,2,,,,,,,,,,,,num_3,0.9539975000079721,num_3,0.45,0.7,0.30000000000000004,0.55,11.46165,21.01303,return,4.66861739999149,,,,,,,,,,,,,,,,,904,26,female,left_right_width,2024-10-16_08h39.35.744,exp1,2023.1.0,60.017164900125174,
,,,,,,,,,,,,,,,,4,9.25,9.75,10.25,10.75,0,0.5,0.1,0.4,1.9000000000000001,10,initial,36.05,333,351,370,388,0,9,9,9,9,0,,,,,,,0,0,0,0,0,21,21,38,,,,,,,,,,,,num_3,1.7707300999900326,num_3,0.25,1.2,0.44999999999999996,0.75,17.19248,28.65413,return,4.879534600069746,,,,,,,,,,,,,,,,,904,26,female,left_right_width,2024-10-16_08h39.35.744,exp1,2023.1.0,60.017164900125174,
,,,,,,,,,,,,,,,,4,9.25,9.75,10.25,10.75,0,0.5,0.1,0.4,1.9000000000000001,10,initial,36.05,333,351,370,388,0,9,9,9,9,0,,,,,,,0,0,0,0,0,22,22,37,,,,,,,,,,,,num_4,0.9934464000398293,num_4,0.45,0.6,0.45,0.6,17.19248,22.9233,return,0.9328052999917418,,,,,,,,,,,,,,,,,904,26,female,left_right_width,2024-10-16_08h39.35.744,exp1,2023.1.0,60.017164900125174,
,,,,,,,,,,,,,,,,3,9.5,10,10.5,0,0,0.5,0.1,0.4,1.4000000000000001,10,initial,36.05,342,361,379,0,0,9,9,9,0,0,,,,,,,0,0,0,0,0,23,23,5,,,,,,,,,,,,num_3,1.948327700025402,num_3,0.5,1.2,0.4,0.65,15.2822,24.83358,return,5.421243800083175,,,,,,,,,,,,,,,,,904,26,female,left_right_width,2024-10-16_08h39.35.744,exp1,2023.1.0,60.017164900125174,
,,,,,,,,,,,,,,,,5,9,9.5,10,10.5,11,0.5,0.1,0.4,2.4,10,initial,36.05,324,342,361,379,397,9,9,9,9,9,,,,,,,0,0,0,0,0,24,24,51,,,,,,,,,,,,num_3,0.9621328000212088,num_3,0.55,0.9,0.30000000000000004,0.75,11.46165,28.65413,return,5.205256400047801,,,,,,,,,,,,,,,,,904,26,female,left_right_width,2024-10-16_08h39.35.744,exp1,2023.1.0,60.017164900125174,
,,,,,,,,,,,,,,,,3,9.5,10,10.5,0,0,0.5,0.1,0.4,1.4000000000000001,10,initial,36.05,342,361,379,0,0,9,9,9,0,0,,,,,,,0,0,0,0,0,25,25,35,,,,,,,,,,,,num_3,0.9184653999982402,num_3,0.25,0.3,0.44999999999999996,0.65,17.19248,24.83358,return,12.206877799937502,,,,,,,,,,,,,,,,,904,26,female,left_right_width,2024-10-16_08h39.35.744,exp1,2023.1.0,60.017164900125174,
,,,,,,,,,,,,,,,,3,9.5,10,10.5,0,0,0.5,0.1,0.4,1.4000000000000001,10,initial,36.05,342,361,379,0,0,9,9,9,0,0,,,,,,,0,0,0,0,0,26,26,3,,,,,,,,,,,,num_3,0.9461633000755683,num_3,0.2,0.8,0.25,0.45,9.55138,17.19248,return,9.286849200027063,,,,,,,,,,,,,,,,,904,26,female,left_right_width,2024-10-16_08h39.35.744,exp1,2023.1.0,60.017164900125174,
,,,,,,,,,,,,,,,,3,9.5,10,10.5,0,0,0.5,0.1,0.4,1.4000000000000001,10,initial,36.05,342,361,379,0,0,9,9,9,0,0,,,,,,,0,0,0,0,0,27,27,33,,,,,,,,,,,,num_3,1.2491417999844998,num_3,0.55,1,0.35000000000000003,0.6,13.37193,22.9233,return,9.65514340007212,,,,,,,,,,,,,,,,,904,26,female,left_right_width,2024-10-16_08h39.35.744,exp1,2023.1.0,60.017164900125174,
,,,,,,,,,,,,,,,,3,9.5,10,10.5,0,0,0.5,0.1,0.4,1.4000000000000001,10,initial,36.05,342,361,379,0,0,9,9,9,0,0,,,,,,,0,0,0,0,0,28,28,32,,,,,,,,,,,,num_3,0.9425830999389291,num_3,0.3,0.5,0.44999999999999996,0.6,17.19248,22.9233,return,3.697239700006321,,,,,,,,,,,,,,,,,904,26,female,left_right_width,2024-10-16_08h39.35.744,exp1,2023.1.0,60.017164900125174,
,,,,,,,,,,,,,,,,5,9,9.5,10,10.5,11,0.5,0.1,0.4,2.4,10,initial,36.05,324,342,361,379,397,9,9,9,9,9,,,,,,,0,0,0,0,0,29,29,26,,,,,,,,,,,,num_5,1.687384199933149,num_5,0.25,0.7,0.35,0.6,13.37193,22.9233,return,5.154413299984299,,,,,,,,,,,,,,,,,904,26,female,left_right_width,2024-10-16_08h39.35.744,exp1,2023.1.0,60.017164900125174,
,,,,,,,,,,,,,,,,5,9,9.5,10,10.5,11,0.5,0.1,0.4,2.4,10,initial,36.05,324,342,361,379,397,9,9,9,9,9,,,,,,,0,0,0,0,0,30,30,24,,,,,,,,,,,,num_5,0.9829527999972925,num_5,0.55,0.8,0.45,0.7,17.19248,26.74385,return,5.175532900029793,,,,,,,,,,,,,,,,,904,26,female,left_right_width,2024-10-16_08h39.35.744,exp1,2023.1.0,60.017164900125174,
,,,,,,,,,,,,,,,,5,9,9.5,10,10.5,11,0.5,0.1,0.4,2.4,10,initial,36.05,324,342,361,379,397,9,9,9,9,9,,,,,,,0,0,0,0,0,31,31,22,,,,,,,,,,,,num_4,1.1593191999709234,num_4,0.3,0.4,0.25,0.6,9.55138,22.9233,return,4.594941499992274,,,,,,,,,,,,,,,,,904,26,female,left_right_width,2024-10-16_08h39.35.744,exp1,2023.1.0,60.017164900125174,
,,,,,,,,,,,,,,,,3,9.5,10,10.5,0,0,0.5,0.1,0.4,1.4000000000000001,10,initial,36.05,342,361,379,0,0,9,9,9,0,0,,,,,,,0,0,0,0,0,32,32,1,,,,,,,,,,,,num_3,0.952939199982211,num_3,0.5,0.9,0.4,0.6,15.2822,22.9233,return,4.364204699988477,,,,,,,,,,,,,,,,,904,26,female,left_right_width,2024-10-16_08h39.35.744,exp1,2023.1.0,60.017164900125174,
,,,,,,,,,,,,,,,,4,9.25,9.75,10.25,10.75,0,0.5,0.1,0.4,1.9000000000000001,10,initial,36.05,333,351,370,388,0,9,9,9,9,0,,,,,,,0,0,0,0,0,33,33,41,,,,,,,,,,,,num_4,0.9384829000337049,num_4,0.4,0.7,0.4,0.6,15.2822,22.9233,return,3.519732999964617,,,,,,,,,,,,,,,,,904,26,female,left_right_width,2024-10-16_08h39.35.744,exp1,2023.1.0,60.017164900125174,
,,,,,,,,,,,,,,,,3,9.5,10,10.5,0,0,0.5,0.1,0.4,1.4000000000000001,10,initial,36.05,342,361,379,0,0,9,9,9,0,0,,,,,,,0,0,0,0,0,34,34,31,,,,,,,,,,,,num_3,1.0019430000102147,num_3,0.45,1.3,0.4,0.7,15.2822,26.74385,return,4.544016400002874,,,,,,,,,,,,,,,,,904,26,female,left_right_width,2024-10-16_08h39.35.744,exp1,2023.1.0,60.017164900125174,
,,,,,,,,,,,,,,,,4,9.25,9.75,10.25,10.75,0,0.5,0.1,0.4,1.9000000000000001,10,initial,36.05,333,351,370,388,0,9,9,9,9,0,,,,,,,0,0,0,0,0,35,35,12,,,,,,,,,,,,num_3,6.534961799974553,num_3,0.4,0.6,0.4,0.6,15.2822,22.9233,return,1.0727181999245659,,,,,,,,,,,,,,,,,904,26,female,left_right_width,2024-10-16_08h39.35.744,exp1,2023.1.0,60.017164900125174,
,,,,,,,,,,,,,,,,4,9.25,9.75,10.25,10.75,0,0.5,0.1,0.4,1.9000000000000001,10,initial,36.05,333,351,370,388,0,9,9,9,9,0,,,,,,,0,0,0,0,0,36,36,36,,,,,,,,,,,,num_3,0.7807794999098405,num_3,0.25,0.7,0.3,0.55,11.46165,21.01303,return,3.5160873000277206,,,,,,,,,,,,,,,,,904,26,female,left_right_width,2024-10-16_08h39.35.744,exp1,2023.1.0,60.017164900125174,
,,,,,,,,,,,,,,,,3,9.5,10,10.5,0,0,0.5,0.1,0.4,1.4000000000000001,10,initial,36.05,342,361,379,0,0,9,9,9,0,0,,,,,,,0,0,0,0,0,37,37,27,,,,,,,,,,,,num_3,1.082593600032851,num_3,0.25,0.4,0.3,0.5,11.46165,19.10275,return,5.435937499976717,,,,,,,,,,,,,,,,,904,26,female,left_right_width,2024-10-16_08h39.35.744,exp1,2023.1.0,60.017164900125174,
,,,,,,,,,,,,,,,,5,9,9.5,10,10.5,11,0.5,0.1,0.4,2.4,10,initial,36.05,324,342,361,379,397,9,9,9,9,9,,,,,,,0,0,0,0,0,38,38,25,,,,,,,,,,,,num_4,1.3497190999332815,num_4,0.3,1.3,0.3,0.5,11.46165,19.10275,return,3.150986799970269,,,,,,,,,,,,,,,,,904,26,female,left_right_width,2024-10-16_08h39.35.744,exp1,2023.1.0,60.017164900125174,
,,,,,,,,,,,,,,,,5,9,9.5,10,10.5,11,0.5,0.1,0.4,2.4,10,initial,36.05,324,342,361,379,397,9,9,9,9,9,,,,,,,0,0,0,0,0,39,39,49,,,,,,,,,,,,num_4,1.3056479999795556,num_4,0.35,0.6,0.35,0.6,13.37193,22.9233,return,1.9829703000141308,,,,,,,,,,,,,,,,,904,26,female,left_right_width,2024-10-16_08h39.35.744,exp1,2023.1.0,60.017164900125174,
,,,,,,,,,,,,,,,,5,9,9.5,10,10.5,11,0.5,0.1,0.4,2.4,10,initial,36.05,324,342,361,379,397,9,9,9,9,9,,,,,,,0,0,0,0,0,40,40,19,,,,,,,,,,,,num_4,0.8435680000111461,num_4,0.25,0.7,0.25,0.4,9.55138,15.2822,return,2.3392455999273807,,,,,,,,,,,,,,,,,904,26,female,left_right_width,2024-10-16_08h39.35.744,exp1,2023.1.0,60.017164900125174,
,,,,,,,,,,,,,,,,5,9,9.5,10,10.5,11,0.5,0.1,0.4,2.4,10,initial,36.05,324,342,361,379,397,9,9,9,9,9,,,,,,,0,0,0,0,0,41,41,45,,,,,,,,,,,,num_4,1.0765640999889001,num_4,0.5,1.1,0.55,0.8,21.01303,30.5644,return,2.6963854999048635,,,,,,,,,,,,,,,,,904,26,female,left_right_width,2024-10-16_08h39.35.744,exp1,2023.1.0,60.017164900125174,
,,,,,,,,,,,,,,,,3,9.5,10,10.5,0,0,0.5,0.1,0.4,1.4000000000000001,10,initial,36.05,342,361,379,0,0,9,9,9,0,0,,,,,,,0,0,0,0,0,42,42,30,,,,,,,,,,,,num_3,0.8352828999049962,num_3,0.55,0.6,0.35000000000000003,0.55,13.37193,21.01303,return,6.319982299930416,,,,,,,,,,,,,,,,,904,26,female,left_right_width,2024-10-16_08h39.35.744,exp1,2023.1.0,60.017164900125174,
,,,,,,,,,,,,,,,,4,9.25,9.75,10.25,10.75,0,0.5,0.1,0.4,1.9000000000000001,10,initial,36.05,333,351,370,388,0,9,9,9,9,0,,,,,,,0,0,0,0,0,43,43,14,,,,,,,,,,,,num_3,1.1248247000621632,num_3,0.45,1.2,0.35000000000000003,0.6,13.37193,22.9233,return,5.318554500001483,,,,,,,,,,,,,,,,,904,26,female,left_right_width,2024-10-16_08h39.35.744,exp1,2023.1.0,60.017164900125174,
,,,,,,,,,,,,,,,,3,9.5,10,10.5,0,0,0.5,0.1,0.4,1.4000000000000001,10,initial,36.05,342,361,379,0,0,9,9,9,0,0,,,,,,,0,0,0,0,0,44,44,28,,,,,,,,,,,,num_3,0.8366204999620095,num_3,0.25,1,0.35,0.55,13.37193,21.01303,return,6.8019612999632955,,,,,,,,,,,,,,,,,904,26,female,left_right_width,2024-10-16_08h39.35.744,exp1,2023.1.0,60.017164900125174,
,,,,,,,,,,,,,,,,3,9.5,10,10.5,0,0,0.5,0.1,0.4,1.4000000000000001,10,initial,36.05,342,361,379,0,0,9,9,9,0,0,,,,,,,0,0,0,0,0,45,45,7,,,,,,,,,,,,num_3,0.8363069000188261,num_3,0.35,0.8,0.3,0.5,11.46165,19.10275,return,4.763189800083637,,,,,,,,,,,,,,,,,904,26,female,left_right_width,2024-10-16_08h39.35.744,exp1,2023.1.0,60.017164900125174,
,,,,,,,,,,,,,,,,5,9,9.5,10,10.5,11,0.5,0.1,0.4,2.4,10,initial,36.05,324,342,361,379,397,9,9,9,9,9,,,,,,,0,0,0,0,0,46,46,23,,,,,,,,,,,,num_4,1.0605485000414774,num_4,0.35,1.3,0.35,0.6,13.37193,22.9233,return,6.545354399946518,,,,,,,,,,,,,,,,,904,26,female,left_right_width,2024-10-16_08h39.35.744,exp1,2023.1.0,60.017164900125174,
,,,,,,,,,,,,,,,,5,9,9.5,10,10.5,11,0.5,0.1,0.4,2.4,10,initial,36.05,324,342,361,379,397,9,9,9,9,9,,,,,,,0,0,0,0,0,47,47,50,,,,,,,,,,,,num_5,1.6925412999698892,num_5,0.25,1.2,0.35,0.55,13.37193,21.01303,return,6.1312478999607265,,,,,,,,,,,,,,,,,904,26,female,left_right_width,2024-10-16_08h39.35.744,exp1,2023.1.0,60.017164900125174,
,,,,,,,,,,,,,,,,3,9.5,10,10.5,0,0,0.5,0.1,0.4,1.4000000000000001,10,initial,36.05,342,361,379,0,0,9,9,9,0,0,,,,,,,0,0,0,0,0,48,48,0,,,,,,,,,,,,num_3,1.8188156998949125,num_3,0.35,1,0.3,0.6,11.46165,22.9233,return,5.217584899975918,,,,,,,,,,,,,,,,,904,26,female,left_right_width,2024-10-16_08h39.35.744,exp1,2023.1.0,60.017164900125174,
,,,,,,,,,,,,,,,,4,9.25,9.75,10.25,10.75,0,0.5,0.1,0.4,1.9000000000000001,10,initial,36.05,333,351,370,388,0,9,9,9,9,0,,,,,,,0,0,0,0,0,49,49,17,,,,,,,,,,,,num_3,0.9067259000148624,num_3,0.4,1,0.35000000000000003,0.65,13.37193,24.83358,return,6.404072600067593,,,,,,,,,,,,,,,,,904,26,female,left_right_width,2024-10-16_08h39.35.744,exp1,2023.1.0,60.017164900125174,
,,,,,,,,,,,,,,,,4,9.25,9.75,10.25,10.75,0,0.5,0.1,0.4,1.9000000000000001,10,initial,36.05,333,351,370,388,0,9,9,9,9,0,,,,,,,0,0,0,0,0,50,50,9,,,,,,,,,,,,num_3,1.0673273999709636,num_3,0.25,1,0.35,0.65,13.37193,24.83358,return,5.755859000026248,,,,,,,,,,,,,,,,,904,26,female,left_right_width,2024-10-16_08h39.35.744,exp1,2023.1.0,60.017164900125174,
,,,,,,,,,,,,,,,,5,9,9.5,10,10.5,11,0.5,0.1,0.4,2.4,10,initial,36.05,324,342,361,379,397,9,9,9,9,9,,,,,,,0,0,0,0,0,51,51,46,,,,,,,,,,,,num_4,0.8423191999318078,num_4,0.5,1.2,0.5,0.7,19.10275,26.74385,return,4.710718899965286,,,,,,,,,,,,,,,,,904,26,female,left_right_width,2024-10-16_08h39.35.744,exp1,2023.1.0,60.017164900125174,
,,,,,,,,,,,,,,,,4,9.25,9.75,10.25,10.75,0,0.5,0.1,0.4,1.9000000000000001,10,initial,36.05,333,351,370,388,0,9,9,9,9,0,,,,,,,0,0,0,0,0,52,52,10,,,,,,,,,,,,num_4,0.8620710000395775,num_4,0.55,0.8,0.45,0.6,17.19248,22.9233,return,3.8007965000579134,,,,,,,,,,,,,,,,,904,26,female,left_right_width,2024-10-16_08h39.35.744,exp1,2023.1.0,60.017164900125174,
,,,,,,,,,,,,,,,,5,9,9.5,10,10.5,11,0.5,0.1,0.4,2.4,10,initial,36.05,324,342,361,379,397,9,9,9,9,9,,,,,,,0,0,0,0,0,53,53,20,,,,,,,,,,,,num_4,1.049650099943392,num_4,0.35,1.0,0.35,0.6,13.37193,22.9233,return,3.977114799898118,,,,,,,,,,,,,,,,,904,26,female,left_right_width,2024-10-16_08h39.35.744,exp1,2023.1.0,60.017164900125174,
,,,,,,,,,,,,,,,,,,,,,,,,,,,,,,,,,,,,,,,,,,,,,0,0,0,0,,,,,,,,,,,,,,,,,,,,,,,,,,,,,1181.9238048999105,1181.9238048999105,1181.9238048999105,,,,,,,,,,,,904,26,female,left_right_width,2024-10-16_08h39.35.744,exp1,2023.1.0,60.017164900125174,
,,,,,,,,,,,,,,,,3,9.1,10,10.9,0,0,0.9,0.35,0.55,2.35,10,initial,36.05,328,361,393,0,0,9,9,9,0,0,,,,,,,1,0,1,0,0,0,0,3,,,,,,,,,,,,num_3,1.0608480999944732,num_3,0.3,0.5,0.44999999999999996,0.65,17.19248,24.83358,return,4.360761900083162,,,,,,,,,,,,,,,,,904,26,female,left_right_width,2024-10-16_08h39.35.744,exp1,2023.1.0,60.017164900125174,
,,,,,,,,,,,,,,,,5,8.2,9.1,10,10.9,11.8,0.9,0.35,0.55,4.15,10,initial,36.05,296,328,361,393,425,9,9,9,9,9,,,,,,,1,0,1,0,0,1,1,23,,,,,,,,,,,,num_5,1.2311229000333697,num_5,0.55,0.6,0.45,0.6,17.19248,22.9233,return,2.507523200009018,,,,,,,,,,,,,,,,,904,26,female,left_right_width,2024-10-16_08h39.35.744,exp1,2023.1.0,60.017164900125174,
,,,,,,,,,,,,,,,,5,8.2,9.1,10,10.9,11.8,0.9,0.35,0.55,4.15,10,initial,36.05,296,328,361,393,425,9,9,9,9,9,,,,,,,1,0,1,0,0,2,2,49,,,,,,,,,,,,num_5,2.7634880000259727,num_5,0.3,0.9,0.6,0.9,22.9233,34.38495,return,3.4728848000522703,,,,,,,,,,,,,,,,,904,26,female,left_right_width,2024-10-16_08h39.35.744,exp1,2023.1.0,60.017164900125174,
,,,,,,,,,,,,,,,,5,8.2,9.1,10,10.9,11.8,0.9,0.35,0.55,4.15,10,initial,36.05,296,328,361,393,425,9,9,9,9,9,,,,,,,1,0,1,0,0,3,3,50,,,,,,,,,,,,num_5,1.382596499985084,num_5,0.25,0.6,0.49999999999999994,0.65,19.10275,24.83358,return,4.796597999986261,,,,,,,,,,,,,,,,,904,26,female,left_right_width,2024-10-16_08h39.35.744,exp1,2023.1.0,60.017164900125174,
,,,,,,,,,,,,,,,,3,9.1,10,10.9,0,0,0.9,0.35,0.55,2.35,10,initial,36.05,328,361,393,0,0,9,9,9,0,0,,,,,,,1,0,1,0,0,4,4,32,,,,,,,,,,,,num_2,0.9766835999907926,num_2,0.45,0.8,0.45,0.8,17.19248,30.5644,return,1.64963150001131,,,,,,,,,,,,,,,,,904,26,female,left_right_width,2024-10-16_08h39.35.744,exp1,2023.1.0,60.017164900125174,
,,,,,,,,,,,,,,,,3,9.1,10,10.9,0,0,0.9,0.35,0.55,2.35,10,initial,36.05,328,361,393,0,0,9,9,9,0,0,,,,,,,1,0,1,0,0,5,5,35,,,,,,,,,,,,num_3,1.0706913000904024,num_3,0.4,1,0.55,0.9,21.01303,34.38495,return,3.8247579000890255,,,,,,,,,,,,,,,,,904,26,female,left_right_width,2024-10-16_08h39.35.744,exp1,2023.1.0,60.017164900125174,
,,,,,,,,,,,,,,,,4,8.65,9.55,10.45,11.35,0,0.9,0.35,0.55,3.25,10,initial,36.05,312,344,377,409,0,9,9,9,9,0,,,,,,,1,0,1,0,0,6,6,40,,,,,,,,,,,,num_3,1.5325726999435574,num_3,0.45,0.5,0.35000000000000003,0.55,13.37193,21.01303,return,3.7087850000243634,,,,,,,,,,,,,,,,,904,26,female,left_right_width,2024-10-16_08h39.35.744,exp1,2023.1.0,60.017164900125174,
,,,,,,,,,,,,,,,,5,8.2,9.1,10,10.9,11.8,0.9,0.35,0.55,4.15,10,initial,36.05,296,328,361,393,425,9,9,9,9,9,,,,,,,1,0,1,0,0,7,7,47,,,,,,,,,,,,num_5,1.722938899998553,num_5,0.5,0.8,0.5,0.8,19.10275,30.5644,return,1.0044584999559447,,,,,,,,,,,,,,,,,904,26,female,left_right_width,2024-10-16_08h39.35.744,exp1,2023.1.0,60.017164900125174,
,,,,,,,,,,,,,,,,4,8.65,9.55,10.45,11.35,0,0.9,0.35,0.55,3.25,10,initial,36.05,312,344,377,409,0,9,9,9,9,0,,,,,,,1,0,1,0,0,8,8,10,,,,,,,,,,,,num_4,1.2280822000466287,num_4,0.2,1.3,0.39999999999999997,0.8,15.2822,30.5644,return,4.498607799992897,,,,,,,,,,,,,,,,,904,26,female,left_right_width,2024-10-16_08h39.35.744,exp1,2023.1.0,60.017164900125174,
,,,,,,,,,,,,,,,,4,8.65,9.55,10.45,11.35,0,0.9,0.35,0.55,3.25,10,initial,36.05,312,344,377,409,0,9,9,9,9,0,,,,,,,1,0,1,0,0,9,9,37,,,,,,,,,,,,num_4,1.1330262999981642,num_4,0.2,0.6,0.44999999999999996,0.9,17.19248,34.38495,return,3.8826574999839067,,,,,,,,,,,,,,,,,904,26,female,left_right_width,2024-10-16_08h39.35.744,exp1,2023.1.0,60.017164900125174,
,,,,,,,,,,,,,,,,3,9.1,10,10.9,0,0,0.9,0.35,0.55,2.35,10,initial,36.05,328,361,393,0,0,9,9,9,0,0,,,,,,,1,0,1,0,0,10,10,33,,,,,,,,,,,,num_3,0.8846350000239909,num_3,0.2,0.4,0.49999999999999994,0.65,19.10275,24.83358,return,4.367836799938232,,,,,,,,,,,,,,,,,904,26,female,left_right_width,2024-10-16_08h39.35.744,exp1,2023.1.0,60.017164900125174,
,,,,,,,,,,,,,,,,5,8.2,9.1,10,10.9,11.8,0.9,0.35,0.55,4.15,10,initial,36.05,296,328,361,393,425,9,9,9,9,9,,,,,,,1,0,1,0,0,11,11,48,,,,,,,,,,,,num_4,2.4207581999944523,num_4,0.55,1.0,0.5,0.7,19.10275,26.74385,return,6.335530800046399,,,,,,,,,,,,,,,,,904,26,female,left_right_width,2024-10-16_08h39.35.744,exp1,2023.1.0,60.017164900125174,
,,,,,,,,,,,,,,,,5,8.2,9.1,10,10.9,11.8,0.9,0.35,0.55,4.15,10,initial,36.05,296,328,361,393,425,9,9,9,9,9,,,,,,,1,0,1,0,0,12,12,21,,,,,,,,,,,,num_5,1.1987853000173345,num_5,0.4,0.7,0.5,0.7,19.10275,26.74385,return,2.604661399964243,,,,,,,,,,,,,,,,,904,26,female,left_right_width,2024-10-16_08h39.35.744,exp1,2023.1.0,60.017164900125174,
,,,,,,,,,,,,,,,,5,8.2,9.1,10,10.9,11.8,0.9,0.35,0.55,4.15,10,initial,36.05,296,328,361,393,425,9,9,9,9,9,,,,,,,1,0,1,0,0,13,13,46,,,,,,,,,,,,num_5,0.8604263999732211,num_5,0.35,0.9,0.5499999999999999,0.85,21.01303,32.47468,return,3.48855090001598,,,,,,,,,,,,,,,,,904,26,female,left_right_width,2024-10-16_08h39.35.744,exp1,2023.1.0,60.017164900125174,
,,,,,,,,,,,,,,,,3,9.1,10,10.9,0,0,0.9,0.35,0.55,2.35,10,initial,36.05,328,361,393,0,0,9,9,9,0,0,,,,,,,1,0,1,0,0,14,14,29,,,,,,,,,,,,num_3,5.216173400054686,num_3,0.4,0.8,0.4,0.8,15.2822,30.5644,return,0.7516563000390306,,,,,,,,,,,,,,,,,904,26,female,left_right_width,2024-10-16_08h39.35.744,exp1,2023.1.0,60.017164900125174,
,,,,,,,,,,,,,,,,3,9.1,10,10.9,0,0,0.9,0.35,0.55,2.35,10,initial,36.05,328,361,393,0,0,9,9,9,0,0,,,,,,,1,0,1,0,0,15,15,27,,,,,,,,,,,,num_3,0.8149268999695778,num_3,0.5,0.9,0.5,0.9,19.10275,34.38495,return,0.7933826999505982,,,,,,,,,,,,,,,,,904,26,female,left_right_width,2024-10-16_08h39.35.744,exp1,2023.1.0,60.017164900125174,
,,,,,,,,,,,,,,,,5,8.2,9.1,10,10.9,11.8,0.9,0.35,0.55,4.15,10,initial,36.05,296,328,361,393,425,9,9,9,9,9,,,,,,,1,0,1,0,0,16,16,20,,,,,,,,,,,,num_4,0.8776832999428734,num_4,0.4,0.8,0.55,0.8,21.01303,30.5644,return,2.1345343999564648,,,,,,,,,,,,,,,,,904,26,female,left_right_width,2024-10-16_08h39.35.744,exp1,2023.1.0,60.017164900125174,
,,,,,,,,,,,,,,,,5,8.2,9.1,10,10.9,11.8,0.9,0.35,0.55,4.15,10,initial,36.05,296,328,361,393,425,9,9,9,9,9,,,,,,,1,0,1,0,0,17,17,22,,,,,,,,,,,,num_5,1.5534336999990046,num_5,0.25,0.9,0.65,0.9,24.83358,34.38495,return,3.485915199969895,,,,,,,,,,,,,,,,,904,26,female,left_right_width,2024-10-16_08h39.35.744,exp1,2023.1.0,60.017164900125174,
,,,,,,,,,,,,,,,,4,8.65,9.55,10.45,11.35,0,0.9,0.35,0.55,3.25,10,initial,36.05,312,344,377,409,0,9,9,9,9,0,,,,,,,1,0,1,0,0,18,18,36,,,,,,,,,,,,num_4,1.2875185000011697,num_4,0.2,0.6,0.49999999999999994,0.7,19.10275,26.74385,return,3.3426796999992803,,,,,,,,,,,,,,,,,904,26,female,left_right_width,2024-10-16_08h39.35.744,exp1,2023.1.0,60.017164900125174,
,,,,,,,,,,,,,,,,4,8.65,9.55,10.45,11.35,0,0.9,0.35,0.55,3.25,10,initial,36.05,312,344,377,409,0,9,9,9,9,0,,,,,,,1,0,1,0,0,19,19,43,,,,,,,,,,,,num_4,2.1645541000179946,num_4,0.35,0.5,0.6,0.9,22.9233,34.38495,return,3.4849108998896554,,,,,,,,,,,,,,,,,904,26,female,left_right_width,2024-10-16_08h39.35.744,exp1,2023.1.0,60.017164900125174,
,,,,,,,,,,,,,,,,4,8.65,9.55,10.45,11.35,0,0.9,0.35,0.55,3.25,10,initial,36.05,312,344,377,409,0,9,9,9,9,0,,,,,,,1,0,1,0,0,20,20,42,,,,,,,,,,,,num_4,5.7843954000854865,num_4,0.2,0.3,0.3,0.8,11.46165,30.5644,return,3.2755163999972865,,,,,,,,,,,,,,,,,904,26,female,left_right_width,2024-10-16_08h39.35.744,exp1,2023.1.0,60.017164900125174,
,,,,,,,,,,,,,,,,5,8.2,9.1,10,10.9,11.8,0.9,0.35,0.55,4.15,10,initial,36.05,296,328,361,393,425,9,9,9,9,9,,,,,,,1,0,1,0,0,21,21,26,,,,,,,,,,,,num_4,1.2160977999446914,num_4,0.3,0.9,0.5499999999999999,0.9,21.01303,34.38495,return,5.421921800007112,,,,,,,,,,,,,,,,,904,26,female,left_right_width,2024-10-16_08h39.35.744,exp1,2023.1.0,60.017164900125174,
,,,,,,,,,,,,,,,,3,9.1,10,10.9,0,0,0.9,0.35,0.55,2.35,10,initial,36.05,328,361,393,0,0,9,9,9,0,0,,,,,,,1,0,1,0,0,22,22,1,,,,,,,,,,,,num_3,1.4955775000853464,num_3,0.3,1.2,0.44999999999999996,0.85,17.19248,32.47468,return,5.108919900027104,,,,,,,,,,,,,,,,,904,26,female,left_right_width,2024-10-16_08h39.35.744,exp1,2023.1.0,60.017164900125174,
,,,,,,,,,,,,,,,,5,8.2,9.1,10,10.9,11.8,0.9,0.35,0.55,4.15,10,initial,36.05,296,328,361,393,425,9,9,9,9,9,,,,,,,1,0,1,0,0,23,23,19,,,,,,,,,,,,num_5,0.8528585999738425,num_5,0.45,1.1,0.5,1.0,19.10275,38.2055,return,5.889036200009286,,,,,,,,,,,,,,,,,904,26,female,left_right_width,2024-10-16_08h39.35.744,exp1,2023.1.0,60.017164900125174,
,,,,,,,,,,,,,,,,4,8.65,9.55,10.45,11.35,0,0.9,0.35,0.55,3.25,10,initial,36.05,312,344,377,409,0,9,9,9,9,0,,,,,,,1,0,1,0,0,24,24,12,,,,,,,,,,,,num_4,0.9416324000339955,num_4,0.4,0.5,0.4,0.7,15.2822,26.74385,return,2.935059899929911,,,,,,,,,,,,,,,,,904,26,female,left_right_width,2024-10-16_08h39.35.744,exp1,2023.1.0,60.017164900125174,
,,,,,,,,,,,,,,,,3,9.1,10,10.9,0,0,0.9,0.35,0.55,2.35,10,initial,36.05,328,361,393,0,0,9,9,9,0,0,,,,,,,1,0,1,0,0,25,25,4,,,,,,,,,,,,num_3,0.9109091999707744,num_3,0.5,0.9,0.5,0.85,19.10275,32.47468,return,2.7748129999963567,,,,,,,,,,,,,,,,,904,26,female,left_right_width,2024-10-16_08h39.35.744,exp1,2023.1.0,60.017164900125174,
,,,,,,,,,,,,,,,,4,8.65,9.55,10.45,11.35,0,0.9,0.35,0.55,3.25,10,initial,36.05,312,344,377,409,0,9,9,9,9,0,,,,,,,1,0,1,0,0,26,26,41,,,,,,,,,,,,num_3,0.8116665999405086,num_3,0.3,1.1,0.49999999999999994,0.85,19.10275,32.47468,return,6.614435499999672,,,,,,,,,,,,,,,,,904,26,female,left_right_width,2024-10-16_08h39.35.744,exp1,2023.1.0,60.017164900125174,
,,,,,,,,,,,,,,,,3,9.1,10,10.9,0,0,0.9,0.35,0.55,2.35,10,initial,36.05,328,361,393,0,0,9,9,9,0,0,,,,,,,1,0,1,0,0,27,27,2,,,,,,,,,,,,num_3,0.8108848999254405,num_3,0.3,1.1,0.44999999999999996,0.75,17.19248,28.65413,return,6.4404598999535665,,,,,,,,,,,,,,,,,904,26,female,left_right_width,2024-10-16_08h39.35.744,exp1,2023.1.0,60.017164900125174,
,,,,,,,,,,,,,,,,3,9.1,10,10.9,0,0,0.9,0.35,0.55,2.35,10,initial,36.05,328,361,393,0,0,9,9,9,0,0,,,,,,,1,0,1,0,0,28,28,7,,,,,,,,,,,,num_3,0.8944007999962196,num_3,0.4,0.6,0.5,0.7,19.10275,26.74385,return,7.076478800037876,,,,,,,,,,,,,,,,,904,26,female,left_right_width,2024-10-16_08h39.35.744,exp1,2023.1.0,60.017164900125174,
,,,,,,,,,,,,,,,,4,8.65,9.55,10.45,11.35,0,0.9,0.35,0.55,3.25,10,initial,36.05,312,344,377,409,0,9,9,9,9,0,,,,,,,1,0,1,0,0,29,29,14,,,,,,,,,,,,num_4,2.2040389999747276,num_4,0.3,0.5,0.35,0.5,13.37193,19.10275,return,4.994436000008136,,,,,,,,,,,,,,,,,904,26,female,left_right_width,2024-10-16_08h39.35.744,exp1,2023.1.0,60.017164900125174,
,,,,,,,,,,,,,,,,4,8.65,9.55,10.45,11.35,0,0.9,0.35,0.55,3.25,10,initial,36.05,312,344,377,409,0,9,9,9,9,0,,,,,,,1,0,1,0,0,30,30,17,,,,,,,,,,,,num_4,0.8832303000381216,num_4,0.45,1.2,0.45,0.7,17.19248,26.74385,return,2.4628406000556424,,,,,,,,,,,,,,,,,904,26,female,left_right_width,2024-10-16_08h39.35.744,exp1,2023.1.0,60.017164900125174,
,,,,,,,,,,,,,,,,5,8.2,9.1,10,10.9,11.8,0.9,0.35,0.55,4.15,10,initial,36.05,296,328,361,393,425,9,9,9,9,9,,,,,,,1,0,1,0,0,31,31,24,,,,,,,,,,,,num_5,1.2387091000564396,num_5,0.45,1.2,0.45,0.65,17.19248,24.83358,return,4.450944000040181,,,,,,,,,,,,,,,,,904,26,female,left_right_width,2024-10-16_08h39.35.744,exp1,2023.1.0,60.017164900125174,
,,,,,,,,,,,,,,,,5,8.2,9.1,10,10.9,11.8,0.9,0.35,0.55,4.15,10,initial,36.05,296,328,361,393,425,9,9,9,9,9,,,,,,,1,0,1,0,0,32,32,18,,,,,,,,,,,,num_5,2.4756576999789104,num_5,0.3,1.1,0.44999999999999996,0.6,17.19248,22.9233,return,9.574018299928866,,,,,,,,,,,,,,,,,904,26,female,left_right_width,2024-10-16_08h39.35.744,exp1,2023.1.0,60.017164900125174,
,,,,,,,,,,,,,,,,3,9.1,10,10.9,0,0,0.9,0.35,0.55,2.35,10,initial,36.05,328,361,393,0,0,9,9,9,0,0,,,,,,,1,0,1,0,0,33,33,31,,,,,,,,,,,,num_3,0.7669628999428824,num_3,0.25,0.6,0.44999999999999996,0.6,17.19248,22.9233,return,2.415219300077297,,,,,,,,,,,,,,,,,904,26,female,left_right_width,2024-10-16_08h39.35.744,exp1,2023.1.0,60.017164900125174,
,,,,,,,,,,,,,,,,3,9.1,10,10.9,0,0,0.9,0.35,0.55,2.35,10,initial,36.05,328,361,393,0,0,9,9,9,0,0,,,,,,,1,0,1,0,0,34,34,0,,,,,,,,,,,,num_3,0.880472999997437,num_3,0.3,1.3,0.39999999999999997,0.7,15.2822,26.74385,return,7.05198789993301,,,,,,,,,,,,,,,,,904,26,female,left_right_width,2024-10-16_08h39.35.744,exp1,2023.1.0,60.017164900125174,
,,,,,,,,,,,,,,,,4,8.65,9.55,10.45,11.35,0,0.9,0.35,0.55,3.25,10,initial,36.05,312,344,377,409,0,9,9,9,9,0,,,,,,,1,0,1,0,0,35,35,44,,,,,,,,,,,,num_4,0.9708082000724971,num_4,0.4,0.9,0.55,0.8,21.01303,30.5644,return,4.352965099969879,,,,,,,,,,,,,,,,,904,26,female,left_right_width,2024-10-16_08h39.35.744,exp1,2023.1.0,60.017164900125174,
,,,,,,,,,,,,,,,,5,8.2,9.1,10,10.9,11.8,0.9,0.35,0.55,4.15,10,initial,36.05,296,328,361,393,425,9,9,9,9,9,,,,,,,1,0,1,0,0,36,36,52,,,,,,,,,,,,num_4,0.814381199888885,num_4,0.3,0.8,0.44999999999999996,0.7,17.19248,26.74385,return,8.006082899984904,,,,,,,,,,,,,,,,,904,26,female,left_right_width,2024-10-16_08h39.35.744,exp1,2023.1.0,60.017164900125174,
,,,,,,,,,,,,,,,,4,8.65,9.55,10.45,11.35,0,0.9,0.35,0.55,3.25,10,initial,36.05,312,344,377,409,0,9,9,9,9,0,,,,,,,1,0,1,0,0,37,37,39,,,,,,,,,,,,num_4,0.8387012999737635,num_4,0.2,1.3,0.49999999999999994,0.8,19.10275,30.5644,return,5.903657399932854,,,,,,,,,,,,,,,,,904,26,female,left_right_width,2024-10-16_08h39.35.744,exp1,2023.1.0,60.017164900125174,
,,,,,,,,,,,,,,,,4,8.65,9.55,10.45,11.35,0,0.9,0.35,0.55,3.25,10,initial,36.05,312,344,377,409,0,9,9,9,9,0,,,,,,,1,0,1,0,0,38,38,9,,,,,,,,,,,,num_4,0.820355899981223,num_4,0.25,1.3,0.39999999999999997,0.7,15.2822,26.74385,return,3.568719399976544,,,,,,,,,,,,,,,,,904,26,female,left_right_width,2024-10-16_08h39.35.744,exp1,2023.1.0,60.017164900125174,
,,,,,,,,,,,,,,,,4,8.65,9.55,10.45,11.35,0,0.9,0.35,0.55,3.25,10,initial,36.05,312,344,377,409,0,9,9,9,9,0,,,,,,,1,0,1,0,0,39,39,11,,,,,,,,,,,,num_3,2.1969847000436857,num_3,0.25,1.2,0.49999999999999994,0.75,19.10275,28.65413,return,5.287882399978116,,,,,,,,,,,,,,,,,904,26,female,left_right_width,2024-10-16_08h39.35.744,exp1,2023.1.0,60.017164900125174,
,,,,,,,,,,,,,,,,3,9.1,10,10.9,0,0,0.9,0.35,0.55,2.35,10,initial,36.05,328,361,393,0,0,9,9,9,0,0,,,,,,,1,0,1,0,0,40,40,8,,,,,,,,,,,,num_3,0.8011939999414608,num_3,0.45,1.3,0.45,0.65,17.19248,24.83358,return,4.864368099952117,,,,,,,,,,,,,,,,,904,26,female,left_right_width,2024-10-16_08h39.35.744,exp1,2023.1.0,60.017164900125174,
,,,,,,,,,,,,,,,,5,8.2,9.1,10,10.9,11.8,0.9,0.35,0.55,4.15,10,initial,36.05,296,328,361,393,425,9,9,9,9,9,,,,,,,1,0,1,0,0,41,41,25,,,,,,,,,,,,num_4,1.4627079999772832,num_4,0.55,1.2,0.45,0.7,17.19248,26.74385,return,4.530745800002478,,,,,,,,,,,,,,,,,904,26,female,left_right_width,2024-10-16_08h39.35.744,exp1,2023.1.0,60.017164900125174,
,,,,,,,,,,,,,,,,3,9.1,10,10.9,0,0,0.9,0.35,0.55,2.35,10,initial,36.05,328,361,393,0,0,9,9,9,0,0,,,,,,,1,0,1,0,0,42,42,5,,,,,,,,,,,,num_3,1.0899714999832213,num_3,0.45,1.2,0.4,0.7,15.2822,26.74385,return,4.165312299970537,,,,,,,,,,,,,,,,,904,26,female,left_right_width,2024-10-16_08h39.35.744,exp1,2023.1.0,60.017164900125174,
,,,,,,,,,,,,,,,,4,8.65,9.55,10.45,11.35,0,0.9,0.35,0.55,3.25,10,initial,36.05,312,344,377,409,0,9,9,9,9,0,,,,,,,1,0,1,0,0,43,43,16,,,,,,,,,,,,num_3,0.7769345000851899,num_3,0.3,0.9,0.35,0.7,13.37193,26.74385,return,3.923198099946603,,,,,,,,,,,,,,,,,904,26,female,left_right_width,2024-10-16_08h39.35.744,exp1,2023.1.0,60.017164900125174,
,,,,,,,,,,,,,,,,5,8.2,9.1,10,10.9,11.8,0.9,0.35,0.55,4.15,10,initial,36.05,296,328,361,393,425,9,9,9,9,9,,,,,,,1,0,1,0,0,44,44,45,,,,,,,,,,,,num_3,0.8661423999583349,num_3,0.35,0.4,0.49999999999999994,0.65,19.10275,24.83358,return,6.425251299981028,,,,,,,,,,,,,,,,,904,26,female,left_right_width,2024-10-16_08h39.35.744,exp1,2023.1.0,60.017164900125174,
,,,,,,,,,,,,,,,,5,8.2,9.1,10,10.9,11.8,0.9,0.35,0.55,4.15,10,initial,36.05,296,328,361,393,425,9,9,9,9,9,,,,,,,1,0,1,0,0,45,45,53,,,,,,,,,,,,num_4,0.9610982000594959,num_4,0.25,0.9,0.44999999999999996,0.7,17.19248,26.74385,return,4.197231699945405,,,,,,,,,,,,,,,,,904,26,female,left_right_width,2024-10-16_08h39.35.744,exp1,2023.1.0,60.017164900125174,
,,,,,,,,,,,,,,,,4,8.65,9.55,10.45,11.35,0,0.9,0.35,0.55,3.25,10,initial,36.05,312,344,377,409,0,9,9,9,9,0,,,,,,,1,0,1,0,0,46,46,13,,,,,,,,,,,,num_3,0.8103363999398425,num_3,0.35,0.7,0.49999999999999994,0.75,19.10275,28.65413,return,3.689571699942462,,,,,,,,,,,,,,,,,904,26,female,left_right_width,2024-10-16_08h39.35.744,exp1,2023.1.0,60.017164900125174,
,,,,,,,,,,,,,,,,4,8.65,9.55,10.45,11.35,0,0.9,0.35,0.55,3.25,10,initial,36.05,312,344,377,409,0,9,9,9,9,0,,,,,,,1,0,1,0,0,47,47,38,,,,,,,,,,,,num_4,0.8466267000185326,num_4,0.3,0.9,0.39999999999999997,0.7,15.2822,26.74385,return,2.2994916000170633,,,,,,,,,,,,,,,,,904,26,female,left_right_width,2024-10-16_08h39.35.744,exp1,2023.1.0,60.017164900125174,
,,,,,,,,,,,,,,,,3,9.1,10,10.9,0,0,0.9,0.35,0.55,2.35,10,initial,36.05,328,361,393,0,0,9,9,9,0,0,,,,,,,1,0,1,0,0,48,48,6,,,,,,,,,,,,num_3,0.7658863000106066,num_3,0.25,0.8,0.5499999999999999,0.85,21.01303,32.47468,return,3.931667900062166,,,,,,,,,,,,,,,,,904,26,female,left_right_width,2024-10-16_08h39.35.744,exp1,2023.1.0,60.017164900125174,
,,,,,,,,,,,,,,,,3,9.1,10,10.9,0,0,0.9,0.35,0.55,2.35,10,initial,36.05,328,361,393,0,0,9,9,9,0,0,,,,,,,1,0,1,0,0,49,49,30,,,,,,,,,,,,num_3,0.8425244999816641,num_3,0.35,1,0.49999999999999994,0.8,19.10275,30.5644,return,4.258584100054577,,,,,,,,,,,,,,,,,904,26,female,left_right_width,2024-10-16_08h39.35.744,exp1,2023.1.0,60.017164900125174,
,,,,,,,,,,,,,,,,3,9.1,10,10.9,0,0,0.9,0.35,0.55,2.35,10,initial,36.05,328,361,393,0,0,9,9,9,0,0,,,,,,,1,0,1,0,0,50,50,28,,,,,,,,,,,,num_3,0.7423344999551773,num_3,0.25,1.3,0.44999999999999996,0.85,17.19248,32.47468,return,5.108538500033319,,,,,,,,,,,,,,,,,904,26,female,left_right_width,2024-10-16_08h39.35.744,exp1,2023.1.0,60.017164900125174,
,,,,,,,,,,,,,,,,3,9.1,10,10.9,0,0,0.9,0.35,0.55,2.35,10,initial,36.05,328,361,393,0,0,9,9,9,0,0,,,,,,,1,0,1,0,0,51,51,34,,,,,,,,,,,,num_3,1.4256298000691459,num_3,0.3,1.2,0.49999999999999994,0.8,19.10275,30.5644,return,9.478355699917302,,,,,,,,,,,,,,,,,904,26,female,left_right_width,2024-10-16_08h39.35.744,exp1,2023.1.0,60.017164900125174,
,,,,,,,,,,,,,,,,5,8.2,9.1,10,10.9,11.8,0.9,0.35,0.55,4.15,10,initial,36.05,296,328,361,393,425,9,9,9,9,9,,,,,,,1,0,1,0,0,52,52,51,,,,,,,,,,,,num_4,3.1267589000053704,num_4,0.4,0.7,0.35000000000000003,0.6,13.37193,22.9233,return,3.8943976999726146,,,,,,,,,,,,,,,,,904,26,female,left_right_width,2024-10-16_08h39.35.744,exp1,2023.1.0,60.017164900125174,
,,,,,,,,,,,,,,,,4,8.65,9.55,10.45,11.35,0,0.9,0.35,0.55,3.25,10,initial,36.05,312,344,377,409,0,9,9,9,9,0,,,,,,,1,0,1,0,0,53,53,15,,,,,,,,,,,,num_3,0.7548324000090361,num_3,0.35,1.1,0.49999999999999994,0.8,19.10275,30.5644,return,5.412096599931829,,,,,,,,,,,,,,,,,904,26,female,left_right_width,2024-10-16_08h39.35.744,exp1,2023.1.0,60.017164900125174,
,,,,,,,,,,,,,,,,,,,,,,,,,,,,,,,,,,,,,,,,,,,,,1,0,1,0,,,,,,,,,,,,,,,,,,,,,,,,,,,,,1621.6396670999238,1621.6396670999238,1621.6396670999238,,,,,,,,,,,,904,26,female,left_right_width,2024-10-16_08h39.35.744,exp1,2023.1.0,60.017164900125174,
,,,,,,,,,,,,,,,,5,9,9.5,10,10.5,11,0.5,0.1,0.4,2.4,10,initial,36.05,324,342,361,379,397,9,9,9,9,9,,,,,,,2,0,2,0,0,0,0,49,,,,,,,,,,,,num_4,1.4914123999187723,num_4,0.5,0.9,0.30000000000000004,0.5,11.46165,19.10275,return,4.273536599939689,,,,,,,,,,,,,,,,,904,26,female,left_right_width,2024-10-16_08h39.35.744,exp1,2023.1.0,60.017164900125174,
,,,,,,,,,,,,,,,,3,9.5,10,10.5,0,0,0.5,0.1,0.4,1.4000000000000001,10,initial,36.05,342,361,379,0,0,9,9,9,0,0,,,,,,,2,0,2,0,0,1,1,32,,,,,,,,,,,,num_3,0.7859003000194207,num_3,0.35,1.2,0.35,0.5,13.37193,19.10275,return,3.44127860001754,,,,,,,,,,,,,,,,,904,26,female,left_right_width,2024-10-16_08h39.35.744,exp1,2023.1.0,60.017164900125174,
,,,,,,,,,,,,,,,,3,9.5,10,10.5,0,0,0.5,0.1,0.4,1.4000000000000001,10,initial,36.05,342,361,379,0,0,9,9,9,0,0,,,,,,,2,0,2,0,0,2,2,3,,,,,,,,,,,,num_3,0.7935600999044254,num_3,0.5,0.6,0.35000000000000003,0.5,13.37193,19.10275,return,3.0261259000981227,,,,,,,,,,,,,,,,,904,26,female,left_right_width,2024-10-16_08h39.35.744,exp1,2023.1.0,60.017164900125174,
,,,,,,,,,,,,,,,,3,9.5,10,10.5,0,0,0.5,0.1,0.4,1.4000000000000001,10,initial,36.05,342,361,379,0,0,9,9,9,0,0,,,,,,,2,0,2,0,0,3,3,27,,,,,,,,,,,,num_3,0.6942928000353277,num_3,0.55,0.7,0.4,0.55,15.2822,21.01303,return,3.876602799980901,,,,,,,,,,,,,,,,,904,26,female,left_right_width,2024-10-16_08h39.35.744,exp1,2023.1.0,60.017164900125174,
,,,,,,,,,,,,,,,,4,9.25,9.75,10.25,10.75,0,0.5,0.1,0.4,1.9000000000000001,10,initial,36.05,333,351,370,388,0,9,9,9,9,0,,,,,,,2,0,2,0,0,4,4,40,,,,,,,,,,,,num_4,0.8598667000187561,num_4,0.25,1.2,0.35,0.5,13.37193,19.10275,return,8.980328799923882,,,,,,,,,,,,,,,,,904,26,female,left_right_width,2024-10-16_08h39.35.744,exp1,2023.1.0,60.017164900125174,
,,,,,,,,,,,,,,,,4,9.25,9.75,10.25,10.75,0,0.5,0.1,0.4,1.9000000000000001,10,initial,36.05,333,351,370,388,0,9,9,9,9,0,,,,,,,2,0,2,0,0,5,5,12,,,,,,,,,,,,num_4,1.246515000006184,num_4,0.25,0.7,0.25,0.4,9.55138,15.2822,return,2.4543128999648616,,,,,,,,,,,,,,,,,904,26,female,left_right_width,2024-10-16_08h39.35.744,exp1,2023.1.0,60.017164900125174,
,,,,,,,,,,,,,,,,4,9.25,9.75,10.25,10.75,0,0.5,0.1,0.4,1.9000000000000001,10,initial,36.05,333,351,370,388,0,9,9,9,9,0,,,,,,,2,0,2,0,0,6,6,17,,,,,,,,,,,,num_4,0.7643840999808162,num_4,0.4,0.9,0.45,0.6,17.19248,22.9233,return,6.276673899963498,,,,,,,,,,,,,,,,,904,26,female,left_right_width,2024-10-16_08h39.35.744,exp1,2023.1.0,60.017164900125174,
,,,,,,,,,,,,,,,,4,9.25,9.75,10.25,10.75,0,0.5,0.1,0.4,1.9000000000000001,10,initial,36.05,333,351,370,388,0,9,9,9,9,0,,,,,,,2,0,2,0,0,7,7,13,,,,,,,,,,,,num_3,0.8789464000146836,num_3,0.4,0.6,0.4,0.55,15.2822,21.01303,return,4.41094480000902,,,,,,,,,,,,,,,,,904,26,female,left_right_width,2024-10-16_08h39.35.744,exp1,2023.1.0,60.017164900125174,
,,,,,,,,,,,,,,,,4,9.25,9.75,10.25,10.75,0,0.5,0.1,0.4,1.9000000000000001,10,initial,36.05,333,351,370,388,0,9,9,9,9,0,,,,,,,2,0,2,0,0,8,8,43,,,,,,,,,,,,num_4,1.3086844000499696,num_4,0.35,1.3,0.3,0.5,11.46165,19.10275,return,4.706060600001365,,,,,,,,,,,,,,,,,904,26,female,left_right_width,2024-10-16_08h39.35.744,exp1,2023.1.0,60.017164900125174,
,,,,,,,,,,,,,,,,3,9.5,10,10.5,0,0,0.5,0.1,0.4,1.4000000000000001,10,initial,36.05,342,361,379,0,0,9,9,9,0,0,,,,,,,2,0,2,0,0,9,9,0,,,,,,,,,,,,num_3,1.362925700028427,num_3,0.25,1.2,0.25,0.7,9.55138,26.74385,return,6.251880099996924,,,,,,,,,,,,,,,,,904,26,female,left_right_width,2024-10-16_08h39.35.744,exp1,2023.1.0,60.017164900125174,
,,,,,,,,,,,,,,,,5,9,9.5,10,10.5,11,0.5,0.1,0.4,2.4,10,initial,36.05,324,342,361,379,397,9,9,9,9,9,,,,,,,2,0,2,0,0,10,10,23,,,,,,,,,,,,num_4,1.097487899940461,num_4,0.3,0.8,0.3,0.5,11.46165,19.10275,return,4.953184999991208,,,,,,,,,,,,,,,,,904,26,female,left_right_width,2024-10-16_08h39.35.744,exp1,2023.1.0,60.017164900125174,
,,,,,,,,,,,,,,,,3,9.5,10,10.5,0,0,0.5,0.1,0.4,1.4000000000000001,10,initial,36.05,342,361,379,0,0,9,9,9,0,0,,,,,,,2,0,2,0,0,11,11,5,,,,,,,,,,,,num_3,0.8894409000640735,num_3,0.5,1.2,0.45,0.6,17.19248,22.9233,return,4.31982189998962,,,,,,,,,,,,,,,,,904,26,female,left_right_width,2024-10-16_08h39.35.744,exp1,2023.1.0,60.017164900125174,
,,,,,,,,,,,,,,,,5,9,9.5,10,10.5,11,0.5,0.1,0.4,2.4,10,initial,36.05,324,342,361,379,397,9,9,9,9,9,,,,,,,2,0,2,0,0,12,12,53,,,,,,,,,,,,num_4,0.814401299925521,num_4,0.3,0.5,0.39999999999999997,0.6,15.2822,22.9233,return,3.66821939998772,,,,,,,,,,,,,,,,,904,26,female,left_right_width,2024-10-16_08h39.35.744,exp1,2023.1.0,60.017164900125174,
,,,,,,,,,,,,,,,,3,9.5,10,10.5,0,0,0.5,0.1,0.4,1.4000000000000001,10,initial,36.05,342,361,379,0,0,9,9,9,0,0,,,,,,,2,0,2,0,0,13,13,31,,,,,,,,,,,,num_3,0.8761225000489503,num_3,0.55,1.2,0.45,0.7,17.19248,26.74385,return,9.112236100016162,,,,,,,,,,,,,,,,,904,26,female,left_right_width,2024-10-16_08h39.35.744,exp1,2023.1.0,60.017164900125174,
,,,,,,,,,,,,,,,,4,9.25,9.75,10.25,10.75,0,0.5,0.1,0.4,1.9000000000000001,10,initial,36.05,333,351,370,388,0,9,9,9,9,0,,,,,,,2,0,2,0,0,14,14,41,,,,,,,,,,,,num_4,1.4081860999576747,num_4,0.45,1.3,0.4,0.5,15.2822,19.10275,return,3.6507299999939278,,,,,,,,,,,,,,,,,904,26,female,left_right_width,2024-10-16_08h39.35.744,exp1,2023.1.0,60.017164900125174,
,,,,,,,,,,,,,,,,5,9,9.5,10,10.5,11,0.5,0.1,0.4,2.4,10,initial,36.05,324,342,361,379,397,9,9,9,9,9,,,,,,,2,0,2,0,0,15,15,18,,,,,,,,,,,,num_4,0.829041299992241,num_4,0.2,0.3,0.44999999999999996,0.6,17.19248,22.9233,return,4.1041270000860095,,,,,,,,,,,,,,,,,904,26,female,left_right_width,2024-10-16_08h39.35.744,exp1,2023.1.0,60.017164900125174,
,,,,,,,,,,,,,,,,5,9,9.5,10,10.5,11,0.5,0.1,0.4,2.4,10,initial,36.05,324,342,361,379,397,9,9,9,9,9,,,,,,,2,0,2,0,0,16,16,48,,,,,,,,,,,,num_4,0.8397078999551013,num_4,0.5,0.6,0.5,0.7,19.10275,26.74385,return,4.356295499950647,,,,,,,,,,,,,,,,,904,26,female,left_right_width,2024-10-16_08h39.35.744,exp1,2023.1.0,60.017164900125174,
,,,,,,,,,,,,,,,,5,9,9.5,10,10.5,11,0.5,0.1,0.4,2.4,10,initial,36.05,324,342,361,379,397,9,9,9,9,9,,,,,,,2,0,2,0,0,17,17,22,,,,,,,,,,,,num_4,0.8678120999829844,num_4,0.3,1.0,0.44999999999999996,0.6,17.19248,22.9233,return,6.888236900093034,,,,,,,,,,,,,,,,,904,26,female,left_right_width,2024-10-16_08h39.35.744,exp1,2023.1.0,60.017164900125174,
,,,,,,,,,,,,,,,,3,9.5,10,10.5,0,0,0.5,0.1,0.4,1.4000000000000001,10,initial,36.05,342,361,379,0,0,9,9,9,0,0,,,,,,,2,0,2,0,0,18,18,1,,,,,,,,,,,,num_3,0.8473866999847814,num_3,0.2,1.2,0.35,0.5,13.37193,19.10275,return,6.647042699973099,,,,,,,,,,,,,,,,,904,26,female,left_right_width,2024-10-16_08h39.35.744,exp1,2023.1.0,60.017164900125174,
,,,,,,,,,,,,,,,,4,9.25,9.75,10.25,10.75,0,0.5,0.1,0.4,1.9000000000000001,10,initial,36.05,333,351,370,388,0,9,9,9,9,0,,,,,,,2,0,2,0,0,19,19,39,,,,,,,,,,,,num_3,0.9600988000165671,num_3,0.35,0.9,0.35,0.45,13.37193,17.19248,return,2.996506000054069,,,,,,,,,,,,,,,,,904,26,female,left_right_width,2024-10-16_08h39.35.744,exp1,2023.1.0,60.017164900125174,
,,,,,,,,,,,,,,,,4,9.25,9.75,10.25,10.75,0,0.5,0.1,0.4,1.9000000000000001,10,initial,36.05,333,351,370,388,0,9,9,9,9,0,,,,,,,2,0,2,0,0,20,20,10,,,,,,,,,,,,num_4,0.7059358999831602,num_4,0.4,1.2,0.4,0.5,15.2822,19.10275,return,3.1080992999486625,,,,,,,,,,,,,,,,,904,26,female,left_right_width,2024-10-16_08h39.35.744,exp1,2023.1.0,60.017164900125174,
,,,,,,,,,,,,,,,,5,9,9.5,10,10.5,11,0.5,0.1,0.4,2.4,10,initial,36.05,324,342,361,379,397,9,9,9,9,9,,,,,,,2,0,2,0,0,21,21,24,,,,,,,,,,,,num_5,0.7940499000251293,num_5,0.45,0.8,0.45,0.65,17.19248,24.83358,return,2.1218590000644326,,,,,,,,,,,,,,,,,904,26,female,left_right_width,2024-10-16_08h39.35.744,exp1,2023.1.0,60.017164900125174,
,,,,,,,,,,,,,,,,5,9,9.5,10,10.5,11,0.5,0.1,0.4,2.4,10,initial,36.05,324,342,361,379,397,9,9,9,9,9,,,,,,,2,0,2,0,0,22,22,20,,,,,,,,,,,,num_4,0.8761935000075027,num_4,0.35,0.9,0.39999999999999997,0.5,15.2822,19.10275,return,2.1969196000136435,,,,,,,,,,,,,,,,,904,26,female,left_right_width,2024-10-16_08h39.35.744,exp1,2023.1.0,60.017164900125174,
,,,,,,,,,,,,,,,,3,9.5,10,10.5,0,0,0.5,0.1,0.4,1.4000000000000001,10,initial,36.05,342,361,379,0,0,9,9,9,0,0,,,,,,,2,0,2,0,0,23,23,7,,,,,,,,,,,,num_3,0.7688758000731468,num_3,0.3,0.4,0.35,0.5,13.37193,19.10275,return,4.669648200040683,,,,,,,,,,,,,,,,,904,26,female,left_right_width,2024-10-16_08h39.35.744,exp1,2023.1.0,60.017164900125174,
,,,,,,,,,,,,,,,,5,9,9.5,10,10.5,11,0.5,0.1,0.4,2.4,10,initial,36.05,324,342,361,379,397,9,9,9,9,9,,,,,,,2,0,2,0,0,24,24,25,,,,,,,,,,,,num_3,0.8318226999836043,num_3,0.4,0.5,0.4,0.5,15.2822,19.10275,return,1.0704722999362275,,,,,,,,,,,,,,,,,904,26,female,left_right_width,2024-10-16_08h39.35.744,exp1,2023.1.0,60.017164900125174,
,,,,,,,,,,,,,,,,4,9.25,9.75,10.25,10.75,0,0.5,0.1,0.4,1.9000000000000001,10,initial,36.05,333,351,370,388,0,9,9,9,9,0,,,,,,,2,0,2,0,0,25,25,16,,,,,,,,,,,,num_3,0.7028091000393033,num_3,0.35,0.5,0.35,0.5,13.37193,19.10275,return,0.6051714000059292,,,,,,,,,,,,,,,,,904,26,female,left_right_width,2024-10-16_08h39.35.744,exp1,2023.1.0,60.017164900125174,
,,,,,,,,,,,,,,,,3,9.5,10,10.5,0,0,0.5,0.1,0.4,1.4000000000000001,10,initial,36.05,342,361,379,0,0,9,9,9,0,0,,,,,,,2,0,2,0,0,26,26,33,,,,,,,,,,,,num_3,0.6520234999479726,num_3,0.2,1.3,0.3,0.55,11.46165,21.01303,return,7.593850699951872,,,,,,,,,,,,,,,,,904,26,female,left_right_width,2024-10-16_08h39.35.744,exp1,2023.1.0,60.017164900125174,
,,,,,,,,,,,,,,,,5,9,9.5,10,10.5,11,0.5,0.1,0.4,2.4,10,initial,36.05,324,342,361,379,397,9,9,9,9,9,,,,,,,2,0,2,0,0,27,27,45,,,,,,,,,,,,num_4,0.8389791999943554,num_4,0.35,0.7,0.39999999999999997,0.6,15.2822,22.9233,return,2.720020500011742,,,,,,,,,,,,,,,,,904,26,female,left_right_width,2024-10-16_08h39.35.744,exp1,2023.1.0,60.017164900125174,
,,,,,,,,,,,,,,,,4,9.25,9.75,10.25,10.75,0,0.5,0.1,0.4,1.9000000000000001,10,initial,36.05,333,351,370,388,0,9,9,9,9,0,,,,,,,2,0,2,0,0,28,28,36,,,,,,,,,,,,num_4,0.8239867000374943,num_4,0.35,0.9,0.39999999999999997,0.6,15.2822,22.9233,return,4.5829545999877155,,,,,,,,,,,,,,,,,904,26,female,left_right_width,2024-10-16_08h39.35.744,exp1,2023.1.0,60.017164900125174,
,,,,,,,,,,,,,,,,5,9,9.5,10,10.5,11,0.5,0.1,0.4,2.4,10,initial,36.05,324,342,361,379,397,9,9,9,9,9,,,,,,,2,0,2,0,0,29,29,51,,,,,,,,,,,,num_4,0.7861505999462679,num_4,0.25,0.4,0.39999999999999997,0.5,15.2822,19.10275,return,5.297214800026268,,,,,,,,,,,,,,,,,904,26,female,left_right_width,2024-10-16_08h39.35.744,exp1,2023.1.0,60.017164900125174,
,,,,,,,,,,,,,,,,3,9.5,10,10.5,0,0,0.5,0.1,0.4,1.4000000000000001,10,initial,36.05,342,361,379,0,0,9,9,9,0,0,,,,,,,2,0,2,0,0,30,30,4,,,,,,,,,,,,num_2,0.9297344000078738,num_2,0.35,0.6,0.35,0.6,13.37193,22.9233,return,1.0149538000114262,,,,,,,,,,,,,,,,,904,26,female,left_right_width,2024-10-16_08h39.35.744,exp1,2023.1.0,60.017164900125174,
,,,,,,,,,,,,,,,,3,9.5,10,10.5,0,0,0.5,0.1,0.4,1.4000000000000001,10,initial,36.05,342,361,379,0,0,9,9,9,0,0,,,,,,,2,0,2,0,0,31,31,2,,,,,,,,,,,,num_3,0.7682572000194341,num_3,0.4,0.5,0.35000000000000003,0.5,13.37193,19.10275,return,1.9031858999514952,,,,,,,,,,,,,,,,,904,26,female,left_right_width,2024-10-16_08h39.35.744,exp1,2023.1.0,60.017164900125174,
,,,,,,,,,,,,,,,,5,9,9.5,10,10.5,11,0.5,0.1,0.4,2.4,10,initial,36.05,324,342,361,379,397,9,9,9,9,9,,,,,,,2,0,2,0,0,32,32,52,,,,,,,,,,,,num_4,0.8272538000019267,num_4,0.5,0.8,0.4,0.6,15.2822,22.9233,return,3.0808883999707177,,,,,,,,,,,,,,,,,904,26,female,left_right_width,2024-10-16_08h39.35.744,exp1,2023.1.0,60.017164900125174,
,,,,,,,,,,,,,,,,3,9.5,10,10.5,0,0,0.5,0.1,0.4,1.4000000000000001,10,initial,36.05,342,361,379,0,0,9,9,9,0,0,,,,,,,2,0,2,0,0,33,33,35,,,,,,,,,,,,num_3,0.7346558999270201,num_3,0.2,0.5,0.39999999999999997,0.5,15.2822,19.10275,return,3.215988799929619,,,,,,,,,,,,,,,,,904,26,female,left_right_width,2024-10-16_08h39.35.744,exp1,2023.1.0,60.017164900125174,
,,,,,,,,,,,,,,,,3,9.5,10,10.5,0,0,0.5,0.1,0.4,1.4000000000000001,10,initial,36.05,342,361,379,0,0,9,9,9,0,0,,,,,,,2,0,2,0,0,34,34,6,,,,,,,,,,,,num_3,0.7660692000063136,num_3,0.3,0.7,0.44999999999999996,0.6,17.19248,22.9233,return,2.9219327999744564,,,,,,,,,,,,,,,,,904,26,female,left_right_width,2024-10-16_08h39.35.744,exp1,2023.1.0,60.017164900125174,
,,,,,,,,,,,,,,,,5,9,9.5,10,10.5,11,0.5,0.1,0.4,2.4,10,initial,36.05,324,342,361,379,397,9,9,9,9,9,,,,,,,2,0,2,0,0,35,35,50,,,,,,,,,,,,num_4,0.8173358999192715,num_4,0.5,1.3,0.45,0.6,17.19248,22.9233,return,3.1004044000292197,,,,,,,,,,,,,,,,,904,26,female,left_right_width,2024-10-16_08h39.35.744,exp1,2023.1.0,60.017164900125174,
,,,,,,,,,,,,,,,,4,9.25,9.75,10.25,10.75,0,0.5,0.1,0.4,1.9000000000000001,10,initial,36.05,333,351,370,388,0,9,9,9,9,0,,,,,,,2,0,2,0,0,36,36,15,,,,,,,,,,,,num_3,0.7492847999092191,num_3,0.35,0.9,0.35,0.5,13.37193,19.10275,return,2.6058156000217423,,,,,,,,,,,,,,,,,904,26,female,left_right_width,2024-10-16_08h39.35.744,exp1,2023.1.0,60.017164900125174,
,,,,,,,,,,,,,,,,3,9.5,10,10.5,0,0,0.5,0.1,0.4,1.4000000000000001,10,initial,36.05,342,361,379,0,0,9,9,9,0,0,,,,,,,2,0,2,0,0,37,37,34,,,,,,,,,,,,num_3,0.6818030999274924,num_3,0.25,0.8,0.3,0.45,11.46165,17.19248,return,3.1284107000101358,,,,,,,,,,,,,,,,,904,26,female,left_right_width,2024-10-16_08h39.35.744,exp1,2023.1.0,60.017164900125174,
,,,,,,,,,,,,,,,,4,9.25,9.75,10.25,10.75,0,0.5,0.1,0.4,1.9000000000000001,10,initial,36.05,333,351,370,388,0,9,9,9,9,0,,,,,,,2,0,2,0,0,38,38,42,,,,,,,,,,,,num_3,0.7920970999402925,num_3,0.3,1.3,0.35,0.45,13.37193,17.19248,return,5.650573399965651,,,,,,,,,,,,,,,,,904,26,female,left_right_width,2024-10-16_08h39.35.744,exp1,2023.1.0,60.017164900125174,
,,,,,,,,,,,,,,,,4,9.25,9.75,10.25,10.75,0,0.5,0.1,0.4,1.9000000000000001,10,initial,36.05,333,351,370,388,0,9,9,9,9,0,,,,,,,2,0,2,0,0,39,39,14,,,,,,,,,,,,num_4,0.9513456999557093,num_4,0.55,0.6,0.4,0.5,15.2822,19.10275,return,3.739308299962431,,,,,,,,,,,,,,,,,904,26,female,left_right_width,2024-10-16_08h39.35.744,exp1,2023.1.0,60.017164900125174,
,,,,,,,,,,,,,,,,3,9.5,10,10.5,0,0,0.5,0.1,0.4,1.4000000000000001,10,initial,36.05,342,361,379,0,0,9,9,9,0,0,,,,,,,2,0,2,0,0,40,40,30,,,,,,,,,,,,num_3,1.006416300078854,num_3,0.3,0.5,0.35,0.5,13.37193,19.10275,return,1.647491900017485,,,,,,,,,,,,,,,,,904,26,female,left_right_width,2024-10-16_08h39.35.744,exp1,2023.1.0,60.017164900125174,
,,,,,,,,,,,,,,,,4,9.25,9.75,10.25,10.75,0,0.5,0.1,0.4,1.9000000000000001,10,initial,36.05,333,351,370,388,0,9,9,9,9,0,,,,,,,2,0,2,0,0,41,41,44,,,,,,,,,,,,num_3,0.7326307999901474,num_3,0.5,0.6,0.45,0.6,17.19248,22.9233,return,1.3874283999903128,,,,,,,,,,,,,,,,,904,26,female,left_right_width,2024-10-16_08h39.35.744,exp1,2023.1.0,60.017164900125174,
,,,,,,,,,,,,,,,,5,9,9.5,10,10.5,11,0.5,0.1,0.4,2.4,10,initial,36.05,324,342,361,379,397,9,9,9,9,9,,,,,,,2,0,2,0,0,42,42,46,,,,,,,,,,,,num_4,1.0966146000428125,num_4,0.5,1.3,0.5,0.7,19.10275,26.74385,return,2.5974721000529826,,,,,,,,,,,,,,,,,904,26,female,left_right_width,2024-10-16_08h39.35.744,exp1,2023.1.0,60.017164900125174,
,,,,,,,,,,,,,,,,4,9.25,9.75,10.25,10.75,0,0.5,0.1,0.4,1.9000000000000001,10,initial,36.05,333,351,370,388,0,9,9,9,9,0,,,,,,,2,0,2,0,0,43,43,9,,,,,,,,,,,,num_4,0.8437689000274986,num_4,0.3,1.1,0.3,0.5,11.46165,19.10275,return,2.1463849999709055,,,,,,,,,,,,,,,,,904,26,female,left_right_width,2024-10-16_08h39.35.744,exp1,2023.1.0,60.017164900125174,
,,,,,,,,,,,,,,,,3,9.5,10,10.5,0,0,0.5,0.1,0.4,1.4000000000000001,10,initial,36.05,342,361,379,0,0,9,9,9,0,0,,,,,,,2,0,2,0,0,44,44,28,,,,,,,,,,,,num_2,0.741870200028643,num_2,0.35,1.4,0.35,0.6,13.37193,22.9233,return,2.727551699965261,,,,,,,,,,,,,,,,,904,26,female,left_right_width,2024-10-16_08h39.35.744,exp1,2023.1.0,60.017164900125174,
,,,,,,,,,,,,,,,,4,9.25,9.75,10.25,10.75,0,0.5,0.1,0.4,1.9000000000000001,10,initial,36.05,333,351,370,388,0,9,9,9,9,0,,,,,,,2,0,2,0,0,45,45,38,,,,,,,,,,,,num_3,0.7311279000714421,num_3,0.45,1,0.4,0.55,15.2822,21.01303,return,3.382862199912779,,,,,,,,,,,,,,,,,904,26,female,left_right_width,2024-10-16_08h39.35.744,exp1,2023.1.0,60.017164900125174,
,,,,,,,,,,,,,,,,4,9.25,9.75,10.25,10.75,0,0.5,0.1,0.4,1.9000000000000001,10,initial,36.05,333,351,370,388,0,9,9,9,9,0,,,,,,,2,0,2,0,0,46,46,11,,,,,,,,,,,,num_4,0.8992634000023827,num_4,0.2,0.9,0.3,0.5,11.46165,19.10275,return,2.9893957999302074,,,,,,,,,,,,,,,,,904,26,female,left_right_width,2024-10-16_08h39.35.744,exp1,2023.1.0,60.017164900125174,
,,,,,,,,,,,,,,,,3,9.5,10,10.5,0,0,0.5,0.1,0.4,1.4000000000000001,10,initial,36.05,342,361,379,0,0,9,9,9,0,0,,,,,,,2,0,2,0,0,47,47,29,,,,,,,,,,,,num_3,0.6801317998906597,num_3,0.4,1.3,0.4,0.6,15.2822,22.9233,return,4.084334000013769,,,,,,,,,,,,,,,,,904,26,female,left_right_width,2024-10-16_08h39.35.744,exp1,2023.1.0,60.017164900125174,
,,,,,,,,,,,,,,,,3,9.5,10,10.5,0,0,0.5,0.1,0.4,1.4000000000000001,10,initial,36.05,342,361,379,0,0,9,9,9,0,0,,,,,,,2,0,2,0,0,48,48,8,,,,,,,,,,,,num_3,0.7854534999933094,num_3,0.5,0.9,0.4,0.6,15.2822,22.9233,return,3.645342499949038,,,,,,,,,,,,,,,,,904,26,female,left_right_width,2024-10-16_08h39.35.744,exp1,2023.1.0,60.017164900125174,
,,,,,,,,,,,,,,,,5,9,9.5,10,10.5,11,0.5,0.1,0.4,2.4,10,initial,36.05,324,342,361,379,397,9,9,9,9,9,,,,,,,2,0,2,0,0,49,49,47,,,,,,,,,,,,num_5,1.0809940999606624,num_5,0.55,1.0,0.45,0.6,17.19248,22.9233,return,6.060393100022338,,,,,,,,,,,,,,,,,904,26,female,left_right_width,2024-10-16_08h39.35.744,exp1,2023.1.0,60.017164900125174,
,,,,,,,,,,,,,,,,5,9,9.5,10,10.5,11,0.5,0.1,0.4,2.4,10,initial,36.05,324,342,361,379,397,9,9,9,9,9,,,,,,,2,0,2,0,0,50,50,26,,,,,,,,,,,,num_4,0.8761062999255955,num_4,0.25,1.3,0.3,0.5,11.46165,19.10275,return,2.719413899932988,,,,,,,,,,,,,,,,,904,26,female,left_right_width,2024-10-16_08h39.35.744,exp1,2023.1.0,60.017164900125174,
,,,,,,,,,,,,,,,,4,9.25,9.75,10.25,10.75,0,0.5,0.1,0.4,1.9000000000000001,10,initial,36.05,333,351,370,388,0,9,9,9,9,0,,,,,,,2,0,2,0,0,51,51,37,,,,,,,,,,,,num_4,0.7797801999840885,num_4,0.5,0.7,0.4,0.6,15.2822,22.9233,return,3.1948285000398755,,,,,,,,,,,,,,,,,904,26,female,left_right_width,2024-10-16_08h39.35.744,exp1,2023.1.0,60.017164900125174,
,,,,,,,,,,,,,,,,5,9,9.5,10,10.5,11,0.5,0.1,0.4,2.4,10,initial,36.05,324,342,361,379,397,9,9,9,9,9,,,,,,,2,0,2,0,0,52,52,21,,,,,,,,,,,,num_4,1.2678995000896975,num_4,0.2,1.2,0.35,0.5,13.37193,19.10275,return,7.244276800076477,,,,,,,,,,,,,,,,,904,26,female,left_right_width,2024-10-16_08h39.35.744,exp1,2023.1.0,60.017164900125174,
,,,,,,,,,,,,,,,,5,9,9.5,10,10.5,11,0.5,0.1,0.4,2.4,10,initial,36.05,324,342,361,379,397,9,9,9,9,9,,,,,,,2,0,2,0,0,53,53,19,,,,,,,,,,,,num_5,1.1336554998997599,num_5,0.5,1.3,0.5,0.7,19.10275,26.74385,return,4.812609400018118,,,,,,,,,,,,,,,,,904,26,female,left_right_width,2024-10-16_08h39.35.744,exp1,2023.1.0,60.017164900125174,
,,,,,,,,,,,,,,,,,,,,,,,,,,,,,,,,,,,,,,,,,,,,,2,0,2,0,,,,,,,,,,,,,,,,,,,,,,,,,,,,,2029.13882439991,2029.13882439991,2029.13882439991,,,,,,,,,,,,904,26,female,left_right_width,2024-10-16_08h39.35.744,exp1,2023.1.0,60.017164900125174,
,,,,,,,,,,,,,,,,3,9.5,10,10.5,0,0,0.5,0.25,0.25,1.25,10,initial,36.05,342,361,379,0,0,9,9,9,0,0,,,,,,,3,0,3,0,0,0,0,28,,,,,,,,,,,,num_3,1.0374177999328822,num_3,0.3,0.9,0.3,0.6,11.46165,22.9233,return,3.4837341000093147,,,,,,,,,,,,,,,,,904,26,female,left_right_width,2024-10-16_08h39.35.744,exp1,2023.1.0,60.017164900125174,
,,,,,,,,,,,,,,,,4,9.25,9.75,10.25,10.75,0,0.5,0.25,0.25,1.75,10,initial,36.05,333,351,370,388,0,9,9,9,9,0,,,,,,,3,0,3,0,0,1,1,40,,,,,,,,,,,,num_4,0.9541280000703409,num_4,0.3,1.2,0.25,0.4,9.55138,15.2822,return,5.32301280007232,,,,,,,,,,,,,,,,,904,26,female,left_right_width,2024-10-16_08h39.35.744,exp1,2023.1.0,60.017164900125174,
,,,,,,,,,,,,,,,,5,9,9.5,10,10.5,11,0.5,0.25,0.25,2.25,10,initial,36.05,324,342,361,379,397,9,9,9,9,9,,,,,,,3,0,3,0,0,2,2,46,,,,,,,,,,,,num_4,0.8748970000306144,num_4,0.5,1.1,0.35000000000000003,0.6,13.37193,22.9233,return,3.6544863000744954,,,,,,,,,,,,,,,,,904,26,female,left_right_width,2024-10-16_08h39.35.744,exp1,2023.1.0,60.017164900125174,
,,,,,,,,,,,,,,,,4,9.25,9.75,10.25,10.75,0,0.5,0.25,0.25,1.75,10,initial,36.05,333,351,370,388,0,9,9,9,9,0,,,,,,,3,0,3,0,0,3,3,38,,,,,,,,,,,,num_4,0.7756804999662563,num_4,0.5,0.6,0.20000000000000007,0.5,7.6411,19.10275,return,3.9082866000244394,,,,,,,,,,,,,,,,,904,26,female,left_right_width,2024-10-16_08h39.35.744,exp1,2023.1.0,60.017164900125174,
,,,,,,,,,,,,,,,,3,9.5,10,10.5,0,0,0.5,0.25,0.25,1.25,10,initial,36.05,342,361,379,0,0,9,9,9,0,0,,,,,,,3,0,3,0,0,4,4,29,,,,,,,,,,,,num_2,0.7794960000319406,num_2,0.4,0.6,0.20000000000000007,0.5,7.6411,19.10275,return,3.035508699947968,,,,,,,,,,,,,,,,,904,26,female,left_right_width,2024-10-16_08h39.35.744,exp1,2023.1.0,60.017164900125174,
,,,,,,,,,,,,,,,,5,9,9.5,10,10.5,11,0.5,0.25,0.25,2.25,10,initial,36.05,324,342,361,379,397,9,9,9,9,9,,,,,,,3,0,3,0,0,5,5,26,,,,,,,,,,,,num_4,1.0242998999310657,num_4,0.3,0.4,0.15000000000000002,0.3,5.73083,11.46165,return,2.899726500036195,,,,,,,,,,,,,,,,,904,26,female,left_right_width,2024-10-16_08h39.35.744,exp1,2023.1.0,60.017164900125174,
,,,,,,,,,,,,,,,,3,9.5,10,10.5,0,0,0.5,0.25,0.25,1.25,10,initial,36.05,342,361,379,0,0,9,9,9,0,0,,,,,,,3,0,3,0,0,6,6,8,,,,,,,,,,,,num_3,0.8347257000859827,num_3,0.25,1.1,0.25,0.55,9.55138,21.01303,return,3.979238100000657,,,,,,,,,,,,,,,,,904,26,female,left_right_width,2024-10-16_08h39.35.744,exp1,2023.1.0,60.017164900125174,
,,,,,,,,,,,,,,,,4,9.25,9.75,10.25,10.75,0,0.5,0.25,0.25,1.75,10,initial,36.05,333,351,370,388,0,9,9,9,9,0,,,,,,,3,0,3,0,0,7,7,39,,,,,,,,,,,,num_4,0.7632121000206098,num_4,0.25,0.5,0.25,0.5,9.55138,19.10275,return,1.0139085999689996,,,,,,,,,,,,,,,,,904,26,female,left_right_width,2024-10-16_08h39.35.744,exp1,2023.1.0,60.017164900125174,
,,,,,,,,,,,,,,,,3,9.5,10,10.5,0,0,0.5,0.25,0.25,1.25,10,initial,36.05,342,361,379,0,0,9,9,9,0,0,,,,,,,3,0,3,0,0,8,8,0,,,,,,,,,,,,num_3,0.8601489999564365,num_3,0.25,0.4,0.25,0.4,9.55138,15.2822,return,1.336515499977395,,,,,,,,,,,,,,,,,904,26,female,left_right_width,2024-10-16_08h39.35.744,exp1,2023.1.0,60.017164900125174,
,,,,,,,,,,,,,,,,4,9.25,9.75,10.25,10.75,0,0.5,0.25,0.25,1.75,10,initial,36.05,333,351,370,388,0,9,9,9,9,0,,,,,,,3,0,3,0,0,9,9,16,,,,,,,,,,,,num_4,0.8433307999512181,num_4,0.45,0.7,0.30000000000000004,0.5,11.46165,19.10275,return,2.3265675000147894,,,,,,,,,,,,,,,,,904,26,female,left_right_width,2024-10-16_08h39.35.744,exp1,2023.1.0,60.017164900125174,
,,,,,,,,,,,,,,,,4,9.25,9.75,10.25,10.75,0,0.5,0.25,0.25,1.75,10,initial,36.05,333,351,370,388,0,9,9,9,9,0,,,,,,,3,0,3,0,0,10,10,43,,,,,,,,,,,,num_4,0.756083199987188,num_4,0.5,1.1,0.35000000000000003,0.6,13.37193,22.9233,return,3.8409488999750465,,,,,,,,,,,,,,,,,904,26,female,left_right_width,2024-10-16_08h39.35.744,exp1,2023.1.0,60.017164900125174,
,,,,,,,,,,,,,,,,5,9,9.5,10,10.5,11,0.5,0.25,0.25,2.25,10,initial,36.05,324,342,361,379,397,9,9,9,9,9,,,,,,,3,0,3,0,0,11,11,24,,,,,,,,,,,,num_4,0.7977967999177054,num_4,0.3,1.2,0.3,0.5,11.46165,19.10275,return,3.2196834000060335,,,,,,,,,,,,,,,,,904,26,female,left_right_width,2024-10-16_08h39.35.744,exp1,2023.1.0,60.017164900125174,
,,,,,,,,,,,,,,,,5,9,9.5,10,10.5,11,0.5,0.25,0.25,2.25,10,initial,36.05,324,342,361,379,397,9,9,9,9,9,,,,,,,3,0,3,0,0,12,12,18,,,,,,,,,,,,num_4,0.686596899991855,num_4,0.4,0.6,0.30000000000000004,0.5,11.46165,19.10275,return,1.9463211999973282,,,,,,,,,,,,,,,,,904,26,female,left_right_width,2024-10-16_08h39.35.744,exp1,2023.1.0,60.017164900125174,
,,,,,,,,,,,,,,,,3,9.5,10,10.5,0,0,0.5,0.25,0.25,1.25,10,initial,36.05,342,361,379,0,0,9,9,9,0,0,,,,,,,3,0,3,0,0,13,13,31,,,,,,,,,,,,num_3,0.9017803999595344,num_3,0.4,0.6,0.25000000000000006,0.55,9.55138,21.01303,return,2.6878735000500455,,,,,,,,,,,,,,,,,904,26,female,left_right_width,2024-10-16_08h39.35.744,exp1,2023.1.0,60.017164900125174,
,,,,,,,,,,,,,,,,4,9.25,9.75,10.25,10.75,0,0.5,0.25,0.25,1.75,10,initial,36.05,333,351,370,388,0,9,9,9,9,0,,,,,,,3,0,3,0,0,14,14,41,,,,,,,,,,,,num_3,1.0130834999727085,num_3,0.25,1.3,0.25,0.55,9.55138,21.01303,return,4.103885299991816,,,,,,,,,,,,,,,,,904,26,female,left_right_width,2024-10-16_08h39.35.744,exp1,2023.1.0,60.017164900125174,
,,,,,,,,,,,,,,,,4,9.25,9.75,10.25,10.75,0,0.5,0.25,0.25,1.75,10,initial,36.05,333,351,370,388,0,9,9,9,9,0,,,,,,,3,0,3,0,0,15,15,9,,,,,,,,,,,,num_4,0.7730709000024945,num_4,0.2,1.1,0.2,0.4,7.6411,15.2822,return,2.9142021000152454,,,,,,,,,,,,,,,,,904,26,female,left_right_width,2024-10-16_08h39.35.744,exp1,2023.1.0,60.017164900125174,
,,,,,,,,,,,,,,,,4,9.25,9.75,10.25,10.75,0,0.5,0.25,0.25,1.75,10,initial,36.05,333,351,370,388,0,9,9,9,9,0,,,,,,,3,0,3,0,0,16,16,10,,,,,,,,,,,,num_3,0.8730659999419004,num_3,0.2,0.5,0.2,0.5,7.6411,19.10275,return,0.9617399999406189,,,,,,,,,,,,,,,,,904,26,female,left_right_width,2024-10-16_08h39.35.744,exp1,2023.1.0,60.017164900125174,
,,,,,,,,,,,,,,,,5,9,9.5,10,10.5,11,0.5,0.25,0.25,2.25,10,initial,36.05,324,342,361,379,397,9,9,9,9,9,,,,,,,3,0,3,0,0,17,17,47,,,,,,,,,,,,num_4,0.7995616999687627,num_4,0.5,0.8,0.25000000000000006,0.5,9.55138,19.10275,return,4.494092000066303,,,,,,,,,,,,,,,,,904,26,female,left_right_width,2024-10-16_08h39.35.744,exp1,2023.1.0,60.017164900125174,
,,,,,,,,,,,,,,,,5,9,9.5,10,10.5,11,0.5,0.25,0.25,2.25,10,initial,36.05,324,342,361,379,397,9,9,9,9,9,,,,,,,3,0,3,0,0,18,18,45,,,,,,,,,,,,num_3,1.6945162999909371,num_3,0.4,1.2,0.25000000000000006,0.6,9.55138,22.9233,return,4.9647206999361515,,,,,,,,,,,,,,,,,904,26,female,left_right_width,2024-10-16_08h39.35.744,exp1,2023.1.0,60.017164900125174,
,,,,,,,,,,,,,,,,5,9,9.5,10,10.5,11,0.5,0.25,0.25,2.25,10,initial,36.05,324,342,361,379,397,9,9,9,9,9,,,,,,,3,0,3,0,0,19,19,22,,,,,,,,,,,,num_5,0.937760500004515,num_5,0.2,1.2,0.2,0.55,7.6411,21.01303,return,3.603194099967368,,,,,,,,,,,,,,,,,904,26,female,left_right_width,2024-10-16_08h39.35.744,exp1,2023.1.0,60.017164900125174,
,,,,,,,,,,,,,,,,4,9.25,9.75,10.25,10.75,0,0.5,0.25,0.25,1.75,10,initial,36.05,333,351,370,388,0,9,9,9,9,0,,,,,,,3,0,3,0,0,20,20,37,,,,,,,,,,,,num_4,0.7261012999806553,num_4,0.3,0.8,0.3,0.5,11.46165,19.10275,return,1.8901366000063717,,,,,,,,,,,,,,,,,904,26,female,left_right_width,2024-10-16_08h39.35.744,exp1,2023.1.0,60.017164900125174,
,,,,,,,,,,,,,,,,3,9.5,10,10.5,0,0,0.5,0.25,0.25,1.25,10,initial,36.05,342,361,379,0,0,9,9,9,0,0,,,,,,,3,0,3,0,0,21,21,6,,,,,,,,,,,,num_3,1.6470319000072777,num_3,0.2,0.9,0.25,0.45,9.55138,17.19248,return,3.291817900026217,,,,,,,,,,,,,,,,,904,26,female,left_right_width,2024-10-16_08h39.35.744,exp1,2023.1.0,60.017164900125174,
,,,,,,,,,,,,,,,,3,9.5,10,10.5,0,0,0.5,0.25,0.25,1.25,10,initial,36.05,342,361,379,0,0,9,9,9,0,0,,,,,,,3,0,3,0,0,22,22,34,,,,,,,,,,,,num_3,0.8339896999532357,num_3,0.35,0.5,0.3,0.5,11.46165,19.10275,return,2.0296708999667317,,,,,,,,,,,,,,,,,904,26,female,left_right_width,2024-10-16_08h39.35.744,exp1,2023.1.0,60.017164900125174,
,,,,,,,,,,,,,,,,5,9,9.5,10,10.5,11,0.5,0.25,0.25,2.25,10,initial,36.05,324,342,361,379,397,9,9,9,9,9,,,,,,,3,0,3,0,0,23,23,21,,,,,,,,,,,,num_4,0.7665518999565393,num_4,0.55,0.9,0.4,0.6,15.2822,22.9233,return,4.940824399935082,,,,,,,,,,,,,,,,,904,26,female,left_right_width,2024-10-16_08h39.35.744,exp1,2023.1.0,60.017164900125174,
,,,,,,,,,,,,,,,,4,9.25,9.75,10.25,10.75,0,0.5,0.25,0.25,1.75,10,initial,36.05,333,351,370,388,0,9,9,9,9,0,,,,,,,3,0,3,0,0,24,24,17,,,,,,,,,,,,num_4,0.7909067999571562,num_4,0.3,0.6,0.25,0.5,9.55138,19.10275,return,1.7789838999742642,,,,,,,,,,,,,,,,,904,26,female,left_right_width,2024-10-16_08h39.35.744,exp1,2023.1.0,60.017164900125174,
,,,,,,,,,,,,,,,,4,9.25,9.75,10.25,10.75,0,0.5,0.25,0.25,1.75,10,initial,36.05,333,351,370,388,0,9,9,9,9,0,,,,,,,3,0,3,0,0,25,25,44,,,,,,,,,,,,num_3,0.8543732999823987,num_3,0.3,1,0.25,0.55,9.55138,21.01303,return,3.4101847000420094,,,,,,,,,,,,,,,,,904,26,female,left_right_width,2024-10-16_08h39.35.744,exp1,2023.1.0,60.017164900125174,
,,,,,,,,,,,,,,,,5,9,9.5,10,10.5,11,0.5,0.25,0.25,2.25,10,initial,36.05,324,342,361,379,397,9,9,9,9,9,,,,,,,3,0,3,0,0,26,26,49,,,,,,,,,,,,num_4,0.7601008999627084,num_4,0.3,1.1,0.3,0.6,11.46165,22.9233,return,2.067203599959612,,,,,,,,,,,,,,,,,904,26,female,left_right_width,2024-10-16_08h39.35.744,exp1,2023.1.0,60.017164900125174,
,,,,,,,,,,,,,,,,4,9.25,9.75,10.25,10.75,0,0.5,0.25,0.25,1.75,10,initial,36.05,333,351,370,388,0,9,9,9,9,0,,,,,,,3,0,3,0,0,27,27,13,,,,,,,,,,,,num_4,1.086041699978523,num_4,0.5,0.6,0.25000000000000006,0.5,9.55138,19.10275,return,3.118756200070493,,,,,,,,,,,,,,,,,904,26,female,left_right_width,2024-10-16_08h39.35.744,exp1,2023.1.0,60.017164900125174,
,,,,,,,,,,,,,,,,4,9.25,9.75,10.25,10.75,0,0.5,0.25,0.25,1.75,10,initial,36.05,333,351,370,388,0,9,9,9,9,0,,,,,,,3,0,3,0,0,28,28,11,,,,,,,,,,,,num_4,0.8710031999507919,num_4,0.4,0.5,0.20000000000000007,0.4,7.6411,15.2822,return,2.3007681000744924,,,,,,,,,,,,,,,,,904,26,female,left_right_width,2024-10-16_08h39.35.744,exp1,2023.1.0,60.017164900125174,
,,,,,,,,,,,,,,,,3,9.5,10,10.5,0,0,0.5,0.25,0.25,1.25,10,initial,36.05,342,361,379,0,0,9,9,9,0,0,,,,,,,3,0,3,0,0,29,29,5,,,,,,,,,,,,num_3,0.751899299910292,num_3,0.3,0.8,0.3,0.65,11.46165,24.83358,return,2.129294599988498,,,,,,,,,,,,,,,,,904,26,female,left_right_width,2024-10-16_08h39.35.744,exp1,2023.1.0,60.017164900125174,
,,,,,,,,,,,,,,,,3,9.5,10,10.5,0,0,0.5,0.25,0.25,1.25,10,initial,36.05,342,361,379,0,0,9,9,9,0,0,,,,,,,3,0,3,0,0,30,30,7,,,,,,,,,,,,num_2,0.7659637000178918,num_2,0.3,1.6,0.25,0.6,9.55138,22.9233,return,4.135295999934897,,,,,,,,,,,,,,,,,904,26,female,left_right_width,2024-10-16_08h39.35.744,exp1,2023.1.0,60.017164900125174,
,,,,,,,,,,,,,,,,5,9,9.5,10,10.5,11,0.5,0.25,0.25,2.25,10,initial,36.05,324,342,361,379,397,9,9,9,9,9,,,,,,,3,0,3,0,0,31,31,20,,,,,,,,,,,,num_4,0.7843567000236362,num_4,0.5,0.6,0.35000000000000003,0.5,13.37193,19.10275,return,2.2977174000116065,,,,,,,,,,,,,,,,,904,26,female,left_right_width,2024-10-16_08h39.35.744,exp1,2023.1.0,60.017164900125174,
,,,,,,,,,,,,,,,,5,9,9.5,10,10.5,11,0.5,0.25,0.25,2.25,10,initial,36.05,324,342,361,379,397,9,9,9,9,9,,,,,,,3,0,3,0,0,32,32,52,,,,,,,,,,,,num_4,0.8244658999610692,num_4,0.5,0.8,0.35000000000000003,0.6,13.37193,22.9233,return,3.2376376000465825,,,,,,,,,,,,,,,,,904,26,female,left_right_width,2024-10-16_08h39.35.744,exp1,2023.1.0,60.017164900125174,
,,,,,,,,,,,,,,,,4,9.25,9.75,10.25,10.75,0,0.5,0.25,0.25,1.75,10,initial,36.05,333,351,370,388,0,9,9,9,9,0,,,,,,,3,0,3,0,0,33,33,36,,,,,,,,,,,,num_3,1.313331399927847,num_3,0.5,1.3,0.30000000000000004,0.55,11.46165,21.01303,return,5.657381600001827,,,,,,,,,,,,,,,,,904,26,female,left_right_width,2024-10-16_08h39.35.744,exp1,2023.1.0,60.017164900125174,
,,,,,,,,,,,,,,,,5,9,9.5,10,10.5,11,0.5,0.25,0.25,2.25,10,initial,36.05,324,342,361,379,397,9,9,9,9,9,,,,,,,3,0,3,0,0,34,34,23,,,,,,,,,,,,num_5,0.7683384999400005,num_5,0.25,0.4,0.3,0.45,11.46165,17.19248,return,3.917450699955225,,,,,,,,,,,,,,,,,904,26,female,left_right_width,2024-10-16_08h39.35.744,exp1,2023.1.0,60.017164900125174,
,,,,,,,,,,,,,,,,4,9.25,9.75,10.25,10.75,0,0.5,0.25,0.25,1.75,10,initial,36.05,333,351,370,388,0,9,9,9,9,0,,,,,,,3,0,3,0,0,35,35,14,,,,,,,,,,,,num_3,0.7975418999558315,num_3,0.35,1.3,0.35,0.55,13.37193,21.01303,return,4.004055599914864,,,,,,,,,,,,,,,,,904,26,female,left_right_width,2024-10-16_08h39.35.744,exp1,2023.1.0,60.017164900125174,
,,,,,,,,,,,,,,,,3,9.5,10,10.5,0,0,0.5,0.25,0.25,1.25,10,initial,36.05,342,361,379,0,0,9,9,9,0,0,,,,,,,3,0,3,0,0,36,36,1,,,,,,,,,,,,num_3,0.741637900006026,num_3,0.45,0.6,0.35000000000000003,0.55,13.37193,21.01303,return,2.243459500023164,,,,,,,,,,,,,,,,,904,26,female,left_right_width,2024-10-16_08h39.35.744,exp1,2023.1.0,60.017164900125174,
,,,,,,,,,,,,,,,,5,9,9.5,10,10.5,11,0.5,0.25,0.25,2.25,10,initial,36.05,324,342,361,379,397,9,9,9,9,9,,,,,,,3,0,3,0,0,37,37,51,,,,,,,,,,,,num_4,1.62599810003303,num_4,0.55,1.0,0.4,0.6,15.2822,22.9233,return,3.219459900050424,,,,,,,,,,,,,,,,,904,26,female,left_right_width,2024-10-16_08h39.35.744,exp1,2023.1.0,60.017164900125174,
,,,,,,,,,,,,,,,,5,9,9.5,10,10.5,11,0.5,0.25,0.25,2.25,10,initial,36.05,324,342,361,379,397,9,9,9,9,9,,,,,,,3,0,3,0,0,38,38,53,,,,,,,,,,,,num_5,0.7519264000002295,num_5,0.2,0.3,0.25,0.4,9.55138,15.2822,return,3.5679849999723956,,,,,,,,,,,,,,,,,904,26,female,left_right_width,2024-10-16_08h39.35.744,exp1,2023.1.0,60.017164900125174,
,,,,,,,,,,,,,,,,3,9.5,10,10.5,0,0,0.5,0.25,0.25,1.25,10,initial,36.05,342,361,379,0,0,9,9,9,0,0,,,,,,,3,0,3,0,0,39,39,2,,,,,,,,,,,,num_3,0.8474300000816584,num_3,0.5,0.8,0.25000000000000006,0.65,9.55138,24.83358,return,3.7679693000391126,,,,,,,,,,,,,,,,,904,26,female,left_right_width,2024-10-16_08h39.35.744,exp1,2023.1.0,60.017164900125174,
,,,,,,,,,,,,,,,,3,9.5,10,10.5,0,0,0.5,0.25,0.25,1.25,10,initial,36.05,342,361,379,0,0,9,9,9,0,0,,,,,,,3,0,3,0,0,40,40,35,,,,,,,,,,,,num_3,0.7022489999653772,num_3,0.5,0.6,0.30000000000000004,0.55,11.46165,21.01303,return,2.2516585999401286,,,,,,,,,,,,,,,,,904,26,female,left_right_width,2024-10-16_08h39.35.744,exp1,2023.1.0,60.017164900125174,
,,,,,,,,,,,,,,,,5,9,9.5,10,10.5,11,0.5,0.25,0.25,2.25,10,initial,36.05,324,342,361,379,397,9,9,9,9,9,,,,,,,3,0,3,0,0,41,41,25,,,,,,,,,,,,num_4,1.1285357000306249,num_4,0.3,0.3,0.2,0.4,7.6411,15.2822,return,3.891311899991706,,,,,,,,,,,,,,,,,904,26,female,left_right_width,2024-10-16_08h39.35.744,exp1,2023.1.0,60.017164900125174,
,,,,,,,,,,,,,,,,3,9.5,10,10.5,0,0,0.5,0.25,0.25,1.25,10,initial,36.05,342,361,379,0,0,9,9,9,0,0,,,,,,,3,0,3,0,0,42,42,32,,,,,,,,,,,,num_3,0.8975123000564054,num_3,0.25,0.3,0.2,0.35,7.6411,13.37193,return,3.494722899980843,,,,,,,,,,,,,,,,,904,26,female,left_right_width,2024-10-16_08h39.35.744,exp1,2023.1.0,60.017164900125174,
,,,,,,,,,,,,,,,,3,9.5,10,10.5,0,0,0.5,0.25,0.25,1.25,10,initial,36.05,342,361,379,0,0,9,9,9,0,0,,,,,,,3,0,3,0,0,43,43,4,,,,,,,,,,,,num_3,0.7463820000411943,num_3,0.45,0.9,0.25000000000000006,0.5,9.55138,19.10275,return,7.270897200098261,,,,,,,,,,,,,,,,,904,26,female,left_right_width,2024-10-16_08h39.35.744,exp1,2023.1.0,60.017164900125174,
,,,,,,,,,,,,,,,,5,9,9.5,10,10.5,11,0.5,0.25,0.25,2.25,10,initial,36.05,324,342,361,379,397,9,9,9,9,9,,,,,,,3,0,3,0,0,44,44,19,,,,,,,,,,,,num_5,0.8177380999550223,num_5,0.25,1.1,0.25,0.6,9.55138,22.9233,return,4.413215300068259,,,,,,,,,,,,,,,,,904,26,female,left_right_width,2024-10-16_08h39.35.744,exp1,2023.1.0,60.017164900125174,
,,,,,,,,,,,,,,,,3,9.5,10,10.5,0,0,0.5,0.25,0.25,1.25,10,initial,36.05,342,361,379,0,0,9,9,9,0,0,,,,,,,3,0,3,0,0,45,45,33,,,,,,,,,,,,num_3,1.0737411000300199,num_3,0.35,1.3,0.3,0.65,11.46165,24.83358,return,5.328569500008598,,,,,,,,,,,,,,,,,904,26,female,left_right_width,2024-10-16_08h39.35.744,exp1,2023.1.0,60.017164900125174,
,,,,,,,,,,,,,,,,3,9.5,10,10.5,0,0,0.5,0.25,0.25,1.25,10,initial,36.05,342,361,379,0,0,9,9,9,0,0,,,,,,,3,0,3,0,0,46,46,30,,,,,,,,,,,,num_2,0.8685198000166565,num_2,0.35,1.4,0.3,0.6,11.46165,22.9233,return,4.255407899967395,,,,,,,,,,,,,,,,,904,26,female,left_right_width,2024-10-16_08h39.35.744,exp1,2023.1.0,60.017164900125174,
,,,,,,,,,,,,,,,,3,9.5,10,10.5,0,0,0.5,0.25,0.25,1.25,10,initial,36.05,342,361,379,0,0,9,9,9,0,0,,,,,,,3,0,3,0,0,47,47,27,,,,,,,,,,,,num_2,0.7643739000195637,num_2,0.4,1.4,0.30000000000000004,0.5,11.46165,19.10275,return,3.639836800051853,,,,,,,,,,,,,,,,,904,26,female,left_right_width,2024-10-16_08h39.35.744,exp1,2023.1.0,60.017164900125174,
,,,,,,,,,,,,,,,,4,9.25,9.75,10.25,10.75,0,0.5,0.25,0.25,1.75,10,initial,36.05,333,351,370,388,0,9,9,9,9,0,,,,,,,3,0,3,0,0,48,48,12,,,,,,,,,,,,num_3,0.7644202000228688,num_3,0.55,1,0.35000000000000003,0.6,13.37193,22.9233,return,4.76426030008588,,,,,,,,,,,,,,,,,904,26,female,left_right_width,2024-10-16_08h39.35.744,exp1,2023.1.0,60.017164900125174,
,,,,,,,,,,,,,,,,4,9.25,9.75,10.25,10.75,0,0.5,0.25,0.25,1.75,10,initial,36.05,333,351,370,388,0,9,9,9,9,0,,,,,,,3,0,3,0,0,49,49,15,,,,,,,,,,,,num_3,0.9189518999774009,num_3,0.3,1.1,0.3,0.7,11.46165,26.74385,return,3.5379773000022396,,,,,,,,,,,,,,,,,904,26,female,left_right_width,2024-10-16_08h39.35.744,exp1,2023.1.0,60.017164900125174,
,,,,,,,,,,,,,,,,5,9,9.5,10,10.5,11,0.5,0.25,0.25,2.25,10,initial,36.05,324,342,361,379,397,9,9,9,9,9,,,,,,,3,0,3,0,0,50,50,48,,,,,,,,,,,,num_5,0.8778290000045672,num_5,0.25,0.4,0.3,0.55,11.46165,21.01303,return,5.156321199960075,,,,,,,,,,,,,,,,,904,26,female,left_right_width,2024-10-16_08h39.35.744,exp1,2023.1.0,60.017164900125174,
,,,,,,,,,,,,,,,,4,9.25,9.75,10.25,10.75,0,0.5,0.25,0.25,1.75,10,initial,36.05,333,351,370,388,0,9,9,9,9,0,,,,,,,3,0,3,0,0,51,51,42,,,,,,,,,,,,num_3,1.027777999988757,num_3,0.4,1.2,0.35000000000000003,0.75,13.37193,28.65413,return,4.372519999975339,,,,,,,,,,,,,,,,,904,26,female,left_right_width,2024-10-16_08h39.35.744,exp1,2023.1.0,60.017164900125174,
,,,,,,,,,,,,,,,,5,9,9.5,10,10.5,11,0.5,0.25,0.25,2.25,10,initial,36.05,324,342,361,379,397,9,9,9,9,9,,,,,,,3,0,3,0,0,52,52,50,,,,,,,,,,,,num_4,0.9574707000283524,num_4,0.45,1.2,0.4,0.6,15.2822,22.9233,return,3.158204899984412,,,,,,,,,,,,,,,,,904,26,female,left_right_width,2024-10-16_08h39.35.744,exp1,2023.1.0,60.017164900125174,
,,,,,,,,,,,,,,,,3,9.5,10,10.5,0,0,0.5,0.25,0.25,1.25,10,initial,36.05,342,361,379,0,0,9,9,9,0,0,,,,,,,3,0,3,0,0,53,53,3,,,,,,,,,,,,num_3,1.1154965000459924,num_3,0.45,0.5,0.30000000000000004,0.5,11.46165,19.10275,return,3.867558000027202,,,,,,,,,,,,,,,,,904,26,female,left_right_width,2024-10-16_08h39.35.744,exp1,2023.1.0,60.017164900125174,
,,,,,,,,,,,,,,,,,,,,,,,,,,,,,,,,,,,,,,,,,,,,,3,0,3,0,,,,,,,,,,,,,,,,,,,,,,,,,,,,,2410.2546683999244,2410.2546683999244,2410.2546683999244,,,,,,,,,,,,904,26,female,left_right_width,2024-10-16_08h39.35.744,exp1,2023.1.0,60.017164900125174,
,,,,,,,,,,,,,,,,4,8.65,9.55,10.45,11.35,0,0.9,0.35,0.55,3.25,10,initial,36.05,312,344,377,409,0,9,9,9,9,0,,,,,,,4,0,4,0,0,0,0,38,,,,,,,,,,,,num_4,1.3512570000020787,num_4,0.35,1.3,0.49999999999999994,0.9,19.10275,34.38495,return,4.512550399987958,,,,,,,,,,,,,,,,,904,26,female,left_right_width,2024-10-16_08h39.35.744,exp1,2023.1.0,60.017164900125174,
,,,,,,,,,,,,,,,,3,9.1,10,10.9,0,0,0.9,0.35,0.55,2.35,10,initial,36.05,328,361,393,0,0,9,9,9,0,0,,,,,,,4,0,4,0,0,1,1,33,,,,,,,,,,,,num_3,0.7778421998955309,num_3,0.2,0.8,0.39999999999999997,0.7,15.2822,26.74385,return,3.8765995000721887,,,,,,,,,,,,,,,,,904,26,female,left_right_width,2024-10-16_08h39.35.744,exp1,2023.1.0,60.017164900125174,
,,,,,,,,,,,,,,,,4,8.65,9.55,10.45,11.35,0,0.9,0.35,0.55,3.25,10,initial,36.05,312,344,377,409,0,9,9,9,9,0,,,,,,,4,0,4,0,0,2,2,13,,,,,,,,,,,,num_3,0.7788996000308543,num_3,0.45,1.1,0.5,0.9,19.10275,34.38495,return,3.6537463000277057,,,,,,,,,,,,,,,,,904,26,female,left_right_width,2024-10-16_08h39.35.744,exp1,2023.1.0,60.017164900125174,
,,,,,,,,,,,,,,,,4,8.65,9.55,10.45,11.35,0,0.9,0.35,0.55,3.25,10,initial,36.05,312,344,377,409,0,9,9,9,9,0,,,,,,,4,0,4,0,0,3,3,9,,,,,,,,,,,,num_4,0.8159790999488905,num_4,0.45,1.3,0.5,0.9,19.10275,34.38495,return,3.5586121999658644,,,,,,,,,,,,,,,,,904,26,female,left_right_width,2024-10-16_08h39.35.744,exp1,2023.1.0,60.017164900125174,
,,,,,,,,,,,,,,,,4,8.65,9.55,10.45,11.35,0,0.9,0.35,0.55,3.25,10,initial,36.05,312,344,377,409,0,9,9,9,9,0,,,,,,,4,0,4,0,0,4,4,37,,,,,,,,,,,,num_4,1.0270374999381602,num_4,0.35,1.2,0.44999999999999996,0.7,17.19248,26.74385,return,3.752005700021982,,,,,,,,,,,,,,,,,904,26,female,left_right_width,2024-10-16_08h39.35.744,exp1,2023.1.0,60.017164900125174,
,,,,,,,,,,,,,,,,4,8.65,9.55,10.45,11.35,0,0.9,0.35,0.55,3.25,10,initial,36.05,312,344,377,409,0,9,9,9,9,0,,,,,,,4,0,4,0,0,5,5,12,,,,,,,,,,,,num_4,0.8036292000906542,num_4,0.3,1.1,0.5499999999999999,0.9,21.01303,34.38495,return,3.712723199976608,,,,,,,,,,,,,,,,,904,26,female,left_right_width,2024-10-16_08h39.35.744,exp1,2023.1.0,60.017164900125174,
,,,,,,,,,,,,,,,,3,9.1,10,10.9,0,0,0.9,0.35,0.55,2.35,10,initial,36.05,328,361,393,0,0,9,9,9,0,0,,,,,,,4,0,4,0,0,6,6,8,,,,,,,,,,,,num_3,0.7729188000084832,num_3,0.55,0.9,0.55,0.9,21.01303,34.38495,return,0.8159115000162274,,,,,,,,,,,,,,,,,904,26,female,left_right_width,2024-10-16_08h39.35.744,exp1,2023.1.0,60.017164900125174,
,,,,,,,,,,,,,,,,4,8.65,9.55,10.45,11.35,0,0.9,0.35,0.55,3.25,10,initial,36.05,312,344,377,409,0,9,9,9,9,0,,,,,,,4,0,4,0,0,7,7,11,,,,,,,,,,,,num_3,0.6965822000056505,num_3,0.55,0.7,0.5,0.7,19.10275,26.74385,return,2.8908277000300586,,,,,,,,,,,,,,,,,904,26,female,left_right_width,2024-10-16_08h39.35.744,exp1,2023.1.0,60.017164900125174,
,,,,,,,,,,,,,,,,4,8.65,9.55,10.45,11.35,0,0.9,0.35,0.55,3.25,10,initial,36.05,312,344,377,409,0,9,9,9,9,0,,,,,,,4,0,4,0,0,8,8,15,,,,,,,,,,,,num_3,0.6823753999779001,num_3,0.5,0.7,0.55,0.9,21.01303,34.38495,return,3.7204333000117913,,,,,,,,,,,,,,,,,904,26,female,left_right_width,2024-10-16_08h39.35.744,exp1,2023.1.0,60.017164900125174,
,,,,,,,,,,,,,,,,3,9.1,10,10.9,0,0,0.9,0.35,0.55,2.35,10,initial,36.05,328,361,393,0,0,9,9,9,0,0,,,,,,,4,0,4,0,0,9,9,3,,,,,,,,,,,,num_3,0.7010794999077916,num_3,0.2,0.5,0.44999999999999996,0.7,17.19248,26.74385,return,4.3144626000430435,,,,,,,,,,,,,,,,,904,26,female,left_right_width,2024-10-16_08h39.35.744,exp1,2023.1.0,60.017164900125174,
,,,,,,,,,,,,,,,,4,8.65,9.55,10.45,11.35,0,0.9,0.35,0.55,3.25,10,initial,36.05,312,344,377,409,0,9,9,9,9,0,,,,,,,4,0,4,0,0,10,10,10,,,,,,,,,,,,num_4,0.8964956999989226,num_4,0.2,0.9,0.5499999999999999,0.8,21.01303,30.5644,return,3.4122148000169545,,,,,,,,,,,,,,,,,904,26,female,left_right_width,2024-10-16_08h39.35.744,exp1,2023.1.0,60.017164900125174,
,,,,,,,,,,,,,,,,3,9.1,10,10.9,0,0,0.9,0.35,0.55,2.35,10,initial,36.05,328,361,393,0,0,9,9,9,0,0,,,,,,,4,0,4,0,0,11,11,32,,,,,,,,,,,,num_3,0.6939340999815613,num_3,0.5,0.6,0.45,0.75,17.19248,28.65413,return,3.7652261999901384,,,,,,,,,,,,,,,,,904,26,female,left_right_width,2024-10-16_08h39.35.744,exp1,2023.1.0,60.017164900125174,
,,,,,,,,,,,,,,,,3,9.1,10,10.9,0,0,0.9,0.35,0.55,2.35,10,initial,36.05,328,361,393,0,0,9,9,9,0,0,,,,,,,4,0,4,0,0,12,12,35,,,,,,,,,,,,num_3,0.6783131000120193,num_3,0.2,1.2,0.5499999999999999,0.9,21.01303,34.38495,return,4.627276299986988,,,,,,,,,,,,,,,,,904,26,female,left_right_width,2024-10-16_08h39.35.744,exp1,2023.1.0,60.017164900125174,
,,,,,,,,,,,,,,,,3,9.1,10,10.9,0,0,0.9,0.35,0.55,2.35,10,initial,36.05,328,361,393,0,0,9,9,9,0,0,,,,,,,4,0,4,0,0,13,13,27,,,,,,,,,,,,num_3,1.1464370000176132,num_3,0.4,0.8,0.5,0.8,19.10275,30.5644,return,1.7686181000899523,,,,,,,,,,,,,,,,,904,26,female,left_right_width,2024-10-16_08h39.35.744,exp1,2023.1.0,60.017164900125174,
,,,,,,,,,,,,,,,,3,9.1,10,10.9,0,0,0.9,0.35,0.55,2.35,10,initial,36.05,328,361,393,0,0,9,9,9,0,0,,,,,,,4,0,4,0,0,14,14,1,,,,,,,,,,,,num_3,0.8916623000986874,num_3,0.35,1,0.6,0.95,22.9233,36.29523,return,3.8575420998968184,,,,,,,,,,,,,,,,,904,26,female,left_right_width,2024-10-16_08h39.35.744,exp1,2023.1.0,60.017164900125174,
,,,,,,,,,,,,,,,,3,9.1,10,10.9,0,0,0.9,0.35,0.55,2.35,10,initial,36.05,328,361,393,0,0,9,9,9,0,0,,,,,,,4,0,4,0,0,15,15,34,,,,,,,,,,,,num_3,0.8791176000377163,num_3,0.35,1.3,0.44999999999999996,0.7,17.19248,26.74385,return,4.122451000032015,,,,,,,,,,,,,,,,,904,26,female,left_right_width,2024-10-16_08h39.35.744,exp1,2023.1.0,60.017164900125174,
,,,,,,,,,,,,,,,,5,8.2,9.1,10,10.9,11.8,0.9,0.35,0.55,4.15,10,initial,36.05,296,328,361,393,425,9,9,9,9,9,,,,,,,4,0,4,0,0,16,16,51,,,,,,,,,,,,num_4,0.8311018999665976,num_4,0.3,0.8,0.6,0.8,22.9233,30.5644,return,2.5692062999587506,,,,,,,,,,,,,,,,,904,26,female,left_right_width,2024-10-16_08h39.35.744,exp1,2023.1.0,60.017164900125174,
,,,,,,,,,,,,,,,,4,8.65,9.55,10.45,11.35,0,0.9,0.35,0.55,3.25,10,initial,36.05,312,344,377,409,0,9,9,9,9,0,,,,,,,4,0,4,0,0,17,17,39,,,,,,,,,,,,num_3,0.9591179999988526,num_3,0.3,0.8,0.6,0.8,22.9233,30.5644,return,2.3559818000067025,,,,,,,,,,,,,,,,,904,26,female,left_right_width,2024-10-16_08h39.35.744,exp1,2023.1.0,60.017164900125174,
,,,,,,,,,,,,,,,,3,9.1,10,10.9,0,0,0.9,0.35,0.55,2.35,10,initial,36.05,328,361,393,0,0,9,9,9,0,0,,,,,,,4,0,4,0,0,18,18,28,,,,,,,,,,,,num_3,0.7140419000061229,num_3,0.2,1.2,0.5499999999999999,0.85,21.01303,32.47468,return,3.6742119999835268,,,,,,,,,,,,,,,,,904,26,female,left_right_width,2024-10-16_08h39.35.744,exp1,2023.1.0,60.017164900125174,
,,,,,,,,,,,,,,,,5,8.2,9.1,10,10.9,11.8,0.9,0.35,0.55,4.15,10,initial,36.05,296,328,361,393,425,9,9,9,9,9,,,,,,,4,0,4,0,0,19,19,26,,,,,,,,,,,,num_4,0.7590970000019297,num_4,0.2,0.7,0.44999999999999996,0.8,17.19248,30.5644,return,4.933377199922688,,,,,,,,,,,,,,,,,904,26,female,left_right_width,2024-10-16_08h39.35.744,exp1,2023.1.0,60.017164900125174,
,,,,,,,,,,,,,,,,3,9.1,10,10.9,0,0,0.9,0.35,0.55,2.35,10,initial,36.05,328,361,393,0,0,9,9,9,0,0,,,,,,,4,0,4,0,0,20,20,2,,,,,,,,,,,,num_3,0.7801948999986053,num_3,0.25,1.2,0.65,0.95,24.83358,36.29523,return,5.466924499953166,,,,,,,,,,,,,,,,,904,26,female,left_right_width,2024-10-16_08h39.35.744,exp1,2023.1.0,60.017164900125174,
,,,,,,,,,,,,,,,,4,8.65,9.55,10.45,11.35,0,0.9,0.35,0.55,3.25,10,initial,36.05,312,344,377,409,0,9,9,9,9,0,,,,,,,4,0,4,0,0,21,21,14,,,,,,,,,,,,num_3,0.8211797000840306,num_3,0.2,0.7,0.5499999999999999,0.7,21.01303,26.74385,return,2.5470733999973163,,,,,,,,,,,,,,,,,904,26,female,left_right_width,2024-10-16_08h39.35.744,exp1,2023.1.0,60.017164900125174,
,,,,,,,,,,,,,,,,4,8.65,9.55,10.45,11.35,0,0.9,0.35,0.55,3.25,10,initial,36.05,312,344,377,409,0,9,9,9,9,0,,,,,,,4,0,4,0,0,22,22,41,,,,,,,,,,,,num_4,0.9116011000005528,num_4,0.45,0.6,0.55,0.7,21.01303,26.74385,return,4.042161299963482,,,,,,,,,,,,,,,,,904,26,female,left_right_width,2024-10-16_08h39.35.744,exp1,2023.1.0,60.017164900125174,
,,,,,,,,,,,,,,,,4,8.65,9.55,10.45,11.35,0,0.9,0.35,0.55,3.25,10,initial,36.05,312,344,377,409,0,9,9,9,9,0,,,,,,,4,0,4,0,0,23,23,43,,,,,,,,,,,,num_4,1.0904906999785453,num_4,0.3,1.0,0.39999999999999997,0.6,15.2822,22.9233,return,3.599698600010015,,,,,,,,,,,,,,,,,904,26,female,left_right_width,2024-10-16_08h39.35.744,exp1,2023.1.0,60.017164900125174,
,,,,,,,,,,,,,,,,5,8.2,9.1,10,10.9,11.8,0.9,0.35,0.55,4.15,10,initial,36.05,296,328,361,393,425,9,9,9,9,9,,,,,,,4,0,4,0,0,24,24,47,,,,,,,,,,,,num_4,0.8384194999234751,num_4,0.35,0.8,0.5499999999999999,0.8,21.01303,30.5644,return,1.5988557999953628,,,,,,,,,,,,,,,,,904,26,female,left_right_width,2024-10-16_08h39.35.744,exp1,2023.1.0,60.017164900125174,
,,,,,,,,,,,,,,,,3,9.1,10,10.9,0,0,0.9,0.35,0.55,2.35,10,initial,36.05,328,361,393,0,0,9,9,9,0,0,,,,,,,4,0,4,0,0,25,25,30,,,,,,,,,,,,num_3,0.758827600046061,num_3,0.55,0.8,0.5,0.75,19.10275,28.65413,return,2.726326199946925,,,,,,,,,,,,,,,,,904,26,female,left_right_width,2024-10-16_08h39.35.744,exp1,2023.1.0,60.017164900125174,
,,,,,,,,,,,,,,,,5,8.2,9.1,10,10.9,11.8,0.9,0.35,0.55,4.15,10,initial,36.05,296,328,361,393,425,9,9,9,9,9,,,,,,,4,0,4,0,0,26,26,24,,,,,,,,,,,,num_4,0.9996597000863403,num_4,0.2,0.9,0.49999999999999994,0.7,19.10275,26.74385,return,2.840078900102526,,,,,,,,,,,,,,,,,904,26,female,left_right_width,2024-10-16_08h39.35.744,exp1,2023.1.0,60.017164900125174,
,,,,,,,,,,,,,,,,5,8.2,9.1,10,10.9,11.8,0.9,0.35,0.55,4.15,10,initial,36.05,296,328,361,393,425,9,9,9,9,9,,,,,,,4,0,4,0,0,27,27,45,,,,,,,,,,,,num_5,0.7617316000396386,num_5,0.25,0.4,0.39999999999999997,0.6,15.2822,22.9233,return,4.6512902999529615,,,,,,,,,,,,,,,,,904,26,female,left_right_width,2024-10-16_08h39.35.744,exp1,2023.1.0,60.017164900125174,
,,,,,,,,,,,,,,,,4,8.65,9.55,10.45,11.35,0,0.9,0.35,0.55,3.25,10,initial,36.05,312,344,377,409,0,9,9,9,9,0,,,,,,,4,0,4,0,0,28,28,40,,,,,,,,,,,,num_4,1.1228586999932304,num_4,0.55,1.2,0.4,0.7,15.2822,26.74385,return,3.24570109997876,,,,,,,,,,,,,,,,,904,26,female,left_right_width,2024-10-16_08h39.35.744,exp1,2023.1.0,60.017164900125174,
,,,,,,,,,,,,,,,,5,8.2,9.1,10,10.9,11.8,0.9,0.35,0.55,4.15,10,initial,36.05,296,328,361,393,425,9,9,9,9,9,,,,,,,4,0,4,0,0,29,29,49,,,,,,,,,,,,num_5,0.8349175999173895,num_5,0.55,1.2,0.5,0.85,19.10275,32.47468,return,3.409555000020191,,,,,,,,,,,,,,,,,904,26,female,left_right_width,2024-10-16_08h39.35.744,exp1,2023.1.0,60.017164900125174,
,,,,,,,,,,,,,,,,5,8.2,9.1,10,10.9,11.8,0.9,0.35,0.55,4.15,10,initial,36.05,296,328,361,393,425,9,9,9,9,9,,,,,,,4,0,4,0,0,30,30,48,,,,,,,,,,,,num_4,0.9123117999406531,num_4,0.2,1.3,0.3,0.6,11.46165,22.9233,return,3.5429157000035048,,,,,,,,,,,,,,,,,904,26,female,left_right_width,2024-10-16_08h39.35.744,exp1,2023.1.0,60.017164900125174,
,,,,,,,,,,,,,,,,5,8.2,9.1,10,10.9,11.8,0.9,0.35,0.55,4.15,10,initial,36.05,296,328,361,393,425,9,9,9,9,9,,,,,,,4,0,4,0,0,31,31,50,,,,,,,,,,,,num_5,0.9426574000390247,num_5,0.2,0.6,0.44999999999999996,0.75,17.19248,28.65413,return,5.009559699916281,,,,,,,,,,,,,,,,,904,26,female,left_right_width,2024-10-16_08h39.35.744,exp1,2023.1.0,60.017164900125174,
,,,,,,,,,,,,,,,,3,9.1,10,10.9,0,0,0.9,0.35,0.55,2.35,10,initial,36.05,328,361,393,0,0,9,9,9,0,0,,,,,,,4,0,4,0,0,32,32,0,,,,,,,,,,,,num_2,0.7328828000463545,num_2,0.25,0.4,0.44999999999999996,0.8,17.19248,30.5644,return,3.4316754000028595,,,,,,,,,,,,,,,,,904,26,female,left_right_width,2024-10-16_08h39.35.744,exp1,2023.1.0,60.017164900125174,
,,,,,,,,,,,,,,,,4,8.65,9.55,10.45,11.35,0,0.9,0.35,0.55,3.25,10,initial,36.05,312,344,377,409,0,9,9,9,9,0,,,,,,,4,0,4,0,0,33,33,44,,,,,,,,,,,,num_4,0.766401799977757,num_4,0.3,0.6,0.44999999999999996,0.7,17.19248,26.74385,return,4.127257300075144,,,,,,,,,,,,,,,,,904,26,female,left_right_width,2024-10-16_08h39.35.744,exp1,2023.1.0,60.017164900125174,
,,,,,,,,,,,,,,,,5,8.2,9.1,10,10.9,11.8,0.9,0.35,0.55,4.15,10,initial,36.05,296,328,361,393,425,9,9,9,9,9,,,,,,,4,0,4,0,0,34,34,46,,,,,,,,,,,,num_4,0.6954797999933362,num_4,0.35,1.3,0.49999999999999994,0.8,19.10275,30.5644,return,3.3836352999787778,,,,,,,,,,,,,,,,,904,26,female,left_right_width,2024-10-16_08h39.35.744,exp1,2023.1.0,60.017164900125174,
,,,,,,,,,,,,,,,,3,9.1,10,10.9,0,0,0.9,0.35,0.55,2.35,10,initial,36.05,328,361,393,0,0,9,9,9,0,0,,,,,,,4,0,4,0,0,35,35,29,,,,,,,,,,,,num_3,0.7104298000922427,num_3,0.55,0.6,0.45,0.65,17.19248,24.83358,return,4.357746600056998,,,,,,,,,,,,,,,,,904,26,female,left_right_width,2024-10-16_08h39.35.744,exp1,2023.1.0,60.017164900125174,
,,,,,,,,,,,,,,,,5,8.2,9.1,10,10.9,11.8,0.9,0.35,0.55,4.15,10,initial,36.05,296,328,361,393,425,9,9,9,9,9,,,,,,,4,0,4,0,0,36,36,21,,,,,,,,,,,,num_4,0.7174247999209911,num_4,0.4,0.7,0.5,0.7,19.10275,26.74385,return,2.0764926000265405,,,,,,,,,,,,,,,,,904,26,female,left_right_width,2024-10-16_08h39.35.744,exp1,2023.1.0,60.017164900125174,
,,,,,,,,,,,,,,,,5,8.2,9.1,10,10.9,11.8,0.9,0.35,0.55,4.15,10,initial,36.05,296,328,361,393,425,9,9,9,9,9,,,,,,,4,0,4,0,0,37,37,53,,,,,,,,,,,,num_4,0.7416331999702379,num_4,0.2,1.3,0.44999999999999996,0.8,17.19248,30.5644,return,4.293750499957241,,,,,,,,,,,,,,,,,904,26,female,left_right_width,2024-10-16_08h39.35.744,exp1,2023.1.0,60.017164900125174,
,,,,,,,,,,,,,,,,5,8.2,9.1,10,10.9,11.8,0.9,0.35,0.55,4.15,10,initial,36.05,296,328,361,393,425,9,9,9,9,9,,,,,,,4,0,4,0,0,38,38,22,,,,,,,,,,,,num_5,0.8339922999730334,num_5,0.3,0.6,0.49999999999999994,0.65,19.10275,24.83358,return,2.9405953000532463,,,,,,,,,,,,,,,,,904,26,female,left_right_width,2024-10-16_08h39.35.744,exp1,2023.1.0,60.017164900125174,
,,,,,,,,,,,,,,,,5,8.2,9.1,10,10.9,11.8,0.9,0.35,0.55,4.15,10,initial,36.05,296,328,361,393,425,9,9,9,9,9,,,,,,,4,0,4,0,0,39,39,18,,,,,,,,,,,,num_4,0.7106889999704435,num_4,0.2,0.8,0.44999999999999996,0.6,17.19248,22.9233,return,3.5932545999530703,,,,,,,,,,,,,,,,,904,26,female,left_right_width,2024-10-16_08h39.35.744,exp1,2023.1.0,60.017164900125174,
,,,,,,,,,,,,,,,,4,8.65,9.55,10.45,11.35,0,0.9,0.35,0.55,3.25,10,initial,36.05,312,344,377,409,0,9,9,9,9,0,,,,,,,4,0,4,0,0,40,40,17,,,,,,,,,,,,num_3,0.8328998999204487,num_3,0.25,0.8,0.44999999999999996,0.8,17.19248,30.5644,return,2.365665200049989,,,,,,,,,,,,,,,,,904,26,female,left_right_width,2024-10-16_08h39.35.744,exp1,2023.1.0,60.017164900125174,
,,,,,,,,,,,,,,,,3,9.1,10,10.9,0,0,0.9,0.35,0.55,2.35,10,initial,36.05,328,361,393,0,0,9,9,9,0,0,,,,,,,4,0,4,0,0,41,41,6,,,,,,,,,,,,num_3,6.482235000003129,num_3,0.35,0.4,0.39999999999999997,0.65,15.2822,24.83358,return,3.6476494000526145,,,,,,,,,,,,,,,,,904,26,female,left_right_width,2024-10-16_08h39.35.744,exp1,2023.1.0,60.017164900125174,
,,,,,,,,,,,,,,,,5,8.2,9.1,10,10.9,11.8,0.9,0.35,0.55,4.15,10,initial,36.05,296,328,361,393,425,9,9,9,9,9,,,,,,,4,0,4,0,0,42,42,19,,,,,,,,,,,,num_4,1.0349586999509484,num_4,0.35,1.0,0.5499999999999999,0.9,21.01303,34.38495,return,3.023361900006421,,,,,,,,,,,,,,,,,904,26,female,left_right_width,2024-10-16_08h39.35.744,exp1,2023.1.0,60.017164900125174,
,,,,,,,,,,,,,,,,5,8.2,9.1,10,10.9,11.8,0.9,0.35,0.55,4.15,10,initial,36.05,296,328,361,393,425,9,9,9,9,9,,,,,,,4,0,4,0,0,43,43,52,,,,,,,,,,,,num_5,0.7017510998994112,num_5,0.3,0.7,0.44999999999999996,0.7,17.19248,26.74385,return,2.656620900030248,,,,,,,,,,,,,,,,,904,26,female,left_right_width,2024-10-16_08h39.35.744,exp1,2023.1.0,60.017164900125174,
,,,,,,,,,,,,,,,,3,9.1,10,10.9,0,0,0.9,0.35,0.55,2.35,10,initial,36.05,328,361,393,0,0,9,9,9,0,0,,,,,,,4,0,4,0,0,44,44,31,,,,,,,,,,,,num_3,1.079055599984713,num_3,0.5,0.8,0.5,0.8,19.10275,30.5644,return,1.8429907000390813,,,,,,,,,,,,,,,,,904,26,female,left_right_width,2024-10-16_08h39.35.744,exp1,2023.1.0,60.017164900125174,
,,,,,,,,,,,,,,,,4,8.65,9.55,10.45,11.35,0,0.9,0.35,0.55,3.25,10,initial,36.05,312,344,377,409,0,9,9,9,9,0,,,,,,,4,0,4,0,0,45,45,36,,,,,,,,,,,,num_4,0.7291288999840617,num_4,0.55,0.9,0.55,0.9,21.01303,34.38495,return,0.7720801000250503,,,,,,,,,,,,,,,,,904,26,female,left_right_width,2024-10-16_08h39.35.744,exp1,2023.1.0,60.017164900125174,
,,,,,,,,,,,,,,,,5,8.2,9.1,10,10.9,11.8,0.9,0.35,0.55,4.15,10,initial,36.05,296,328,361,393,425,9,9,9,9,9,,,,,,,4,0,4,0,0,46,46,23,,,,,,,,,,,,num_5,0.6804162000771612,num_5,0.2,0.3,0.35,0.55,13.37193,21.01303,return,4.684938499936834,,,,,,,,,,,,,,,,,904,26,female,left_right_width,2024-10-16_08h39.35.744,exp1,2023.1.0,60.017164900125174,
,,,,,,,,,,,,,,,,3,9.1,10,10.9,0,0,0.9,0.35,0.55,2.35,10,initial,36.05,328,361,393,0,0,9,9,9,0,0,,,,,,,4,0,4,0,0,47,47,4,,,,,,,,,,,,num_3,0.8145187000045553,num_3,0.25,0.3,0.6,0.8,22.9233,30.5644,return,10.713019200018607,,,,,,,,,,,,,,,,,904,26,female,left_right_width,2024-10-16_08h39.35.744,exp1,2023.1.0,60.017164900125174,
,,,,,,,,,,,,,,,,5,8.2,9.1,10,10.9,11.8,0.9,0.35,0.55,4.15,10,initial,36.05,296,328,361,393,425,9,9,9,9,9,,,,,,,4,0,4,0,0,48,48,20,,,,,,,,,,,,num_4,0.7280258000828326,num_4,0.4,0.6,0.5,0.7,19.10275,26.74385,return,4.483137400005944,,,,,,,,,,,,,,,,,904,26,female,left_right_width,2024-10-16_08h39.35.744,exp1,2023.1.0,60.017164900125174,
,,,,,,,,,,,,,,,,4,8.65,9.55,10.45,11.35,0,0.9,0.35,0.55,3.25,10,initial,36.05,312,344,377,409,0,9,9,9,9,0,,,,,,,4,0,4,0,0,49,49,42,,,,,,,,,,,,num_4,0.7189829000271857,num_4,0.45,1.2,0.45,0.7,17.19248,26.74385,return,2.6258106000022963,,,,,,,,,,,,,,,,,904,26,female,left_right_width,2024-10-16_08h39.35.744,exp1,2023.1.0,60.017164900125174,
,,,,,,,,,,,,,,,,3,9.1,10,10.9,0,0,0.9,0.35,0.55,2.35,10,initial,36.05,328,361,393,0,0,9,9,9,0,0,,,,,,,4,0,4,0,0,50,50,7,,,,,,,,,,,,num_3,0.8279990999726579,num_3,0.2,0.6,0.44999999999999996,0.6,17.19248,22.9233,return,2.134923599893227,,,,,,,,,,,,,,,,,904,26,female,left_right_width,2024-10-16_08h39.35.744,exp1,2023.1.0,60.017164900125174,
,,,,,,,,,,,,,,,,4,8.65,9.55,10.45,11.35,0,0.9,0.35,0.55,3.25,10,initial,36.05,312,344,377,409,0,9,9,9,9,0,,,,,,,4,0,4,0,0,51,51,16,,,,,,,,,,,,num_3,0.955048399977386,num_3,0.5,1.3,0.5,0.75,19.10275,28.65413,return,4.814701299997978,,,,,,,,,,,,,,,,,904,26,female,left_right_width,2024-10-16_08h39.35.744,exp1,2023.1.0,60.017164900125174,
,,,,,,,,,,,,,,,,3,9.1,10,10.9,0,0,0.9,0.35,0.55,2.35,10,initial,36.05,328,361,393,0,0,9,9,9,0,0,,,,,,,4,0,4,0,0,52,52,5,,,,,,,,,,,,num_3,1.5243031999561936,num_3,0.5,0.8,0.5,0.8,19.10275,30.5644,return,1.7491469000233337,,,,,,,,,,,,,,,,,904,26,female,left_right_width,2024-10-16_08h39.35.744,exp1,2023.1.0,60.017164900125174,
,,,,,,,,,,,,,,,,5,8.2,9.1,10,10.9,11.8,0.9,0.35,0.55,4.15,10,initial,36.05,296,328,361,393,425,9,9,9,9,9,,,,,,,4,0,4,0,0,53,53,25,,,,,,,,,,,,num_5,1.208269500057213,num_5,0.4,0.7,0.45,0.7,17.19248,26.74385,return,1.5519447999540716,,,,,,,,,,,,,,,,,904,26,female,left_right_width,2024-10-16_08h39.35.744,exp1,2023.1.0,60.017164900125174,
,,,,,,,,,,,,,,,,,,,,,,,,,,,,,,,,,,,,,,,,,,,,,4,0,4,0,,,,,,,,,,,,,,,,,,,,,,,,,,,,,2761.704074399895,2761.704074399895,2761.704074399895,,,,,,,,,,,,904,26,female,left_right_width,2024-10-16_08h39.35.744,exp1,2023.1.0,60.017164900125174,
,,,,,,,,,,,,,,,,3,9.5,10,10.5,0,0,0.5,0.25,0.25,1.25,10,initial,36.05,342,361,379,0,0,9,9,9,0,0,,,,,,,5,0,5,0,0,0,0,2,,,,,,,,,,,,num_3,0.8380001001060009,num_3,0.55,0.7,0.20000000000000007,0.55,7.6411,21.01303,return,3.2137186999898404,,,,,,,,,,,,,,,,,904,26,female,left_right_width,2024-10-16_08h39.35.744,exp1,2023.1.0,60.017164900125174,
,,,,,,,,,,,,,,,,5,9,9.5,10,10.5,11,0.5,0.25,0.25,2.25,10,initial,36.05,324,342,361,379,397,9,9,9,9,9,,,,,,,5,0,5,0,0,1,1,52,,,,,,,,,,,,num_4,0.8199935000156984,num_4,0.45,1.1,0.15000000000000008,0.4,5.73083,15.2822,return,4.730128800030798,,,,,,,,,,,,,,,,,904,26,female,left_right_width,2024-10-16_08h39.35.744,exp1,2023.1.0,60.017164900125174,
,,,,,,,,,,,,,,,,5,9,9.5,10,10.5,11,0.5,0.25,0.25,2.25,10,initial,36.05,324,342,361,379,397,9,9,9,9,9,,,,,,,5,0,5,0,0,2,2,45,,,,,,,,,,,,num_5,3.5257655000314116,num_5,0.4,0.6,0.15000000000000008,0.45,5.73083,17.19248,return,3.1723713000537828,,,,,,,,,,,,,,,,,904,26,female,left_right_width,2024-10-16_08h39.35.744,exp1,2023.1.0,60.017164900125174,
,,,,,,,,,,,,,,,,3,9.5,10,10.5,0,0,0.5,0.25,0.25,1.25,10,initial,36.05,342,361,379,0,0,9,9,9,0,0,,,,,,,5,0,5,0,0,3,3,5,,,,,,,,,,,,num_2,0.7608761999290437,num_2,0.35,1.6,0.2,0.5,7.6411,19.10275,return,5.557545799994841,,,,,,,,,,,,,,,,,904,26,female,left_right_width,2024-10-16_08h39.35.744,exp1,2023.1.0,60.017164900125174,
,,,,,,,,,,,,,,,,3,9.5,10,10.5,0,0,0.5,0.25,0.25,1.25,10,initial,36.05,342,361,379,0,0,9,9,9,0,0,,,,,,,5,0,5,0,0,4,4,31,,,,,,,,,,,,num_2,0.7491883999900892,num_2,0.35,1.0,0.25,0.5,9.55138,19.10275,return,2.525892800069414,,,,,,,,,,,,,,,,,904,26,female,left_right_width,2024-10-16_08h39.35.744,exp1,2023.1.0,60.017164900125174,
,,,,,,,,,,,,,,,,5,9,9.5,10,10.5,11,0.5,0.25,0.25,2.25,10,initial,36.05,324,342,361,379,397,9,9,9,9,9,,,,,,,5,0,5,0,0,5,5,24,,,,,,,,,,,,num_3,0.6893784999847412,num_3,0.2,1,0.25,0.55,9.55138,21.01303,return,3.105061399983242,,,,,,,,,,,,,,,,,904,26,female,left_right_width,2024-10-16_08h39.35.744,exp1,2023.1.0,60.017164900125174,
,,,,,,,,,,,,,,,,3,9.5,10,10.5,0,0,0.5,0.25,0.25,1.25,10,initial,36.05,342,361,379,0,0,9,9,9,0,0,,,,,,,5,0,5,0,0,6,6,0,,,,,,,,,,,,num_3,0.7040257999906316,num_3,0.2,0.8,0.25,0.55,9.55138,21.01303,return,2.3678025000263005,,,,,,,,,,,,,,,,,904,26,female,left_right_width,2024-10-16_08h39.35.744,exp1,2023.1.0,60.017164900125174,
,,,,,,,,,,,,,,,,4,9.25,9.75,10.25,10.75,0,0.5,0.25,0.25,1.75,10,initial,36.05,333,351,370,388,0,9,9,9,9,0,,,,,,,5,0,5,0,0,7,7,9,,,,,,,,,,,,num_4,1.0213386999676004,num_4,0.2,0.4,0.2,0.4,7.6411,15.2822,return,0.8155536000849679,,,,,,,,,,,,,,,,,904,26,female,left_right_width,2024-10-16_08h39.35.744,exp1,2023.1.0,60.017164900125174,
,,,,,,,,,,,,,,,,5,9,9.5,10,10.5,11,0.5,0.25,0.25,2.25,10,initial,36.05,324,342,361,379,397,9,9,9,9,9,,,,,,,5,0,5,0,0,8,8,51,,,,,,,,,,,,num_4,1.1471715999068692,num_4,0.35,0.5,0.3,0.5,11.46165,19.10275,return,4.312480599968694,,,,,,,,,,,,,,,,,904,26,female,left_right_width,2024-10-16_08h39.35.744,exp1,2023.1.0,60.017164900125174,
