amount_p,posx1_p,posx2_p,posx3_p,posx4_p,posx5_p,center_to_center_p,edge_to_edge_p,w_p,stim_length_p,eccentricity_p,line1_p,line2_p,line3_p,line4_p,line5_p,amount,posx1,posx2,posx3,posx4,posx5,center_to_center,edge_to_edge,w,stim_length,eccentricity,trial_type,deg_to_pix_index,posx1_in_pix,posx2_in_pix,posx3_in_pix,posx4_in_pix,posx5_in_pix,line1,line2,line3,line4,line5,posx,setsize_cobdi,trials.thisRepN,trials.thisTrialN,trials.thisN,trials.thisIndex,blocks.thisRepN,blocks.thisTrialN,blocks.thisN,blocks.thisIndex,loop.thisRepN,loop.thisTrialN,loop.thisN,loop.thisIndex,first.thisRepN,first.thisTrialN,first.thisN,first.thisIndex,second.thisRepN,second.thisTrialN,second.thisN,second.thisIndex,key_resp_3.started,key_resp_3.keys,key_resp_3.rt,key_resp.keys,key_resp.rt,response,starting_width_deg,starting_space_deg,response_width_degree,response_spacing_degree,response_width_pixel,response_spacing_pixel,next_5.keys,next_5.rt,key_resp_4.keys,key_resp_4.rt,text_3.started,text_4.started,key_resp_2.started,text_2.started,key_resp_2.keys,key_resp_2.rt,adjusting.started,next.keys,next.rt,text_control2.started,key_resp.started,key_resp.corr,text_bye.started,text_bye.stopped,participant,age,gender,resp_group,date,expName,psychopyVersion,frameRate,
,,,,,,,,,,,,,,,,,,,,,,,,,,,,,,,,,,,,,,,,,,,,,,,,,,,,,,,,,,,,,31.996658400050364,c,79.06321880000178,,,,,,,,,,,,,,,,,,,,,,,,,,,,906,23,male,left_right_width,2024-10-17_12h44.00.940,exp1,2023.1.0,60.043651717684554,
5,9,9.5,10,10.5,11,0.5,0.1,0.4,2.4,10,9,9,9,9,9,,,,,,,,,,,,,,,,,,,,,,,,,,0,0,0,5,,,,,,,,,,,,,,,,,,,,num_4,3.1057033999823034,num_4,0.55,0.8,0.5,0.8,19.10275,30.5644,return,13.889535899972543,,,,,,,,,,,,,,,,,906,23,male,left_right_width,2024-10-17_12h44.00.940,exp1,2023.1.0,60.043651717684554,
4,9.25,9.75,10.25,10.75,0,0.5,0.25,0.25,1.75,10,9,9,9,9,0,,,,,,,,,,,,,,,,,,,,,,,,,,0,1,1,1,,,,,,,,,,,,,,,,,,,,num_4,3.6988519999431446,num_4,0.3,1.1,0.3,0.8,11.46165,30.5644,return,13.289426399976946,,,,,,,,,,,,,,,,,906,23,male,left_right_width,2024-10-17_12h44.00.940,exp1,2023.1.0,60.043651717684554,
3,9.1,10,10.9,0,0,0.9,0.35,0.55,2.35,10,9,9,9,0,0,,,,,,,,,,,,,,,,,,,,,,,,,,0,2,2,3,,,,,,,,,,,,,,,,,,,,num_3,2.570603200001642,num_3,0.2,0.5,0.35,0.55,13.37193,21.01303,return,11.94994029996451,,,,,,,,,,,,,,,,,906,23,male,left_right_width,2024-10-17_12h44.00.940,exp1,2023.1.0,60.043651717684554,
4,9.25,9.75,10.25,10.75,0,0.5,0.1,0.4,1.9000000000000001,10,9,9,9,9,0,,,,,,,,,,,,,,,,,,,,,,,,,,0,3,3,4,,,,,,,,,,,,,,,,,,,,num_4,25.003876899951138,num_4,0.2,1.0,0.35,0.6,13.37193,22.9233,return,13.711296399938874,,,,,,,,,,,,,,,,,906,23,male,left_right_width,2024-10-17_12h44.00.940,exp1,2023.1.0,60.043651717684554,
3,9.5,10,10.5,0,0,0.5,0.25,0.25,1.25,10,9,9,9,0,0,,,,,,,,,,,,,,,,,,,,,,,,,,0,4,4,0,,,,,,,,,,,,,,,,,,,,num_3,2.468702199985273,num_3,0.25,1,0.3,0.85,11.46165,32.47468,return,10.279066800023429,,,,,,,,,,,,,,,,,906,23,male,left_right_width,2024-10-17_12h44.00.940,exp1,2023.1.0,60.043651717684554,
5,8.2,9.1,10,10.9,11.8,0.9,0.35,0.55,4.15,10,9,9,9,9,9,,,,,,,,,,,,,,,,,,,,,,,,,,0,5,5,2,,,,,,,,,,,,,,,,,,,,num_5,2.002648900030181,num_5,0.25,0.7,0.44999999999999996,0.75,17.19248,28.65413,return,5.198090300080366,,,,,,,,,,,,,,,,,906,23,male,left_right_width,2024-10-17_12h44.00.940,exp1,2023.1.0,60.043651717684554,
,,,,,,,,,,,,,,,,,,,,,,,,,,,,,,,,,,,,,,,,,,,,,,,,,,,,,,,,,,,,,,,,,,,,,,,,,,,c,144.87959399993997,,,,,,,,,,,,,,,906,23,male,left_right_width,2024-10-17_12h44.00.940,exp1,2023.1.0,60.043651717684554,
,,,,,,,,,,,,,,,,3,9.1,10,10.9,0,0,0.9,0.35,0.55,2.35,10,initial,36.05,328,361,393,0,0,9,9,9,0,0,,,,,,,0,0,0,0,0,0,0,28,,,,,,,,,,,,num_2,3.480712999938987,num_2,0.35,1.4,0.49999999999999994,0.7,19.10275,26.74385,return,9.643936099950224,,,,,,,,,,,,,,,,,906,23,male,left_right_width,2024-10-17_12h44.00.940,exp1,2023.1.0,60.043651717684554,
,,,,,,,,,,,,,,,,3,9.1,10,10.9,0,0,0.9,0.35,0.55,2.35,10,initial,36.05,328,361,393,0,0,9,9,9,0,0,,,,,,,0,0,0,0,0,1,1,30,,,,,,,,,,,,num_2,2.83458389993757,num_2,0.3,1.4,0.5499999999999999,1.3,21.01303,49.66716,return,6.495313400053419,,,,,,,,,,,,,,,,,906,23,male,left_right_width,2024-10-17_12h44.00.940,exp1,2023.1.0,60.043651717684554,
,,,,,,,,,,,,,,,,5,8.2,9.1,10,10.9,11.8,0.9,0.35,0.55,4.15,10,initial,36.05,296,328,361,393,425,9,9,9,9,9,,,,,,,0,0,0,0,0,2,2,25,,,,,,,,,,,,num_5,4.082924999995157,num_5,0.5,1.0,0.55,0.9,21.01303,34.38495,return,8.399631900014356,,,,,,,,,,,,,,,,,906,23,male,left_right_width,2024-10-17_12h44.00.940,exp1,2023.1.0,60.043651717684554,
,,,,,,,,,,,,,,,,4,8.65,9.55,10.45,11.35,0,0.9,0.35,0.55,3.25,10,initial,36.05,312,344,377,409,0,9,9,9,9,0,,,,,,,0,0,0,0,0,3,3,39,,,,,,,,,,,,num_4,3.184050800045952,num_4,0.2,0.5,0.39999999999999997,0.7,15.2822,26.74385,return,11.148644399945624,,,,,,,,,,,,,,,,,906,23,male,left_right_width,2024-10-17_12h44.00.940,exp1,2023.1.0,60.043651717684554,
,,,,,,,,,,,,,,,,3,9.1,10,10.9,0,0,0.9,0.35,0.55,2.35,10,initial,36.05,328,361,393,0,0,9,9,9,0,0,,,,,,,0,0,0,0,0,4,4,0,,,,,,,,,,,,num_2,2.207249099970795,num_2,0.25,1.2,0.6,1.0,22.9233,38.2055,return,9.48780609993264,,,,,,,,,,,,,,,,,906,23,male,left_right_width,2024-10-17_12h44.00.940,exp1,2023.1.0,60.043651717684554,
,,,,,,,,,,,,,,,,5,8.2,9.1,10,10.9,11.8,0.9,0.35,0.55,4.15,10,initial,36.05,296,328,361,393,425,9,9,9,9,9,,,,,,,0,0,0,0,0,5,5,20,,,,,,,,,,,,num_5,2.563109999988228,num_5,0.45,0.5,0.45,0.7,17.19248,26.74385,return,12.197852300014347,,,,,,,,,,,,,,,,,906,23,male,left_right_width,2024-10-17_12h44.00.940,exp1,2023.1.0,60.043651717684554,
,,,,,,,,,,,,,,,,3,9.1,10,10.9,0,0,0.9,0.35,0.55,2.35,10,initial,36.05,328,361,393,0,0,9,9,9,0,0,,,,,,,0,0,0,0,0,6,6,34,,,,,,,,,,,,num_3,4.458751700003631,num_3,0.4,0.7,0.4,0.7,15.2822,26.74385,return,7.2644136000890285,,,,,,,,,,,,,,,,,906,23,male,left_right_width,2024-10-17_12h44.00.940,exp1,2023.1.0,60.043651717684554,
,,,,,,,,,,,,,,,,3,9.1,10,10.9,0,0,0.9,0.35,0.55,2.35,10,initial,36.05,328,361,393,0,0,9,9,9,0,0,,,,,,,0,0,0,0,0,7,7,2,,,,,,,,,,,,num_3,2.4496937000658363,num_3,0.35,0.8,0.5499999999999999,0.85,21.01303,32.47468,return,5.182769700069912,,,,,,,,,,,,,,,,,906,23,male,left_right_width,2024-10-17_12h44.00.940,exp1,2023.1.0,60.043651717684554,
,,,,,,,,,,,,,,,,4,8.65,9.55,10.45,11.35,0,0.9,0.35,0.55,3.25,10,initial,36.05,312,344,377,409,0,9,9,9,9,0,,,,,,,0,0,0,0,0,8,8,16,,,,,,,,,,,,num_4,4.530646400060505,num_4,0.25,1.3,0.44999999999999996,0.8,17.19248,30.5644,return,6.332472300040536,,,,,,,,,,,,,,,,,906,23,male,left_right_width,2024-10-17_12h44.00.940,exp1,2023.1.0,60.043651717684554,
,,,,,,,,,,,,,,,,5,8.2,9.1,10,10.9,11.8,0.9,0.35,0.55,4.15,10,initial,36.05,296,328,361,393,425,9,9,9,9,9,,,,,,,0,0,0,0,0,9,9,51,,,,,,,,,,,,num_5,2.2467658000532538,num_5,0.5,0.7,0.5,0.9,19.10275,34.38495,return,8.648558599990793,,,,,,,,,,,,,,,,,906,23,male,left_right_width,2024-10-17_12h44.00.940,exp1,2023.1.0,60.043651717684554,
,,,,,,,,,,,,,,,,4,8.65,9.55,10.45,11.35,0,0.9,0.35,0.55,3.25,10,initial,36.05,312,344,377,409,0,9,9,9,9,0,,,,,,,0,0,0,0,0,10,10,11,,,,,,,,,,,,num_4,1.5102181000402197,num_4,0.35,0.9,0.49999999999999994,0.8,19.10275,30.5644,return,20.994949399959296,,,,,,,,,,,,,,,,,906,23,male,left_right_width,2024-10-17_12h44.00.940,exp1,2023.1.0,60.043651717684554,
,,,,,,,,,,,,,,,,3,9.1,10,10.9,0,0,0.9,0.35,0.55,2.35,10,initial,36.05,328,361,393,0,0,9,9,9,0,0,,,,,,,0,0,0,0,0,11,11,5,,,,,,,,,,,,num_3,2.129934799973853,num_3,0.3,1.1,0.44999999999999996,0.95,17.19248,36.29523,return,6.918332500034012,,,,,,,,,,,,,,,,,906,23,male,left_right_width,2024-10-17_12h44.00.940,exp1,2023.1.0,60.043651717684554,
,,,,,,,,,,,,,,,,5,8.2,9.1,10,10.9,11.8,0.9,0.35,0.55,4.15,10,initial,36.05,296,328,361,393,425,9,9,9,9,9,,,,,,,0,0,0,0,0,12,12,48,,,,,,,,,,,,num_5,2.0576798000838608,num_5,0.5,1.0,0.5,0.9,19.10275,34.38495,return,8.485964799998328,,,,,,,,,,,,,,,,,906,23,male,left_right_width,2024-10-17_12h44.00.940,exp1,2023.1.0,60.043651717684554,
,,,,,,,,,,,,,,,,5,8.2,9.1,10,10.9,11.8,0.9,0.35,0.55,4.15,10,initial,36.05,296,328,361,393,425,9,9,9,9,9,,,,,,,0,0,0,0,0,13,13,19,,,,,,,,,,,,num_5,2.7993150000693277,num_5,0.25,0.9,0.44999999999999996,0.95,17.19248,36.29523,return,13.180055600008927,,,,,,,,,,,,,,,,,906,23,male,left_right_width,2024-10-17_12h44.00.940,exp1,2023.1.0,60.043651717684554,
,,,,,,,,,,,,,,,,5,8.2,9.1,10,10.9,11.8,0.9,0.35,0.55,4.15,10,initial,36.05,296,328,361,393,425,9,9,9,9,9,,,,,,,0,0,0,0,0,14,14,46,,,,,,,,,,,,num_4,1.882249900023453,num_4,0.45,0.8,0.5,1.0,19.10275,38.2055,return,16.269258599961177,,,,,,,,,,,,,,,,,906,23,male,left_right_width,2024-10-17_12h44.00.940,exp1,2023.1.0,60.043651717684554,
,,,,,,,,,,,,,,,,4,8.65,9.55,10.45,11.35,0,0.9,0.35,0.55,3.25,10,initial,36.05,312,344,377,409,0,9,9,9,9,0,,,,,,,0,0,0,0,0,15,15,12,,,,,,,,,,,,num_3,2.630645400029607,num_3,0.4,1.2,0.6500000000000001,0.85,24.83358,32.47468,return,6.075787900015712,,,,,,,,,,,,,,,,,906,23,male,left_right_width,2024-10-17_12h44.00.940,exp1,2023.1.0,60.043651717684554,
,,,,,,,,,,,,,,,,4,8.65,9.55,10.45,11.35,0,0.9,0.35,0.55,3.25,10,initial,36.05,312,344,377,409,0,9,9,9,9,0,,,,,,,0,0,0,0,0,16,16,14,,,,,,,,,,,,num_4,2.0759770000586286,num_4,0.2,0.9,0.5499999999999999,0.9,21.01303,34.38495,return,10.165977600030601,,,,,,,,,,,,,,,,,906,23,male,left_right_width,2024-10-17_12h44.00.940,exp1,2023.1.0,60.043651717684554,
,,,,,,,,,,,,,,,,5,8.2,9.1,10,10.9,11.8,0.9,0.35,0.55,4.15,10,initial,36.05,296,328,361,393,425,9,9,9,9,9,,,,,,,0,0,0,0,0,17,17,47,,,,,,,,,,,,num_5,2.4094417999731377,num_5,0.3,0.5,0.49999999999999994,0.7,19.10275,26.74385,return,9.782926499960013,,,,,,,,,,,,,,,,,906,23,male,left_right_width,2024-10-17_12h44.00.940,exp1,2023.1.0,60.043651717684554,
,,,,,,,,,,,,,,,,5,8.2,9.1,10,10.9,11.8,0.9,0.35,0.55,4.15,10,initial,36.05,296,328,361,393,425,9,9,9,9,9,,,,,,,0,0,0,0,0,18,18,52,,,,,,,,,,,,num_5,2.12067659990862,num_5,0.3,1.3,0.5499999999999999,1.2,21.01303,45.8466,return,7.054728699964471,,,,,,,,,,,,,,,,,906,23,male,left_right_width,2024-10-17_12h44.00.940,exp1,2023.1.0,60.043651717684554,
,,,,,,,,,,,,,,,,3,9.1,10,10.9,0,0,0.9,0.35,0.55,2.35,10,initial,36.05,328,361,393,0,0,9,9,9,0,0,,,,,,,0,0,0,0,0,19,19,35,,,,,,,,,,,,num_3,1.8841933000367135,num_3,0.5,0.9,0.55,0.95,21.01303,36.29523,return,9.416728399926797,,,,,,,,,,,,,,,,,906,23,male,left_right_width,2024-10-17_12h44.00.940,exp1,2023.1.0,60.043651717684554,
,,,,,,,,,,,,,,,,4,8.65,9.55,10.45,11.35,0,0.9,0.35,0.55,3.25,10,initial,36.05,312,344,377,409,0,9,9,9,9,0,,,,,,,0,0,0,0,0,20,20,9,,,,,,,,,,,,num_4,2.125699199968949,num_4,0.35,1.1,0.5499999999999999,1.0,21.01303,38.2055,return,6.548152200062759,,,,,,,,,,,,,,,,,906,23,male,left_right_width,2024-10-17_12h44.00.940,exp1,2023.1.0,60.043651717684554,
,,,,,,,,,,,,,,,,5,8.2,9.1,10,10.9,11.8,0.9,0.35,0.55,4.15,10,initial,36.05,296,328,361,393,425,9,9,9,9,9,,,,,,,0,0,0,0,0,21,21,50,,,,,,,,,,,,num_5,3.9094112999737263,num_5,0.25,0.3,0.5499999999999999,0.8,21.01303,30.5644,return,10.464302100008354,,,,,,,,,,,,,,,,,906,23,male,left_right_width,2024-10-17_12h44.00.940,exp1,2023.1.0,60.043651717684554,
,,,,,,,,,,,,,,,,4,8.65,9.55,10.45,11.35,0,0.9,0.35,0.55,3.25,10,initial,36.05,312,344,377,409,0,9,9,9,9,0,,,,,,,0,0,0,0,0,22,22,38,,,,,,,,,,,,num_3,2.6204579999903217,num_3,0.35,1.1,0.49999999999999994,0.85,19.10275,32.47468,return,9.698049700004049,,,,,,,,,,,,,,,,,906,23,male,left_right_width,2024-10-17_12h44.00.940,exp1,2023.1.0,60.043651717684554,
,,,,,,,,,,,,,,,,5,8.2,9.1,10,10.9,11.8,0.9,0.35,0.55,4.15,10,initial,36.05,296,328,361,393,425,9,9,9,9,9,,,,,,,0,0,0,0,0,23,23,49,,,,,,,,,,,,num_6,6.198878100025468,num_6,0.55,1.2,0.6000000000000001,0.9,22.9233,34.38495,return,12.233133999980055,,,,,,,,,,,,,,,,,906,23,male,left_right_width,2024-10-17_12h44.00.940,exp1,2023.1.0,60.043651717684554,
,,,,,,,,,,,,,,,,4,8.65,9.55,10.45,11.35,0,0.9,0.35,0.55,3.25,10,initial,36.05,312,344,377,409,0,9,9,9,9,0,,,,,,,0,0,0,0,0,24,24,42,,,,,,,,,,,,num_4,1.6453090000431985,num_4,0.2,0.8,0.6,0.9,22.9233,34.38495,return,8.328429599991068,,,,,,,,,,,,,,,,,906,23,male,left_right_width,2024-10-17_12h44.00.940,exp1,2023.1.0,60.043651717684554,
,,,,,,,,,,,,,,,,5,8.2,9.1,10,10.9,11.8,0.9,0.35,0.55,4.15,10,initial,36.05,296,328,361,393,425,9,9,9,9,9,,,,,,,0,0,0,0,0,25,25,21,,,,,,,,,,,,num_5,1.8930294000310823,num_5,0.25,1.0,0.65,1.1,24.83358,42.02605,return,8.030286199995317,,,,,,,,,,,,,,,,,906,23,male,left_right_width,2024-10-17_12h44.00.940,exp1,2023.1.0,60.043651717684554,
,,,,,,,,,,,,,,,,4,8.65,9.55,10.45,11.35,0,0.9,0.35,0.55,3.25,10,initial,36.05,312,344,377,409,0,9,9,9,9,0,,,,,,,0,0,0,0,0,26,26,41,,,,,,,,,,,,num_4,2.9591720999451354,num_4,0.3,0.6,0.49999999999999994,0.8,19.10275,30.5644,return,9.415296499966644,,,,,,,,,,,,,,,,,906,23,male,left_right_width,2024-10-17_12h44.00.940,exp1,2023.1.0,60.043651717684554,
,,,,,,,,,,,,,,,,4,8.65,9.55,10.45,11.35,0,0.9,0.35,0.55,3.25,10,initial,36.05,312,344,377,409,0,9,9,9,9,0,,,,,,,0,0,0,0,0,27,27,43,,,,,,,,,,,,num_4,2.8965889000101015,num_4,0.3,1.1,0.49999999999999994,1.0,19.10275,38.2055,return,11.34958179993555,,,,,,,,,,,,,,,,,906,23,male,left_right_width,2024-10-17_12h44.00.940,exp1,2023.1.0,60.043651717684554,
,,,,,,,,,,,,,,,,5,8.2,9.1,10,10.9,11.8,0.9,0.35,0.55,4.15,10,initial,36.05,296,328,361,393,425,9,9,9,9,9,,,,,,,0,0,0,0,0,28,28,45,,,,,,,,,,,,num_5,1.9160044000018388,num_5,0.35,1.1,0.49999999999999994,1.1,19.10275,42.02605,return,5.913427000050433,,,,,,,,,,,,,,,,,906,23,male,left_right_width,2024-10-17_12h44.00.940,exp1,2023.1.0,60.043651717684554,
,,,,,,,,,,,,,,,,3,9.1,10,10.9,0,0,0.9,0.35,0.55,2.35,10,initial,36.05,328,361,393,0,0,9,9,9,0,0,,,,,,,0,0,0,0,0,29,29,33,,,,,,,,,,,,num_2,1.4786326999310404,num_2,0.45,1.2,0.6000000000000001,1.1,22.9233,42.02605,return,6.1015087000560015,,,,,,,,,,,,,,,,,906,23,male,left_right_width,2024-10-17_12h44.00.940,exp1,2023.1.0,60.043651717684554,
,,,,,,,,,,,,,,,,5,8.2,9.1,10,10.9,11.8,0.9,0.35,0.55,4.15,10,initial,36.05,296,328,361,393,425,9,9,9,9,9,,,,,,,0,0,0,0,0,30,30,18,,,,,,,,,,,,num_4,2.041532199946232,num_4,0.2,1.0,0.5499999999999999,0.9,21.01303,34.38495,return,11.491285199997947,,,,,,,,,,,,,,,,,906,23,male,left_right_width,2024-10-17_12h44.00.940,exp1,2023.1.0,60.043651717684554,
,,,,,,,,,,,,,,,,4,8.65,9.55,10.45,11.35,0,0.9,0.35,0.55,3.25,10,initial,36.05,312,344,377,409,0,9,9,9,9,0,,,,,,,0,0,0,0,0,31,31,17,,,,,,,,,,,,num_3,1.5563469999469817,num_3,0.55,0.6,0.55,0.75,21.01303,28.65413,return,8.767971800058149,,,,,,,,,,,,,,,,,906,23,male,left_right_width,2024-10-17_12h44.00.940,exp1,2023.1.0,60.043651717684554,
,,,,,,,,,,,,,,,,5,8.2,9.1,10,10.9,11.8,0.9,0.35,0.55,4.15,10,initial,36.05,296,328,361,393,425,9,9,9,9,9,,,,,,,0,0,0,0,0,32,32,24,,,,,,,,,,,,num_5,1.9657119999174029,num_5,0.4,0.6,0.8000000000000003,1.0,30.5644,38.2055,return,13.247163099935278,,,,,,,,,,,,,,,,,906,23,male,left_right_width,2024-10-17_12h44.00.940,exp1,2023.1.0,60.043651717684554,
,,,,,,,,,,,,,,,,4,8.65,9.55,10.45,11.35,0,0.9,0.35,0.55,3.25,10,initial,36.05,312,344,377,409,0,9,9,9,9,0,,,,,,,0,0,0,0,0,33,33,10,,,,,,,,,,,,num_3,2.9696352999890223,num_3,0.35,0.4,0.6,0.75,22.9233,28.65413,return,11.612898000050336,,,,,,,,,,,,,,,,,906,23,male,left_right_width,2024-10-17_12h44.00.940,exp1,2023.1.0,60.043651717684554,
,,,,,,,,,,,,,,,,3,9.1,10,10.9,0,0,0.9,0.35,0.55,2.35,10,initial,36.05,328,361,393,0,0,9,9,9,0,0,,,,,,,0,0,0,0,0,34,34,1,,,,,,,,,,,,num_2,1.2574359000427648,num_2,0.3,0.8,0.5499999999999999,0.9,21.01303,34.38495,return,4.452853600028902,,,,,,,,,,,,,,,,,906,23,male,left_right_width,2024-10-17_12h44.00.940,exp1,2023.1.0,60.043651717684554,
,,,,,,,,,,,,,,,,3,9.1,10,10.9,0,0,0.9,0.35,0.55,2.35,10,initial,36.05,328,361,393,0,0,9,9,9,0,0,,,,,,,0,0,0,0,0,35,35,8,,,,,,,,,,,,num_3,3.478140900027938,num_3,0.2,0.9,0.49999999999999994,0.75,19.10275,28.65413,return,5.97503160010092,,,,,,,,,,,,,,,,,906,23,male,left_right_width,2024-10-17_12h44.00.940,exp1,2023.1.0,60.043651717684554,
,,,,,,,,,,,,,,,,3,9.1,10,10.9,0,0,0.9,0.35,0.55,2.35,10,initial,36.05,328,361,393,0,0,9,9,9,0,0,,,,,,,0,0,0,0,0,36,36,32,,,,,,,,,,,,num_2,1.973054000060074,num_2,0.25,0.6,0.39999999999999997,1.2,15.2822,45.8466,return,9.025275400024839,,,,,,,,,,,,,,,,,906,23,male,left_right_width,2024-10-17_12h44.00.940,exp1,2023.1.0,60.043651717684554,
,,,,,,,,,,,,,,,,5,8.2,9.1,10,10.9,11.8,0.9,0.35,0.55,4.15,10,initial,36.05,296,328,361,393,425,9,9,9,9,9,,,,,,,0,0,0,0,0,37,37,26,,,,,,,,,,,,num_5,1.7729298999765888,num_5,0.35,1.1,0.49999999999999994,0.65,19.10275,24.83358,return,12.581020000041462,,,,,,,,,,,,,,,,,906,23,male,left_right_width,2024-10-17_12h44.00.940,exp1,2023.1.0,60.043651717684554,
,,,,,,,,,,,,,,,,3,9.1,10,10.9,0,0,0.9,0.35,0.55,2.35,10,initial,36.05,328,361,393,0,0,9,9,9,0,0,,,,,,,0,0,0,0,0,38,38,27,,,,,,,,,,,,num_2,1.8664720000233501,num_2,0.2,1.2,0.49999999999999994,1.3,19.10275,49.66716,return,6.661201299983077,,,,,,,,,,,,,,,,,906,23,male,left_right_width,2024-10-17_12h44.00.940,exp1,2023.1.0,60.043651717684554,
,,,,,,,,,,,,,,,,5,8.2,9.1,10,10.9,11.8,0.9,0.35,0.55,4.15,10,initial,36.05,296,328,361,393,425,9,9,9,9,9,,,,,,,0,0,0,0,0,39,39,53,,,,,,,,,,,,num_5,2.007992299972102,num_5,0.5,0.6,0.55,0.8,21.01303,30.5644,return,6.75037240004167,,,,,,,,,,,,,,,,,906,23,male,left_right_width,2024-10-17_12h44.00.940,exp1,2023.1.0,60.043651717684554,
,,,,,,,,,,,,,,,,3,9.1,10,10.9,0,0,0.9,0.35,0.55,2.35,10,initial,36.05,328,361,393,0,0,9,9,9,0,0,,,,,,,0,0,0,0,0,40,40,6,,,,,,,,,,,,num_2,1.4353844000725076,num_2,0.45,1.4,0.55,0.9,21.01303,34.38495,return,7.003201900050044,,,,,,,,,,,,,,,,,906,23,male,left_right_width,2024-10-17_12h44.00.940,exp1,2023.1.0,60.043651717684554,
,,,,,,,,,,,,,,,,3,9.1,10,10.9,0,0,0.9,0.35,0.55,2.35,10,initial,36.05,328,361,393,0,0,9,9,9,0,0,,,,,,,0,0,0,0,0,41,41,7,,,,,,,,,,,,num_3,2.0053632999770343,num_3,0.45,0.6,0.55,0.75,21.01303,28.65413,return,9.107114599901251,,,,,,,,,,,,,,,,,906,23,male,left_right_width,2024-10-17_12h44.00.940,exp1,2023.1.0,60.043651717684554,
,,,,,,,,,,,,,,,,4,8.65,9.55,10.45,11.35,0,0.9,0.35,0.55,3.25,10,initial,36.05,312,344,377,409,0,9,9,9,9,0,,,,,,,0,0,0,0,0,42,42,44,,,,,,,,,,,,num_4,1.6205962999956682,num_4,0.2,0.9,0.7000000000000001,1.0,26.74385,38.2055,return,5.775699699996039,,,,,,,,,,,,,,,,,906,23,male,left_right_width,2024-10-17_12h44.00.940,exp1,2023.1.0,60.043651717684554,
,,,,,,,,,,,,,,,,5,8.2,9.1,10,10.9,11.8,0.9,0.35,0.55,4.15,10,initial,36.05,296,328,361,393,425,9,9,9,9,9,,,,,,,0,0,0,0,0,43,43,22,,,,,,,,,,,,num_4,2.712148000020534,num_4,0.25,0.6,0.9500000000000003,1.2,36.29523,45.8466,return,12.612131200032309,,,,,,,,,,,,,,,,,906,23,male,left_right_width,2024-10-17_12h44.00.940,exp1,2023.1.0,60.043651717684554,
,,,,,,,,,,,,,,,,4,8.65,9.55,10.45,11.35,0,0.9,0.35,0.55,3.25,10,initial,36.05,312,344,377,409,0,9,9,9,9,0,,,,,,,0,0,0,0,0,44,44,36,,,,,,,,,,,,num_3,1.7825816998956725,num_3,0.25,1.1,0.7500000000000001,1.05,28.65413,40.11578,return,7.195048400084488,,,,,,,,,,,,,,,,,906,23,male,left_right_width,2024-10-17_12h44.00.940,exp1,2023.1.0,60.043651717684554,
,,,,,,,,,,,,,,,,4,8.65,9.55,10.45,11.35,0,0.9,0.35,0.55,3.25,10,initial,36.05,312,344,377,409,0,9,9,9,9,0,,,,,,,0,0,0,0,0,45,45,13,,,,,,,,,,,,num_3,4.127224599942565,num_3,0.25,1.3,0.7000000000000001,1.05,26.74385,40.11578,return,17.744357399991713,,,,,,,,,,,,,,,,,906,23,male,left_right_width,2024-10-17_12h44.00.940,exp1,2023.1.0,60.043651717684554,
,,,,,,,,,,,,,,,,4,8.65,9.55,10.45,11.35,0,0.9,0.35,0.55,3.25,10,initial,36.05,312,344,377,409,0,9,9,9,9,0,,,,,,,0,0,0,0,0,46,46,37,,,,,,,,,,,,num_4,1.7341561999637634,num_4,0.45,0.6,0.6000000000000001,0.9,22.9233,34.38495,return,6.617514300043695,,,,,,,,,,,,,,,,,906,23,male,left_right_width,2024-10-17_12h44.00.940,exp1,2023.1.0,60.043651717684554,
,,,,,,,,,,,,,,,,3,9.1,10,10.9,0,0,0.9,0.35,0.55,2.35,10,initial,36.05,328,361,393,0,0,9,9,9,0,0,,,,,,,0,0,0,0,0,47,47,3,,,,,,,,,,,,num_2,1.0696368999779224,num_2,0.3,0.4,0.5499999999999999,0.9,21.01303,34.38495,return,11.837901000049897,,,,,,,,,,,,,,,,,906,23,male,left_right_width,2024-10-17_12h44.00.940,exp1,2023.1.0,60.043651717684554,
,,,,,,,,,,,,,,,,4,8.65,9.55,10.45,11.35,0,0.9,0.35,0.55,3.25,10,initial,36.05,312,344,377,409,0,9,9,9,9,0,,,,,,,0,0,0,0,0,48,48,15,,,,,,,,,,,,num_4,1.5662096000742167,num_4,0.4,1.0,0.6000000000000001,1.0,22.9233,38.2055,return,9.496068599983118,,,,,,,,,,,,,,,,,906,23,male,left_right_width,2024-10-17_12h44.00.940,exp1,2023.1.0,60.043651717684554,
,,,,,,,,,,,,,,,,5,8.2,9.1,10,10.9,11.8,0.9,0.35,0.55,4.15,10,initial,36.05,296,328,361,393,425,9,9,9,9,9,,,,,,,0,0,0,0,0,49,49,23,,,,,,,,,,,,num_5,1.3280045000137761,num_5,0.2,0.3,0.49999999999999994,0.85,19.10275,32.47468,return,9.169663799926639,,,,,,,,,,,,,,,,,906,23,male,left_right_width,2024-10-17_12h44.00.940,exp1,2023.1.0,60.043651717684554,
,,,,,,,,,,,,,,,,3,9.1,10,10.9,0,0,0.9,0.35,0.55,2.35,10,initial,36.05,328,361,393,0,0,9,9,9,0,0,,,,,,,0,0,0,0,0,50,50,31,,,,,,,,,,,,num_2,1.714055799995549,num_2,0.45,1.4,0.6500000000000001,1.1,24.83358,42.02605,return,9.772776899975725,,,,,,,,,,,,,,,,,906,23,male,left_right_width,2024-10-17_12h44.00.940,exp1,2023.1.0,60.043651717684554,
,,,,,,,,,,,,,,,,3,9.1,10,10.9,0,0,0.9,0.35,0.55,2.35,10,initial,36.05,328,361,393,0,0,9,9,9,0,0,,,,,,,0,0,0,0,0,51,51,29,,,,,,,,,,,,num_2,1.129532500053756,num_2,0.5,1.4,0.6000000000000001,1.2,22.9233,45.8466,return,6.139636700041592,,,,,,,,,,,,,,,,,906,23,male,left_right_width,2024-10-17_12h44.00.940,exp1,2023.1.0,60.043651717684554,
,,,,,,,,,,,,,,,,3,9.1,10,10.9,0,0,0.9,0.35,0.55,2.35,10,initial,36.05,328,361,393,0,0,9,9,9,0,0,,,,,,,0,0,0,0,0,52,52,4,,,,,,,,,,,,num_2,5.506954199983738,num_2,0.35,1.2,0.65,1.4,24.83358,53.48771,return,4.464994200039655,,,,,,,,,,,,,,,,,906,23,male,left_right_width,2024-10-17_12h44.00.940,exp1,2023.1.0,60.043651717684554,
,,,,,,,,,,,,,,,,4,8.65,9.55,10.45,11.35,0,0.9,0.35,0.55,3.25,10,initial,36.05,312,344,377,409,0,9,9,9,9,0,,,,,,,0,0,0,0,0,53,53,40,,,,,,,,,,,,num_4,3.027874600025825,num_4,0.3,0.8,0.7000000000000001,1.1,26.74385,42.02605,return,9.989721000078134,,,,,,,,,,,,,,,,,906,23,male,left_right_width,2024-10-17_12h44.00.940,exp1,2023.1.0,60.043651717684554,
,,,,,,,,,,,,,,,,,,,,,,,,,,,,,,,,,,,,,,,,,,,,,0,0,0,0,,,,,,,,,,,,,,,,,,,,,,,,,,,,,1098.040211500018,1098.040211500018,1098.040211500018,,,,,,,,,,,,906,23,male,left_right_width,2024-10-17_12h44.00.940,exp1,2023.1.0,60.043651717684554,
,,,,,,,,,,,,,,,,3,9.5,10,10.5,0,0,0.5,0.25,0.25,1.25,10,initial,36.05,342,361,379,0,0,9,9,9,0,0,,,,,,,1,0,1,0,0,0,0,32,,,,,,,,,,,,num_2,2.4884077000897378,num_2,0.45,0.8,0.25000000000000006,0.6,9.55138,22.9233,return,6.834884500014596,,,,,,,,,,,,,,,,,906,23,male,left_right_width,2024-10-17_12h44.00.940,exp1,2023.1.0,60.043651717684554,
,,,,,,,,,,,,,,,,3,9.5,10,10.5,0,0,0.5,0.25,0.25,1.25,10,initial,36.05,342,361,379,0,0,9,9,9,0,0,,,,,,,1,0,1,0,0,1,1,3,,,,,,,,,,,,num_2,1.075729600037448,num_2,0.2,1.2,0.3,0.7,11.46165,26.74385,return,9.040973099996336,,,,,,,,,,,,,,,,,906,23,male,left_right_width,2024-10-17_12h44.00.940,exp1,2023.1.0,60.043651717684554,
,,,,,,,,,,,,,,,,3,9.5,10,10.5,0,0,0.5,0.25,0.25,1.25,10,initial,36.05,342,361,379,0,0,9,9,9,0,0,,,,,,,1,0,1,0,0,2,2,6,,,,,,,,,,,,num_2,2.471657400019467,num_2,0.3,1.4,0.35,0.8,13.37193,30.5644,return,4.780400300049223,,,,,,,,,,,,,,,,,906,23,male,left_right_width,2024-10-17_12h44.00.940,exp1,2023.1.0,60.043651717684554,
,,,,,,,,,,,,,,,,3,9.5,10,10.5,0,0,0.5,0.25,0.25,1.25,10,initial,36.05,342,361,379,0,0,9,9,9,0,0,,,,,,,1,0,1,0,0,3,3,8,,,,,,,,,,,,num_2,1.6590876000700518,num_2,0.25,1.0,0.25,0.6,9.55138,22.9233,return,4.818155499990098,,,,,,,,,,,,,,,,,906,23,male,left_right_width,2024-10-17_12h44.00.940,exp1,2023.1.0,60.043651717684554,
,,,,,,,,,,,,,,,,3,9.5,10,10.5,0,0,0.5,0.25,0.25,1.25,10,initial,36.05,342,361,379,0,0,9,9,9,0,0,,,,,,,1,0,1,0,0,4,4,4,,,,,,,,,,,,num_2,1.8869137999136,num_2,0.25,1.2,0.3,0.7,11.46165,26.74385,return,7.580324999988079,,,,,,,,,,,,,,,,,906,23,male,left_right_width,2024-10-17_12h44.00.940,exp1,2023.1.0,60.043651717684554,
,,,,,,,,,,,,,,,,4,9.25,9.75,10.25,10.75,0,0.5,0.25,0.25,1.75,10,initial,36.05,333,351,370,388,0,9,9,9,9,0,,,,,,,1,0,1,0,0,5,5,44,,,,,,,,,,,,num_3,2.1073815000709146,num_3,0.3,0.6,0.3,0.65,11.46165,24.83358,return,6.948103299946524,,,,,,,,,,,,,,,,,906,23,male,left_right_width,2024-10-17_12h44.00.940,exp1,2023.1.0,60.043651717684554,
,,,,,,,,,,,,,,,,5,9,9.5,10,10.5,11,0.5,0.25,0.25,2.25,10,initial,36.05,324,342,361,379,397,9,9,9,9,9,,,,,,,1,0,1,0,0,6,6,50,,,,,,,,,,,,num_4,1.7624162998981774,num_4,0.2,0.9,0.25,0.7,9.55138,26.74385,return,5.24260930006858,,,,,,,,,,,,,,,,,906,23,male,left_right_width,2024-10-17_12h44.00.940,exp1,2023.1.0,60.043651717684554,
,,,,,,,,,,,,,,,,5,9,9.5,10,10.5,11,0.5,0.25,0.25,2.25,10,initial,36.05,324,342,361,379,397,9,9,9,9,9,,,,,,,1,0,1,0,0,7,7,48,,,,,,,,,,,,num_4,1.430412199930288,num_4,0.2,1.0,0.25,0.4,9.55138,15.2822,return,8.076331300078891,,,,,,,,,,,,,,,,,906,23,male,left_right_width,2024-10-17_12h44.00.940,exp1,2023.1.0,60.043651717684554,
,,,,,,,,,,,,,,,,5,9,9.5,10,10.5,11,0.5,0.25,0.25,2.25,10,initial,36.05,324,342,361,379,397,9,9,9,9,9,,,,,,,1,0,1,0,0,8,8,23,,,,,,,,,,,,num_5,1.6485005000140518,num_5,0.2,1.1,0.25,0.5,9.55138,19.10275,return,6.727582800085656,,,,,,,,,,,,,,,,,906,23,male,left_right_width,2024-10-17_12h44.00.940,exp1,2023.1.0,60.043651717684554,
,,,,,,,,,,,,,,,,3,9.5,10,10.5,0,0,0.5,0.25,0.25,1.25,10,initial,36.05,342,361,379,0,0,9,9,9,0,0,,,,,,,1,0,1,0,0,9,9,33,,,,,,,,,,,,num_3,1.175952999969013,num_3,0.4,1,0.30000000000000004,0.5,11.46165,19.10275,return,6.2714039999991655,,,,,,,,,,,,,,,,,906,23,male,left_right_width,2024-10-17_12h44.00.940,exp1,2023.1.0,60.043651717684554,
,,,,,,,,,,,,,,,,5,9,9.5,10,10.5,11,0.5,0.25,0.25,2.25,10,initial,36.05,324,342,361,379,397,9,9,9,9,9,,,,,,,1,0,1,0,0,10,10,46,,,,,,,,,,,,num_5,1.4496192999649793,num_5,0.2,0.7,0.25,0.5,9.55138,19.10275,return,5.086482599959709,,,,,,,,,,,,,,,,,906,23,male,left_right_width,2024-10-17_12h44.00.940,exp1,2023.1.0,60.043651717684554,
,,,,,,,,,,,,,,,,4,9.25,9.75,10.25,10.75,0,0.5,0.25,0.25,1.75,10,initial,36.05,333,351,370,388,0,9,9,9,9,0,,,,,,,1,0,1,0,0,11,11,13,,,,,,,,,,,,num_4,1.094796699937433,num_4,0.25,1.0,0.3,0.6,11.46165,22.9233,return,6.562398200039752,,,,,,,,,,,,,,,,,906,23,male,left_right_width,2024-10-17_12h44.00.940,exp1,2023.1.0,60.043651717684554,
,,,,,,,,,,,,,,,,4,9.25,9.75,10.25,10.75,0,0.5,0.25,0.25,1.75,10,initial,36.05,333,351,370,388,0,9,9,9,9,0,,,,,,,1,0,1,0,0,12,12,37,,,,,,,,,,,,num_3,1.6815740000456572,num_3,0.35,1.1,0.3,0.5,11.46165,19.10275,return,6.458069499931298,,,,,,,,,,,,,,,,,906,23,male,left_right_width,2024-10-17_12h44.00.940,exp1,2023.1.0,60.043651717684554,
,,,,,,,,,,,,,,,,5,9,9.5,10,10.5,11,0.5,0.25,0.25,2.25,10,initial,36.05,324,342,361,379,397,9,9,9,9,9,,,,,,,1,0,1,0,0,13,13,24,,,,,,,,,,,,num_5,1.8574707000516355,num_5,0.25,0.3,0.3,0.5,11.46165,19.10275,return,8.688409499940462,,,,,,,,,,,,,,,,,906,23,male,left_right_width,2024-10-17_12h44.00.940,exp1,2023.1.0,60.043651717684554,
,,,,,,,,,,,,,,,,3,9.5,10,10.5,0,0,0.5,0.25,0.25,1.25,10,initial,36.05,342,361,379,0,0,9,9,9,0,0,,,,,,,1,0,1,0,0,14,14,2,,,,,,,,,,,,num_2,1.009763199952431,num_2,0.25,1.0,0.3,0.5,11.46165,19.10275,return,6.663984399987385,,,,,,,,,,,,,,,,,906,23,male,left_right_width,2024-10-17_12h44.00.940,exp1,2023.1.0,60.043651717684554,
,,,,,,,,,,,,,,,,5,9,9.5,10,10.5,11,0.5,0.25,0.25,2.25,10,initial,36.05,324,342,361,379,397,9,9,9,9,9,,,,,,,1,0,1,0,0,15,15,26,,,,,,,,,,,,num_4,3.191618000040762,num_4,0.3,0.3,0.35,0.6,13.37193,22.9233,return,6.640973699977621,,,,,,,,,,,,,,,,,906,23,male,left_right_width,2024-10-17_12h44.00.940,exp1,2023.1.0,60.043651717684554,
,,,,,,,,,,,,,,,,3,9.5,10,10.5,0,0,0.5,0.25,0.25,1.25,10,initial,36.05,342,361,379,0,0,9,9,9,0,0,,,,,,,1,0,1,0,0,16,16,30,,,,,,,,,,,,num_2,1.4075084999203682,num_2,0.25,1.4,0.35,0.5,13.37193,19.10275,return,6.017080100020394,,,,,,,,,,,,,,,,,906,23,male,left_right_width,2024-10-17_12h44.00.940,exp1,2023.1.0,60.043651717684554,
,,,,,,,,,,,,,,,,3,9.5,10,10.5,0,0,0.5,0.25,0.25,1.25,10,initial,36.05,342,361,379,0,0,9,9,9,0,0,,,,,,,1,0,1,0,0,17,17,35,,,,,,,,,,,,num_2,1.1328316999133676,num_2,0.4,0.8,0.35000000000000003,0.6,13.37193,22.9233,return,5.4168526999419555,,,,,,,,,,,,,,,,,906,23,male,left_right_width,2024-10-17_12h44.00.940,exp1,2023.1.0,60.043651717684554,
,,,,,,,,,,,,,,,,4,9.25,9.75,10.25,10.75,0,0.5,0.25,0.25,1.75,10,initial,36.05,333,351,370,388,0,9,9,9,9,0,,,,,,,1,0,1,0,0,18,18,17,,,,,,,,,,,,num_3,1.5484995000297204,num_3,0.35,0.6,0.3,0.55,11.46165,21.01303,return,9.45309699990321,,,,,,,,,,,,,,,,,906,23,male,left_right_width,2024-10-17_12h44.00.940,exp1,2023.1.0,60.043651717684554,
,,,,,,,,,,,,,,,,3,9.5,10,10.5,0,0,0.5,0.25,0.25,1.25,10,initial,36.05,342,361,379,0,0,9,9,9,0,0,,,,,,,1,0,1,0,0,19,19,27,,,,,,,,,,,,num_3,1.0635631999466568,num_3,0.45,0.8,0.30000000000000004,0.55,11.46165,21.01303,return,5.397899399977177,,,,,,,,,,,,,,,,,906,23,male,left_right_width,2024-10-17_12h44.00.940,exp1,2023.1.0,60.043651717684554,
,,,,,,,,,,,,,,,,5,9,9.5,10,10.5,11,0.5,0.25,0.25,2.25,10,initial,36.05,324,342,361,379,397,9,9,9,9,9,,,,,,,1,0,1,0,0,20,20,45,,,,,,,,,,,,num_5,2.08743139996659,num_5,0.2,0.7,0.3,0.45,11.46165,17.19248,return,8.684800299932249,,,,,,,,,,,,,,,,,906,23,male,left_right_width,2024-10-17_12h44.00.940,exp1,2023.1.0,60.043651717684554,
,,,,,,,,,,,,,,,,5,9,9.5,10,10.5,11,0.5,0.25,0.25,2.25,10,initial,36.05,324,342,361,379,397,9,9,9,9,9,,,,,,,1,0,1,0,0,21,21,47,,,,,,,,,,,,num_5,1.9079707999480888,num_5,0.2,0.6,0.3,0.55,11.46165,21.01303,return,4.1824189000763,,,,,,,,,,,,,,,,,906,23,male,left_right_width,2024-10-17_12h44.00.940,exp1,2023.1.0,60.043651717684554,
,,,,,,,,,,,,,,,,3,9.5,10,10.5,0,0,0.5,0.25,0.25,1.25,10,initial,36.05,342,361,379,0,0,9,9,9,0,0,,,,,,,1,0,1,0,0,22,22,28,,,,,,,,,,,,num_2,1.0199883000459522,num_2,0.35,1.0,0.35,0.6,13.37193,22.9233,return,5.3912361999973655,,,,,,,,,,,,,,,,,906,23,male,left_right_width,2024-10-17_12h44.00.940,exp1,2023.1.0,60.043651717684554,
,,,,,,,,,,,,,,,,4,9.25,9.75,10.25,10.75,0,0.5,0.25,0.25,1.75,10,initial,36.05,333,351,370,388,0,9,9,9,9,0,,,,,,,1,0,1,0,0,23,23,11,,,,,,,,,,,,num_4,1.287408500094898,num_4,0.2,1.2,0.3,0.7,11.46165,26.74385,return,6.816568300011568,,,,,,,,,,,,,,,,,906,23,male,left_right_width,2024-10-17_12h44.00.940,exp1,2023.1.0,60.043651717684554,
,,,,,,,,,,,,,,,,3,9.5,10,10.5,0,0,0.5,0.25,0.25,1.25,10,initial,36.05,342,361,379,0,0,9,9,9,0,0,,,,,,,1,0,1,0,0,24,24,5,,,,,,,,,,,,num_2,1.0683596999151632,num_2,0.35,1.4,0.39999999999999997,0.8,15.2822,30.5644,return,8.54278409993276,,,,,,,,,,,,,,,,,906,23,male,left_right_width,2024-10-17_12h44.00.940,exp1,2023.1.0,60.043651717684554,
,,,,,,,,,,,,,,,,3,9.5,10,10.5,0,0,0.5,0.25,0.25,1.25,10,initial,36.05,342,361,379,0,0,9,9,9,0,0,,,,,,,1,0,1,0,0,25,25,34,,,,,,,,,,,,num_3,1.3309833999956027,num_3,0.45,0.7,0.35000000000000003,0.5,13.37193,19.10275,return,4.96590940002352,,,,,,,,,,,,,,,,,906,23,male,left_right_width,2024-10-17_12h44.00.940,exp1,2023.1.0,60.043651717684554,
,,,,,,,,,,,,,,,,3,9.5,10,10.5,0,0,0.5,0.25,0.25,1.25,10,initial,36.05,342,361,379,0,0,9,9,9,0,0,,,,,,,1,0,1,0,0,26,26,0,,,,,,,,,,,,num_3,1.2339735999703407,num_3,0.35,1,0.3,0.55,11.46165,21.01303,return,5.4534857999533415,,,,,,,,,,,,,,,,,906,23,male,left_right_width,2024-10-17_12h44.00.940,exp1,2023.1.0,60.043651717684554,
,,,,,,,,,,,,,,,,4,9.25,9.75,10.25,10.75,0,0.5,0.25,0.25,1.75,10,initial,36.05,333,351,370,388,0,9,9,9,9,0,,,,,,,1,0,1,0,0,27,27,42,,,,,,,,,,,,num_4,1.0555533999577165,num_4,0.4,0.5,0.35000000000000003,0.6,13.37193,22.9233,return,8.638861900079064,,,,,,,,,,,,,,,,,906,23,male,left_right_width,2024-10-17_12h44.00.940,exp1,2023.1.0,60.043651717684554,
,,,,,,,,,,,,,,,,5,9,9.5,10,10.5,11,0.5,0.25,0.25,2.25,10,initial,36.05,324,342,361,379,397,9,9,9,9,9,,,,,,,1,0,1,0,0,28,28,25,,,,,,,,,,,,num_4,1.0722589999204502,num_4,0.55,1.1,0.25000000000000006,0.8,9.55138,30.5644,return,4.956919600022957,,,,,,,,,,,,,,,,,906,23,male,left_right_width,2024-10-17_12h44.00.940,exp1,2023.1.0,60.043651717684554,
,,,,,,,,,,,,,,,,4,9.25,9.75,10.25,10.75,0,0.5,0.25,0.25,1.75,10,initial,36.05,333,351,370,388,0,9,9,9,9,0,,,,,,,1,0,1,0,0,29,29,36,,,,,,,,,,,,num_4,1.5325746999587864,num_4,0.25,1.2,0.39999999999999997,0.9,15.2822,34.38495,return,4.553294699988328,,,,,,,,,,,,,,,,,906,23,male,left_right_width,2024-10-17_12h44.00.940,exp1,2023.1.0,60.043651717684554,
,,,,,,,,,,,,,,,,4,9.25,9.75,10.25,10.75,0,0.5,0.25,0.25,1.75,10,initial,36.05,333,351,370,388,0,9,9,9,9,0,,,,,,,1,0,1,0,0,30,30,9,,,,,,,,,,,,num_4,1.343027799972333,num_4,0.4,0.6,0.30000000000000004,0.5,11.46165,19.10275,return,5.223182999994606,,,,,,,,,,,,,,,,,906,23,male,left_right_width,2024-10-17_12h44.00.940,exp1,2023.1.0,60.043651717684554,
,,,,,,,,,,,,,,,,4,9.25,9.75,10.25,10.75,0,0.5,0.25,0.25,1.75,10,initial,36.05,333,351,370,388,0,9,9,9,9,0,,,,,,,1,0,1,0,0,31,31,10,,,,,,,,,,,,num_4,1.0637865000171587,num_4,0.2,0.8,0.3,0.5,11.46165,19.10275,return,9.165285299997777,,,,,,,,,,,,,,,,,906,23,male,left_right_width,2024-10-17_12h44.00.940,exp1,2023.1.0,60.043651717684554,
,,,,,,,,,,,,,,,,3,9.5,10,10.5,0,0,0.5,0.25,0.25,1.25,10,initial,36.05,342,361,379,0,0,9,9,9,0,0,,,,,,,1,0,1,0,0,32,32,29,,,,,,,,,,,,num_3,1.0448712999932468,num_3,0.2,0.5,0.39999999999999997,0.55,15.2822,21.01303,return,4.058444099966437,,,,,,,,,,,,,,,,,906,23,male,left_right_width,2024-10-17_12h44.00.940,exp1,2023.1.0,60.043651717684554,
,,,,,,,,,,,,,,,,4,9.25,9.75,10.25,10.75,0,0.5,0.25,0.25,1.75,10,initial,36.05,333,351,370,388,0,9,9,9,9,0,,,,,,,1,0,1,0,0,33,33,12,,,,,,,,,,,,num_3,2.943342400016263,num_3,0.4,0.8,0.25000000000000006,0.6,9.55138,22.9233,return,5.940078599960543,,,,,,,,,,,,,,,,,906,23,male,left_right_width,2024-10-17_12h44.00.940,exp1,2023.1.0,60.043651717684554,
,,,,,,,,,,,,,,,,5,9,9.5,10,10.5,11,0.5,0.25,0.25,2.25,10,initial,36.05,324,342,361,379,397,9,9,9,9,9,,,,,,,1,0,1,0,0,34,34,53,,,,,,,,,,,,num_5,1.1914691000711173,num_5,0.35,0.8,0.3,0.7,11.46165,26.74385,return,6.116382000036538,,,,,,,,,,,,,,,,,906,23,male,left_right_width,2024-10-17_12h44.00.940,exp1,2023.1.0,60.043651717684554,
,,,,,,,,,,,,,,,,4,9.25,9.75,10.25,10.75,0,0.5,0.25,0.25,1.75,10,initial,36.05,333,351,370,388,0,9,9,9,9,0,,,,,,,1,0,1,0,0,35,35,16,,,,,,,,,,,,num_4,1.0347294999519363,num_4,0.3,1.0,0.3,0.8,11.46165,30.5644,return,6.401269800029695,,,,,,,,,,,,,,,,,906,23,male,left_right_width,2024-10-17_12h44.00.940,exp1,2023.1.0,60.043651717684554,
,,,,,,,,,,,,,,,,4,9.25,9.75,10.25,10.75,0,0.5,0.25,0.25,1.75,10,initial,36.05,333,351,370,388,0,9,9,9,9,0,,,,,,,1,0,1,0,0,36,36,15,,,,,,,,,,,,num_4,1.0382194999838248,num_4,0.5,1.3,0.35000000000000003,0.5,13.37193,19.10275,return,7.218859800021164,,,,,,,,,,,,,,,,,906,23,male,left_right_width,2024-10-17_12h44.00.940,exp1,2023.1.0,60.043651717684554,
,,,,,,,,,,,,,,,,3,9.5,10,10.5,0,0,0.5,0.25,0.25,1.25,10,initial,36.05,342,361,379,0,0,9,9,9,0,0,,,,,,,1,0,1,0,0,37,37,7,,,,,,,,,,,,num_2,1.1513697999762371,num_2,0.45,1.6,0.25000000000000006,0.5,9.55138,19.10275,return,5.341072699986398,,,,,,,,,,,,,,,,,906,23,male,left_right_width,2024-10-17_12h44.00.940,exp1,2023.1.0,60.043651717684554,
,,,,,,,,,,,,,,,,4,9.25,9.75,10.25,10.75,0,0.5,0.25,0.25,1.75,10,initial,36.05,333,351,370,388,0,9,9,9,9,0,,,,,,,1,0,1,0,0,38,38,43,,,,,,,,,,,,num_4,1.1658686000155285,num_4,0.35,0.4,0.3,0.5,11.46165,19.10275,return,5.002872599987313,,,,,,,,,,,,,,,,,906,23,male,left_right_width,2024-10-17_12h44.00.940,exp1,2023.1.0,60.043651717684554,
,,,,,,,,,,,,,,,,4,9.25,9.75,10.25,10.75,0,0.5,0.25,0.25,1.75,10,initial,36.05,333,351,370,388,0,9,9,9,9,0,,,,,,,1,0,1,0,0,39,39,14,,,,,,,,,,,,num_4,0.9519872999517247,num_4,0.25,0.3,0.3,0.6,11.46165,22.9233,return,8.169944199966267,,,,,,,,,,,,,,,,,906,23,male,left_right_width,2024-10-17_12h44.00.940,exp1,2023.1.0,60.043651717684554,
,,,,,,,,,,,,,,,,4,9.25,9.75,10.25,10.75,0,0.5,0.25,0.25,1.75,10,initial,36.05,333,351,370,388,0,9,9,9,9,0,,,,,,,1,0,1,0,0,40,40,39,,,,,,,,,,,,num_3,1.6769395000301301,num_3,0.45,0.5,0.30000000000000004,0.55,11.46165,21.01303,return,9.251583299948834,,,,,,,,,,,,,,,,,906,23,male,left_right_width,2024-10-17_12h44.00.940,exp1,2023.1.0,60.043651717684554,
,,,,,,,,,,,,,,,,5,9,9.5,10,10.5,11,0.5,0.25,0.25,2.25,10,initial,36.05,324,342,361,379,397,9,9,9,9,9,,,,,,,1,0,1,0,0,41,41,52,,,,,,,,,,,,num_4,2.1184498000657186,num_4,0.35,1.1,0.3,0.7,11.46165,26.74385,return,4.8165689000161365,,,,,,,,,,,,,,,,,906,23,male,left_right_width,2024-10-17_12h44.00.940,exp1,2023.1.0,60.043651717684554,
,,,,,,,,,,,,,,,,5,9,9.5,10,10.5,11,0.5,0.25,0.25,2.25,10,initial,36.05,324,342,361,379,397,9,9,9,9,9,,,,,,,1,0,1,0,0,42,42,19,,,,,,,,,,,,num_4,1.3478933000005782,num_4,0.3,1.2,0.35,0.9,13.37193,34.38495,return,5.075674299965613,,,,,,,,,,,,,,,,,906,23,male,left_right_width,2024-10-17_12h44.00.940,exp1,2023.1.0,60.043651717684554,
,,,,,,,,,,,,,,,,3,9.5,10,10.5,0,0,0.5,0.25,0.25,1.25,10,initial,36.05,342,361,379,0,0,9,9,9,0,0,,,,,,,1,0,1,0,0,43,43,1,,,,,,,,,,,,num_3,1.3704801000421867,num_3,0.5,0.7,0.35000000000000003,0.6,13.37193,22.9233,return,12.2107388000004,,,,,,,,,,,,,,,,,906,23,male,left_right_width,2024-10-17_12h44.00.940,exp1,2023.1.0,60.043651717684554,
,,,,,,,,,,,,,,,,5,9,9.5,10,10.5,11,0.5,0.25,0.25,2.25,10,initial,36.05,324,342,361,379,397,9,9,9,9,9,,,,,,,1,0,1,0,0,44,44,49,,,,,,,,,,,,num_5,1.40419849997852,num_5,0.2,0.3,0.44999999999999996,0.65,17.19248,24.83358,return,6.875532899983227,,,,,,,,,,,,,,,,,906,23,male,left_right_width,2024-10-17_12h44.00.940,exp1,2023.1.0,60.043651717684554,
,,,,,,,,,,,,,,,,5,9,9.5,10,10.5,11,0.5,0.25,0.25,2.25,10,initial,36.05,324,342,361,379,397,9,9,9,9,9,,,,,,,1,0,1,0,0,45,45,21,,,,,,,,,,,,num_5,1.3821759999264032,num_5,0.35,1.0,0.3,0.9,11.46165,34.38495,return,3.2772814000491053,,,,,,,,,,,,,,,,,906,23,male,left_right_width,2024-10-17_12h44.00.940,exp1,2023.1.0,60.043651717684554,
,,,,,,,,,,,,,,,,5,9,9.5,10,10.5,11,0.5,0.25,0.25,2.25,10,initial,36.05,324,342,361,379,397,9,9,9,9,9,,,,,,,1,0,1,0,0,46,46,18,,,,,,,,,,,,num_4,1.3888452000683174,num_4,0.35,0.7,0.3,0.8,11.46165,30.5644,return,4.0789298000745475,,,,,,,,,,,,,,,,,906,23,male,left_right_width,2024-10-17_12h44.00.940,exp1,2023.1.0,60.043651717684554,
,,,,,,,,,,,,,,,,5,9,9.5,10,10.5,11,0.5,0.25,0.25,2.25,10,initial,36.05,324,342,361,379,397,9,9,9,9,9,,,,,,,1,0,1,0,0,47,47,20,,,,,,,,,,,,num_4,1.160226700012572,num_4,0.25,1.2,0.35,1.0,13.37193,38.2055,return,3.730667000054382,,,,,,,,,,,,,,,,,906,23,male,left_right_width,2024-10-17_12h44.00.940,exp1,2023.1.0,60.043651717684554,
,,,,,,,,,,,,,,,,5,9,9.5,10,10.5,11,0.5,0.25,0.25,2.25,10,initial,36.05,324,342,361,379,397,9,9,9,9,9,,,,,,,1,0,1,0,0,48,48,22,,,,,,,,,,,,num_4,1.6218444999540225,num_4,0.4,0.5,0.4,0.6,15.2822,22.9233,return,8.355464600026608,,,,,,,,,,,,,,,,,906,23,male,left_right_width,2024-10-17_12h44.00.940,exp1,2023.1.0,60.043651717684554,
,,,,,,,,,,,,,,,,4,9.25,9.75,10.25,10.75,0,0.5,0.25,0.25,1.75,10,initial,36.05,333,351,370,388,0,9,9,9,9,0,,,,,,,1,0,1,0,0,49,49,41,,,,,,,,,,,,num_3,1.3787320998962969,num_3,0.3,1.2,0.25,0.45,9.55138,17.19248,return,6.374859199975617,,,,,,,,,,,,,,,,,906,23,male,left_right_width,2024-10-17_12h44.00.940,exp1,2023.1.0,60.043651717684554,
,,,,,,,,,,,,,,,,5,9,9.5,10,10.5,11,0.5,0.25,0.25,2.25,10,initial,36.05,324,342,361,379,397,9,9,9,9,9,,,,,,,1,0,1,0,0,50,50,51,,,,,,,,,,,,num_4,1.301356100011617,num_4,0.5,1.3,0.35000000000000003,0.5,13.37193,19.10275,return,4.81181350001134,,,,,,,,,,,,,,,,,906,23,male,left_right_width,2024-10-17_12h44.00.940,exp1,2023.1.0,60.043651717684554,
,,,,,,,,,,,,,,,,4,9.25,9.75,10.25,10.75,0,0.5,0.25,0.25,1.75,10,initial,36.05,333,351,370,388,0,9,9,9,9,0,,,,,,,1,0,1,0,0,51,51,40,,,,,,,,,,,,num_3,1.0081385999219492,num_3,0.55,1,0.35000000000000003,0.6,13.37193,22.9233,return,7.152598800021224,,,,,,,,,,,,,,,,,906,23,male,left_right_width,2024-10-17_12h44.00.940,exp1,2023.1.0,60.043651717684554,
,,,,,,,,,,,,,,,,4,9.25,9.75,10.25,10.75,0,0.5,0.25,0.25,1.75,10,initial,36.05,333,351,370,388,0,9,9,9,9,0,,,,,,,1,0,1,0,0,52,52,38,,,,,,,,,,,,num_3,1.2332877999870107,num_3,0.55,0.6,0.25000000000000006,0.6,9.55138,22.9233,return,5.327478800085373,,,,,,,,,,,,,,,,,906,23,male,left_right_width,2024-10-17_12h44.00.940,exp1,2023.1.0,60.043651717684554,
,,,,,,,,,,,,,,,,3,9.5,10,10.5,0,0,0.5,0.25,0.25,1.25,10,initial,36.05,342,361,379,0,0,9,9,9,0,0,,,,,,,1,0,1,0,0,53,53,31,,,,,,,,,,,,num_2,0.898022299981676,num_2,0.2,1.2,0.35,0.9,13.37193,34.38495,return,3.8845660999650136,,,,,,,,,,,,,,,,,906,23,male,left_right_width,2024-10-17_12h44.00.940,exp1,2023.1.0,60.043651717684554,
,,,,,,,,,,,,,,,,,,,,,,,,,,,,,,,,,,,,,,,,,,,,,1,0,1,0,,,,,,,,,,,,,,,,,,,,,,,,,,,,,1642.255667499965,1642.255667499965,1642.255667499965,,,,,,,,,,,,906,23,male,left_right_width,2024-10-17_12h44.00.940,exp1,2023.1.0,60.043651717684554,
,,,,,,,,,,,,,,,,3,9.5,10,10.5,0,0,0.5,0.1,0.4,1.4000000000000001,10,initial,36.05,342,361,379,0,0,9,9,9,0,0,,,,,,,2,0,2,0,0,0,0,32,,,,,,,,,,,,num_2,1.0257208000402898,num_2,0.3,1.6,0.6,0.8,22.9233,30.5644,return,6.275554700056091,,,,,,,,,,,,,,,,,906,23,male,left_right_width,2024-10-17_12h44.00.940,exp1,2023.1.0,60.043651717684554,
,,,,,,,,,,,,,,,,4,9.25,9.75,10.25,10.75,0,0.5,0.1,0.4,1.9000000000000001,10,initial,36.05,333,351,370,388,0,9,9,9,9,0,,,,,,,2,0,2,0,0,1,1,44,,,,,,,,,,,,num_3,1.0977810999611393,num_3,0.45,1.3,0.45,0.55,17.19248,21.01303,return,5.189505900023505,,,,,,,,,,,,,,,,,906,23,male,left_right_width,2024-10-17_12h44.00.940,exp1,2023.1.0,60.043651717684554,
,,,,,,,,,,,,,,,,5,9,9.5,10,10.5,11,0.5,0.1,0.4,2.4,10,initial,36.05,324,342,361,379,397,9,9,9,9,9,,,,,,,2,0,2,0,0,2,2,46,,,,,,,,,,,,num_4,0.9230596000561491,num_4,0.2,1.1,0.49999999999999994,0.7,19.10275,26.74385,return,4.749991600052454,,,,,,,,,,,,,,,,,906,23,male,left_right_width,2024-10-17_12h44.00.940,exp1,2023.1.0,60.043651717684554,
,,,,,,,,,,,,,,,,4,9.25,9.75,10.25,10.75,0,0.5,0.1,0.4,1.9000000000000001,10,initial,36.05,333,351,370,388,0,9,9,9,9,0,,,,,,,2,0,2,0,0,3,3,42,,,,,,,,,,,,num_3,0.9634499000385404,num_3,0.5,1.2,0.45,0.6,17.19248,22.9233,return,4.677199300029315,,,,,,,,,,,,,,,,,906,23,male,left_right_width,2024-10-17_12h44.00.940,exp1,2023.1.0,60.043651717684554,
,,,,,,,,,,,,,,,,4,9.25,9.75,10.25,10.75,0,0.5,0.1,0.4,1.9000000000000001,10,initial,36.05,333,351,370,388,0,9,9,9,9,0,,,,,,,2,0,2,0,0,4,4,16,,,,,,,,,,,,num_3,1.0257574000861496,num_3,0.35,0.8,0.49999999999999994,0.65,19.10275,24.83358,return,5.252212100080214,,,,,,,,,,,,,,,,,906,23,male,left_right_width,2024-10-17_12h44.00.940,exp1,2023.1.0,60.043651717684554,
,,,,,,,,,,,,,,,,5,9,9.5,10,10.5,11,0.5,0.1,0.4,2.4,10,initial,36.05,324,342,361,379,397,9,9,9,9,9,,,,,,,2,0,2,0,0,5,5,45,,,,,,,,,,,,num_4,1.0326214000815526,num_4,0.2,0.5,0.44999999999999996,0.6,17.19248,22.9233,return,12.95735300006345,,,,,,,,,,,,,,,,,906,23,male,left_right_width,2024-10-17_12h44.00.940,exp1,2023.1.0,60.043651717684554,
,,,,,,,,,,,,,,,,3,9.5,10,10.5,0,0,0.5,0.1,0.4,1.4000000000000001,10,initial,36.05,342,361,379,0,0,9,9,9,0,0,,,,,,,2,0,2,0,0,6,6,3,,,,,,,,,,,,num_2,0.87943259999156,num_2,0.5,0.8,0.5,0.6,19.10275,22.9233,return,3.210155999986455,,,,,,,,,,,,,,,,,906,23,male,left_right_width,2024-10-17_12h44.00.940,exp1,2023.1.0,60.043651717684554,
,,,,,,,,,,,,,,,,3,9.5,10,10.5,0,0,0.5,0.1,0.4,1.4000000000000001,10,initial,36.05,342,361,379,0,0,9,9,9,0,0,,,,,,,2,0,2,0,0,7,7,1,,,,,,,,,,,,num_2,0.9777217999799177,num_2,0.3,1.0,0.49999999999999994,0.6,19.10275,22.9233,return,4.6612249000463635,,,,,,,,,,,,,,,,,906,23,male,left_right_width,2024-10-17_12h44.00.940,exp1,2023.1.0,60.043651717684554,
,,,,,,,,,,,,,,,,4,9.25,9.75,10.25,10.75,0,0.5,0.1,0.4,1.9000000000000001,10,initial,36.05,333,351,370,388,0,9,9,9,9,0,,,,,,,2,0,2,0,0,8,8,12,,,,,,,,,,,,num_3,1.266295799985528,num_3,0.4,0.7,0.5,0.6,19.10275,22.9233,return,3.264117700047791,,,,,,,,,,,,,,,,,906,23,male,left_right_width,2024-10-17_12h44.00.940,exp1,2023.1.0,60.043651717684554,
,,,,,,,,,,,,,,,,3,9.5,10,10.5,0,0,0.5,0.1,0.4,1.4000000000000001,10,initial,36.05,342,361,379,0,0,9,9,9,0,0,,,,,,,2,0,2,0,0,9,9,29,,,,,,,,,,,,num_2,1.1236881000222638,num_2,0.5,1.0,0.45,0.6,17.19248,22.9233,return,5.521737999981269,,,,,,,,,,,,,,,,,906,23,male,left_right_width,2024-10-17_12h44.00.940,exp1,2023.1.0,60.043651717684554,
,,,,,,,,,,,,,,,,5,9,9.5,10,10.5,11,0.5,0.1,0.4,2.4,10,initial,36.05,324,342,361,379,397,9,9,9,9,9,,,,,,,2,0,2,0,0,10,10,19,,,,,,,,,,,,num_4,1.0012488000793383,num_4,0.45,0.9,0.5,0.6,19.10275,22.9233,return,6.172775799990632,,,,,,,,,,,,,,,,,906,23,male,left_right_width,2024-10-17_12h44.00.940,exp1,2023.1.0,60.043651717684554,
,,,,,,,,,,,,,,,,3,9.5,10,10.5,0,0,0.5,0.1,0.4,1.4000000000000001,10,initial,36.05,342,361,379,0,0,9,9,9,0,0,,,,,,,2,0,2,0,0,11,11,35,,,,,,,,,,,,num_2,0.8121961000142619,num_2,0.45,1.2,0.5,0.6,19.10275,22.9233,return,3.738686199998483,,,,,,,,,,,,,,,,,906,23,male,left_right_width,2024-10-17_12h44.00.940,exp1,2023.1.0,60.043651717684554,
,,,,,,,,,,,,,,,,5,9,9.5,10,10.5,11,0.5,0.1,0.4,2.4,10,initial,36.05,324,342,361,379,397,9,9,9,9,9,,,,,,,2,0,2,0,0,12,12,20,,,,,,,,,,,,num_4,1.0904957000166178,num_4,0.35,0.6,0.49999999999999994,0.6,19.10275,22.9233,return,3.5215113000012934,,,,,,,,,,,,,,,,,906,23,male,left_right_width,2024-10-17_12h44.00.940,exp1,2023.1.0,60.043651717684554,
,,,,,,,,,,,,,,,,5,9,9.5,10,10.5,11,0.5,0.1,0.4,2.4,10,initial,36.05,324,342,361,379,397,9,9,9,9,9,,,,,,,2,0,2,0,0,13,13,22,,,,,,,,,,,,num_4,1.2215669000288472,num_4,0.3,0.9,0.6,0.7,22.9233,26.74385,return,6.127008900046349,,,,,,,,,,,,,,,,,906,23,male,left_right_width,2024-10-17_12h44.00.940,exp1,2023.1.0,60.043651717684554,
,,,,,,,,,,,,,,,,4,9.25,9.75,10.25,10.75,0,0.5,0.1,0.4,1.9000000000000001,10,initial,36.05,333,351,370,388,0,9,9,9,9,0,,,,,,,2,0,2,0,0,14,14,41,,,,,,,,,,,,num_3,1.4622592999367043,num_3,0.5,0.6,0.55,0.65,21.01303,24.83358,return,4.747022500028834,,,,,,,,,,,,,,,,,906,23,male,left_right_width,2024-10-17_12h44.00.940,exp1,2023.1.0,60.043651717684554,
,,,,,,,,,,,,,,,,4,9.25,9.75,10.25,10.75,0,0.5,0.1,0.4,1.9000000000000001,10,initial,36.05,333,351,370,388,0,9,9,9,9,0,,,,,,,2,0,2,0,0,15,15,11,,,,,,,,,,,,num_3,2.106636399985291,num_3,0.25,1.3,0.5499999999999999,0.75,21.01303,28.65413,return,7.604537199949846,,,,,,,,,,,,,,,,,906,23,male,left_right_width,2024-10-17_12h44.00.940,exp1,2023.1.0,60.043651717684554,
,,,,,,,,,,,,,,,,4,9.25,9.75,10.25,10.75,0,0.5,0.1,0.4,1.9000000000000001,10,initial,36.05,333,351,370,388,0,9,9,9,9,0,,,,,,,2,0,2,0,0,16,16,10,,,,,,,,,,,,num_3,1.031578200054355,num_3,0.25,1,0.5499999999999999,0.65,21.01303,24.83358,return,5.112965100095607,,,,,,,,,,,,,,,,,906,23,male,left_right_width,2024-10-17_12h44.00.940,exp1,2023.1.0,60.043651717684554,
,,,,,,,,,,,,,,,,3,9.5,10,10.5,0,0,0.5,0.1,0.4,1.4000000000000001,10,initial,36.05,342,361,379,0,0,9,9,9,0,0,,,,,,,2,0,2,0,0,17,17,6,,,,,,,,,,,,num_2,1.0101896000560373,num_2,0.5,0.6,0.5,0.6,19.10275,22.9233,return,2.33930530003272,,,,,,,,,,,,,,,,,906,23,male,left_right_width,2024-10-17_12h44.00.940,exp1,2023.1.0,60.043651717684554,
,,,,,,,,,,,,,,,,5,9,9.5,10,10.5,11,0.5,0.1,0.4,2.4,10,initial,36.05,324,342,361,379,397,9,9,9,9,9,,,,,,,2,0,2,0,0,18,18,50,,,,,,,,,,,,num_4,1.4851004000520334,num_4,0.4,1.3,0.6000000000000001,0.7,22.9233,26.74385,return,15.422430800041184,,,,,,,,,,,,,,,,,906,23,male,left_right_width,2024-10-17_12h44.00.940,exp1,2023.1.0,60.043651717684554,
,,,,,,,,,,,,,,,,5,9,9.5,10,10.5,11,0.5,0.1,0.4,2.4,10,initial,36.05,324,342,361,379,397,9,9,9,9,9,,,,,,,2,0,2,0,0,19,19,25,,,,,,,,,,,,num_5,2.036161500029266,num_5,0.35,0.7,0.49999999999999994,0.6,19.10275,22.9233,return,3.823022799915634,,,,,,,,,,,,,,,,,906,23,male,left_right_width,2024-10-17_12h44.00.940,exp1,2023.1.0,60.043651717684554,
,,,,,,,,,,,,,,,,3,9.5,10,10.5,0,0,0.5,0.1,0.4,1.4000000000000001,10,initial,36.05,342,361,379,0,0,9,9,9,0,0,,,,,,,2,0,2,0,0,20,20,5,,,,,,,,,,,,num_2,0.8748280999716371,num_2,0.45,1.6,0.55,0.7,21.01303,26.74385,return,6.001647499972023,,,,,,,,,,,,,,,,,906,23,male,left_right_width,2024-10-17_12h44.00.940,exp1,2023.1.0,60.043651717684554,
,,,,,,,,,,,,,,,,4,9.25,9.75,10.25,10.75,0,0.5,0.1,0.4,1.9000000000000001,10,initial,36.05,333,351,370,388,0,9,9,9,9,0,,,,,,,2,0,2,0,0,21,21,15,,,,,,,,,,,,num_3,1.255465800059028,num_3,0.5,0.7,0.55,0.65,21.01303,24.83358,return,7.570802600006573,,,,,,,,,,,,,,,,,906,23,male,left_right_width,2024-10-17_12h44.00.940,exp1,2023.1.0,60.043651717684554,
,,,,,,,,,,,,,,,,3,9.5,10,10.5,0,0,0.5,0.1,0.4,1.4000000000000001,10,initial,36.05,342,361,379,0,0,9,9,9,0,0,,,,,,,2,0,2,0,0,22,22,28,,,,,,,,,,,,num_2,0.8974048999371007,num_2,0.25,0.4,0.5499999999999999,0.7,21.01303,26.74385,return,8.696544400067069,,,,,,,,,,,,,,,,,906,23,male,left_right_width,2024-10-17_12h44.00.940,exp1,2023.1.0,60.043651717684554,
,,,,,,,,,,,,,,,,5,9,9.5,10,10.5,11,0.5,0.1,0.4,2.4,10,initial,36.05,324,342,361,379,397,9,9,9,9,9,,,,,,,2,0,2,0,0,23,23,26,,,,,,,,,,,,num_4,1.0425923999864608,num_4,0.35,1.3,0.6,0.8,22.9233,30.5644,return,8.227712000021711,,,,,,,,,,,,,,,,,906,23,male,left_right_width,2024-10-17_12h44.00.940,exp1,2023.1.0,60.043651717684554,
,,,,,,,,,,,,,,,,4,9.25,9.75,10.25,10.75,0,0.5,0.1,0.4,1.9000000000000001,10,initial,36.05,333,351,370,388,0,9,9,9,9,0,,,,,,,2,0,2,0,0,24,24,36,,,,,,,,,,,,num_3,1.6754585000453517,num_3,0.4,1.3,0.45,0.55,17.19248,21.01303,return,8.371531300013885,,,,,,,,,,,,,,,,,906,23,male,left_right_width,2024-10-17_12h44.00.940,exp1,2023.1.0,60.043651717684554,
,,,,,,,,,,,,,,,,4,9.25,9.75,10.25,10.75,0,0.5,0.1,0.4,1.9000000000000001,10,initial,36.05,333,351,370,388,0,9,9,9,9,0,,,,,,,2,0,2,0,0,25,25,14,,,,,,,,,,,,num_3,1.392087500076741,num_3,0.25,0.7,0.44999999999999996,0.55,17.19248,21.01303,return,4.483167200000025,,,,,,,,,,,,,,,,,906,23,male,left_right_width,2024-10-17_12h44.00.940,exp1,2023.1.0,60.043651717684554,
,,,,,,,,,,,,,,,,4,9.25,9.75,10.25,10.75,0,0.5,0.1,0.4,1.9000000000000001,10,initial,36.05,333,351,370,388,0,9,9,9,9,0,,,,,,,2,0,2,0,0,26,26,39,,,,,,,,,,,,num_3,1.30127029994037,num_3,0.5,1.1,0.45,0.55,17.19248,21.01303,return,6.367635200032964,,,,,,,,,,,,,,,,,906,23,male,left_right_width,2024-10-17_12h44.00.940,exp1,2023.1.0,60.043651717684554,
,,,,,,,,,,,,,,,,5,9,9.5,10,10.5,11,0.5,0.1,0.4,2.4,10,initial,36.05,324,342,361,379,397,9,9,9,9,9,,,,,,,2,0,2,0,0,27,27,49,,,,,,,,,,,,num_4,1.2789669000776485,num_4,0.25,1.2,0.5499999999999999,0.7,21.01303,26.74385,return,5.1912080000620335,,,,,,,,,,,,,,,,,906,23,male,left_right_width,2024-10-17_12h44.00.940,exp1,2023.1.0,60.043651717684554,
,,,,,,,,,,,,,,,,5,9,9.5,10,10.5,11,0.5,0.1,0.4,2.4,10,initial,36.05,324,342,361,379,397,9,9,9,9,9,,,,,,,2,0,2,0,0,28,28,18,,,,,,,,,,,,num_4,1.2406445000087842,num_4,0.3,0.4,0.39999999999999997,0.5,15.2822,19.10275,return,15.264884500065818,,,,,,,,,,,,,,,,,906,23,male,left_right_width,2024-10-17_12h44.00.940,exp1,2023.1.0,60.043651717684554,
,,,,,,,,,,,,,,,,4,9.25,9.75,10.25,10.75,0,0.5,0.1,0.4,1.9000000000000001,10,initial,36.05,333,351,370,388,0,9,9,9,9,0,,,,,,,2,0,2,0,0,29,29,17,,,,,,,,,,,,num_3,1.2413309999974445,num_3,0.4,1.1,0.4,0.55,15.2822,21.01303,return,5.219193400000222,,,,,,,,,,,,,,,,,906,23,male,left_right_width,2024-10-17_12h44.00.940,exp1,2023.1.0,60.043651717684554,
,,,,,,,,,,,,,,,,4,9.25,9.75,10.25,10.75,0,0.5,0.1,0.4,1.9000000000000001,10,initial,36.05,333,351,370,388,0,9,9,9,9,0,,,,,,,2,0,2,0,0,30,30,40,,,,,,,,,,,,num_3,1.0683363999705762,num_3,0.25,0.6,0.49999999999999994,0.55,19.10275,21.01303,return,5.311097100027837,,,,,,,,,,,,,,,,,906,23,male,left_right_width,2024-10-17_12h44.00.940,exp1,2023.1.0,60.043651717684554,
,,,,,,,,,,,,,,,,3,9.5,10,10.5,0,0,0.5,0.1,0.4,1.4000000000000001,10,initial,36.05,342,361,379,0,0,9,9,9,0,0,,,,,,,2,0,2,0,0,31,31,27,,,,,,,,,,,,num_2,0.9101204000180587,num_2,0.2,1.0,0.65,0.7,24.83358,26.74385,return,4.402195899980143,,,,,,,,,,,,,,,,,906,23,male,left_right_width,2024-10-17_12h44.00.940,exp1,2023.1.0,60.043651717684554,
,,,,,,,,,,,,,,,,3,9.5,10,10.5,0,0,0.5,0.1,0.4,1.4000000000000001,10,initial,36.05,342,361,379,0,0,9,9,9,0,0,,,,,,,2,0,2,0,0,32,32,4,,,,,,,,,,,,num_2,1.0095989999826998,num_2,0.4,1.0,0.5,0.7,19.10275,26.74385,return,4.691783300018869,,,,,,,,,,,,,,,,,906,23,male,left_right_width,2024-10-17_12h44.00.940,exp1,2023.1.0,60.043651717684554,
,,,,,,,,,,,,,,,,4,9.25,9.75,10.25,10.75,0,0.5,0.1,0.4,1.9000000000000001,10,initial,36.05,333,351,370,388,0,9,9,9,9,0,,,,,,,2,0,2,0,0,33,33,37,,,,,,,,,,,,num_4,1.205364500056021,num_4,0.55,1.1,0.6500000000000001,0.7,24.83358,26.74385,return,6.575790800037794,,,,,,,,,,,,,,,,,906,23,male,left_right_width,2024-10-17_12h44.00.940,exp1,2023.1.0,60.043651717684554,
,,,,,,,,,,,,,,,,3,9.5,10,10.5,0,0,0.5,0.1,0.4,1.4000000000000001,10,initial,36.05,342,361,379,0,0,9,9,9,0,0,,,,,,,2,0,2,0,0,34,34,34,,,,,,,,,,,,num_2,1.1662440000800416,num_2,0.45,1.4,0.5,0.6,19.10275,22.9233,return,6.458689299994148,,,,,,,,,,,,,,,,,906,23,male,left_right_width,2024-10-17_12h44.00.940,exp1,2023.1.0,60.043651717684554,
,,,,,,,,,,,,,,,,5,9,9.5,10,10.5,11,0.5,0.1,0.4,2.4,10,initial,36.05,324,342,361,379,397,9,9,9,9,9,,,,,,,2,0,2,0,0,35,35,24,,,,,,,,,,,,num_4,1.357149500050582,num_4,0.2,0.8,0.44999999999999996,0.6,17.19248,22.9233,return,8.78445570007898,,,,,,,,,,,,,,,,,906,23,male,left_right_width,2024-10-17_12h44.00.940,exp1,2023.1.0,60.043651717684554,
,,,,,,,,,,,,,,,,3,9.5,10,10.5,0,0,0.5,0.1,0.4,1.4000000000000001,10,initial,36.05,342,361,379,0,0,9,9,9,0,0,,,,,,,2,0,2,0,0,36,36,2,,,,,,,,,,,,num_2,1.14374129998032,num_2,0.2,0.4,0.7000000000000001,0.8,26.74385,30.5644,return,14.097681100014597,,,,,,,,,,,,,,,,,906,23,male,left_right_width,2024-10-17_12h44.00.940,exp1,2023.1.0,60.043651717684554,
,,,,,,,,,,,,,,,,3,9.5,10,10.5,0,0,0.5,0.1,0.4,1.4000000000000001,10,initial,36.05,342,361,379,0,0,9,9,9,0,0,,,,,,,2,0,2,0,0,37,37,33,,,,,,,,,,,,num_2,1.005047500017099,num_2,0.4,0.8,0.5,0.7,19.10275,26.74385,return,12.942171199945733,,,,,,,,,,,,,,,,,906,23,male,left_right_width,2024-10-17_12h44.00.940,exp1,2023.1.0,60.043651717684554,
,,,,,,,,,,,,,,,,3,9.5,10,10.5,0,0,0.5,0.1,0.4,1.4000000000000001,10,initial,36.05,342,361,379,0,0,9,9,9,0,0,,,,,,,2,0,2,0,0,38,38,31,,,,,,,,,,,,num_2,0.9181805000407621,num_2,0.35,0.8,0.39999999999999997,0.6,15.2822,22.9233,return,5.27744029997848,,,,,,,,,,,,,,,,,906,23,male,left_right_width,2024-10-17_12h44.00.940,exp1,2023.1.0,60.043651717684554,
,,,,,,,,,,,,,,,,5,9,9.5,10,10.5,11,0.5,0.1,0.4,2.4,10,initial,36.05,324,342,361,379,397,9,9,9,9,9,,,,,,,2,0,2,0,0,39,39,48,,,,,,,,,,,,num_4,1.0829354000743479,num_4,0.3,0.9,0.49999999999999994,0.6,19.10275,22.9233,return,3.387799800024368,,,,,,,,,,,,,,,,,906,23,male,left_right_width,2024-10-17_12h44.00.940,exp1,2023.1.0,60.043651717684554,
,,,,,,,,,,,,,,,,4,9.25,9.75,10.25,10.75,0,0.5,0.1,0.4,1.9000000000000001,10,initial,36.05,333,351,370,388,0,9,9,9,9,0,,,,,,,2,0,2,0,0,40,40,38,,,,,,,,,,,,num_4,2.478751099901274,num_4,0.2,0.5,0.39999999999999997,0.6,15.2822,22.9233,return,5.479283400112763,,,,,,,,,,,,,,,,,906,23,male,left_right_width,2024-10-17_12h44.00.940,exp1,2023.1.0,60.043651717684554,
,,,,,,,,,,,,,,,,4,9.25,9.75,10.25,10.75,0,0.5,0.1,0.4,1.9000000000000001,10,initial,36.05,333,351,370,388,0,9,9,9,9,0,,,,,,,2,0,2,0,0,41,41,13,,,,,,,,,,,,num_3,1.106086799991317,num_3,0.3,0.5,0.49999999999999994,0.6,19.10275,22.9233,return,4.671551399980672,,,,,,,,,,,,,,,,,906,23,male,left_right_width,2024-10-17_12h44.00.940,exp1,2023.1.0,60.043651717684554,
,,,,,,,,,,,,,,,,5,9,9.5,10,10.5,11,0.5,0.1,0.4,2.4,10,initial,36.05,324,342,361,379,397,9,9,9,9,9,,,,,,,2,0,2,0,0,42,42,23,,,,,,,,,,,,num_4,0.9184966000029817,num_4,0.3,0.9,0.6,0.7,22.9233,26.74385,return,4.172980300034396,,,,,,,,,,,,,,,,,906,23,male,left_right_width,2024-10-17_12h44.00.940,exp1,2023.1.0,60.043651717684554,
,,,,,,,,,,,,,,,,5,9,9.5,10,10.5,11,0.5,0.1,0.4,2.4,10,initial,36.05,324,342,361,379,397,9,9,9,9,9,,,,,,,2,0,2,0,0,43,43,52,,,,,,,,,,,,num_4,1.1275726000312716,num_4,0.3,0.6,0.6,0.7,22.9233,26.74385,return,4.0251930999802426,,,,,,,,,,,,,,,,,906,23,male,left_right_width,2024-10-17_12h44.00.940,exp1,2023.1.0,60.043651717684554,
,,,,,,,,,,,,,,,,4,9.25,9.75,10.25,10.75,0,0.5,0.1,0.4,1.9000000000000001,10,initial,36.05,333,351,370,388,0,9,9,9,9,0,,,,,,,2,0,2,0,0,44,44,43,,,,,,,,,,,,num_3,0.9526412000413984,num_3,0.2,0.8,0.5499999999999999,0.65,21.01303,24.83358,return,5.153292900067754,,,,,,,,,,,,,,,,,906,23,male,left_right_width,2024-10-17_12h44.00.940,exp1,2023.1.0,60.043651717684554,
,,,,,,,,,,,,,,,,5,9,9.5,10,10.5,11,0.5,0.1,0.4,2.4,10,initial,36.05,324,342,361,379,397,9,9,9,9,9,,,,,,,2,0,2,0,0,45,45,47,,,,,,,,,,,,num_5,1.3492810000898317,num_5,0.5,0.6,0.55,0.65,21.01303,24.83358,return,4.154419199912809,,,,,,,,,,,,,,,,,906,23,male,left_right_width,2024-10-17_12h44.00.940,exp1,2023.1.0,60.043651717684554,
,,,,,,,,,,,,,,,,5,9,9.5,10,10.5,11,0.5,0.1,0.4,2.4,10,initial,36.05,324,342,361,379,397,9,9,9,9,9,,,,,,,2,0,2,0,0,46,46,51,,,,,,,,,,,,num_5,1.2979250999633223,num_5,0.35,0.4,0.49999999999999994,0.55,19.10275,21.01303,return,5.499413300072774,,,,,,,,,,,,,,,,,906,23,male,left_right_width,2024-10-17_12h44.00.940,exp1,2023.1.0,60.043651717684554,
,,,,,,,,,,,,,,,,5,9,9.5,10,10.5,11,0.5,0.1,0.4,2.4,10,initial,36.05,324,342,361,379,397,9,9,9,9,9,,,,,,,2,0,2,0,0,47,47,53,,,,,,,,,,,,num_4,1.1659918000223115,num_4,0.5,0.9,0.5,0.6,19.10275,22.9233,return,5.672015000018291,,,,,,,,,,,,,,,,,906,23,male,left_right_width,2024-10-17_12h44.00.940,exp1,2023.1.0,60.043651717684554,
,,,,,,,,,,,,,,,,4,9.25,9.75,10.25,10.75,0,0.5,0.1,0.4,1.9000000000000001,10,initial,36.05,333,351,370,388,0,9,9,9,9,0,,,,,,,2,0,2,0,0,48,48,9,,,,,,,,,,,,num_3,1.0925331000471488,num_3,0.2,0.4,0.49999999999999994,0.55,19.10275,21.01303,return,4.995287899975665,,,,,,,,,,,,,,,,,906,23,male,left_right_width,2024-10-17_12h44.00.940,exp1,2023.1.0,60.043651717684554,
,,,,,,,,,,,,,,,,3,9.5,10,10.5,0,0,0.5,0.1,0.4,1.4000000000000001,10,initial,36.05,342,361,379,0,0,9,9,9,0,0,,,,,,,2,0,2,0,0,49,49,8,,,,,,,,,,,,num_2,1.0596530999755487,num_2,0.3,1.0,0.5499999999999999,0.7,21.01303,26.74385,return,6.3675943000707775,,,,,,,,,,,,,,,,,906,23,male,left_right_width,2024-10-17_12h44.00.940,exp1,2023.1.0,60.043651717684554,
,,,,,,,,,,,,,,,,3,9.5,10,10.5,0,0,0.5,0.1,0.4,1.4000000000000001,10,initial,36.05,342,361,379,0,0,9,9,9,0,0,,,,,,,2,0,2,0,0,50,50,0,,,,,,,,,,,,num_2,1.06779010000173,num_2,0.25,1.2,0.6,0.9,22.9233,34.38495,return,9.096170100034215,,,,,,,,,,,,,,,,,906,23,male,left_right_width,2024-10-17_12h44.00.940,exp1,2023.1.0,60.043651717684554,
,,,,,,,,,,,,,,,,5,9,9.5,10,10.5,11,0.5,0.1,0.4,2.4,10,initial,36.05,324,342,361,379,397,9,9,9,9,9,,,,,,,2,0,2,0,0,51,51,21,,,,,,,,,,,,num_4,1.2775679000187665,num_4,0.45,1.2,0.4,0.6,15.2822,22.9233,return,7.128417000058107,,,,,,,,,,,,,,,,,906,23,male,left_right_width,2024-10-17_12h44.00.940,exp1,2023.1.0,60.043651717684554,
,,,,,,,,,,,,,,,,3,9.5,10,10.5,0,0,0.5,0.1,0.4,1.4000000000000001,10,initial,36.05,342,361,379,0,0,9,9,9,0,0,,,,,,,2,0,2,0,0,52,52,7,,,,,,,,,,,,num_2,1.140297699952498,num_2,0.4,1.4,0.4,0.7,15.2822,26.74385,return,7.2021330000134185,,,,,,,,,,,,,,,,,906,23,male,left_right_width,2024-10-17_12h44.00.940,exp1,2023.1.0,60.043651717684554,
,,,,,,,,,,,,,,,,3,9.5,10,10.5,0,0,0.5,0.1,0.4,1.4000000000000001,10,initial,36.05,342,361,379,0,0,9,9,9,0,0,,,,,,,2,0,2,0,0,53,53,30,,,,,,,,,,,,num_2,1.1029551000101492,num_2,0.35,1.4,0.6,0.7,22.9233,26.74385,return,6.558701700065285,,,,,,,,,,,,,,,,,906,23,male,left_right_width,2024-10-17_12h44.00.940,exp1,2023.1.0,60.043651717684554,
,,,,,,,,,,,,,,,,,,,,,,,,,,,,,,,,,,,,,,,,,,,,,2,0,2,0,,,,,,,,,,,,,,,,,,,,,,,,,,,,,2163.621202499955,2163.621202499955,2163.621202499955,,,,,,,,,,,,906,23,male,left_right_width,2024-10-17_12h44.00.940,exp1,2023.1.0,60.043651717684554,
,,,,,,,,,,,,,,,,3,9.1,10,10.9,0,0,0.9,0.35,0.55,2.35,10,initial,36.05,328,361,393,0,0,9,9,9,0,0,,,,,,,3,0,3,0,0,0,0,4,,,,,,,,,,,,num_2,1.5981806999770924,num_2,0.35,1.6,0.6,1.2,22.9233,45.8466,return,6.775211600004695,,,,,,,,,,,,,,,,,906,23,male,left_right_width,2024-10-17_12h44.00.940,exp1,2023.1.0,60.043651717684554,
,,,,,,,,,,,,,,,,4,8.65,9.55,10.45,11.35,0,0.9,0.35,0.55,3.25,10,initial,36.05,312,344,377,409,0,9,9,9,9,0,,,,,,,3,0,3,0,0,1,1,42,,,,,,,,,,,,num_3,0.9826520000351593,num_3,0.4,1,0.6000000000000001,1.1,22.9233,42.02605,return,9.23113850003574,,,,,,,,,,,,,,,,,906,23,male,left_right_width,2024-10-17_12h44.00.940,exp1,2023.1.0,60.043651717684554,
,,,,,,,,,,,,,,,,5,8.2,9.1,10,10.9,11.8,0.9,0.35,0.55,4.15,10,initial,36.05,296,328,361,393,425,9,9,9,9,9,,,,,,,3,0,3,0,0,2,2,22,,,,,,,,,,,,num_4,1.0513483000686392,num_4,0.25,1.2,0.5499999999999999,1.3,21.01303,49.66716,return,6.415083100087941,,,,,,,,,,,,,,,,,906,23,male,left_right_width,2024-10-17_12h44.00.940,exp1,2023.1.0,60.043651717684554,
,,,,,,,,,,,,,,,,3,9.1,10,10.9,0,0,0.9,0.35,0.55,2.35,10,initial,36.05,328,361,393,0,0,9,9,9,0,0,,,,,,,3,0,3,0,0,3,3,33,,,,,,,,,,,,num_2,0.860043799970299,num_2,0.25,1.4,0.49999999999999994,1.3,19.10275,49.66716,return,3.6217065999517217,,,,,,,,,,,,,,,,,906,23,male,left_right_width,2024-10-17_12h44.00.940,exp1,2023.1.0,60.043651717684554,
,,,,,,,,,,,,,,,,5,8.2,9.1,10,10.9,11.8,0.9,0.35,0.55,4.15,10,initial,36.05,296,328,361,393,425,9,9,9,9,9,,,,,,,3,0,3,0,0,4,4,21,,,,,,,,,,,,num_4,1.0070120999589562,num_4,0.4,1.3,0.5,1.2,19.10275,45.8466,return,3.220631300006062,,,,,,,,,,,,,,,,,906,23,male,left_right_width,2024-10-17_12h44.00.940,exp1,2023.1.0,60.043651717684554,
,,,,,,,,,,,,,,,,5,8.2,9.1,10,10.9,11.8,0.9,0.35,0.55,4.15,10,initial,36.05,296,328,361,393,425,9,9,9,9,9,,,,,,,3,0,3,0,0,5,5,52,,,,,,,,,,,,num_4,1.0194586999714375,num_4,0.3,1.1,0.6,1.1,22.9233,42.02605,return,4.08232439996209,,,,,,,,,,,,,,,,,906,23,male,left_right_width,2024-10-17_12h44.00.940,exp1,2023.1.0,60.043651717684554,
,,,,,,,,,,,,,,,,4,8.65,9.55,10.45,11.35,0,0.9,0.35,0.55,3.25,10,initial,36.05,312,344,377,409,0,9,9,9,9,0,,,,,,,3,0,3,0,0,6,6,37,,,,,,,,,,,,num_3,1.5205748999724165,num_3,0.35,0.7,0.6,1.1,22.9233,42.02605,return,5.770260800025426,,,,,,,,,,,,,,,,,906,23,male,left_right_width,2024-10-17_12h44.00.940,exp1,2023.1.0,60.043651717684554,
,,,,,,,,,,,,,,,,4,8.65,9.55,10.45,11.35,0,0.9,0.35,0.55,3.25,10,initial,36.05,312,344,377,409,0,9,9,9,9,0,,,,,,,3,0,3,0,0,7,7,15,,,,,,,,,,,,num_4,1.2174439000664279,num_4,0.3,0.9,0.65,1.1,24.83358,42.02605,return,3.77337599999737,,,,,,,,,,,,,,,,,906,23,male,left_right_width,2024-10-17_12h44.00.940,exp1,2023.1.0,60.043651717684554,
,,,,,,,,,,,,,,,,5,8.2,9.1,10,10.9,11.8,0.9,0.35,0.55,4.15,10,initial,36.05,296,328,361,393,425,9,9,9,9,9,,,,,,,3,0,3,0,0,8,8,23,,,,,,,,,,,,num_4,1.13515629991889,num_4,0.45,1.1,0.6500000000000001,1.2,24.83358,45.8466,return,6.797977400012314,,,,,,,,,,,,,,,,,906,23,male,left_right_width,2024-10-17_12h44.00.940,exp1,2023.1.0,60.043651717684554,
,,,,,,,,,,,,,,,,3,9.1,10,10.9,0,0,0.9,0.35,0.55,2.35,10,initial,36.05,328,361,393,0,0,9,9,9,0,0,,,,,,,3,0,3,0,0,9,9,6,,,,,,,,,,,,num_2,0.9065851999912411,num_2,0.5,1.2,0.7500000000000002,1.4,28.65413,53.48771,return,3.2800987999653444,,,,,,,,,,,,,,,,,906,23,male,left_right_width,2024-10-17_12h44.00.940,exp1,2023.1.0,60.043651717684554,
,,,,,,,,,,,,,,,,3,9.1,10,10.9,0,0,0.9,0.35,0.55,2.35,10,initial,36.05,328,361,393,0,0,9,9,9,0,0,,,,,,,3,0,3,0,0,10,10,28,,,,,,,,,,,,num_2,1.0129018999869004,num_2,0.55,1.6,0.6000000000000001,1.3,22.9233,49.66716,return,3.5595166001003236,,,,,,,,,,,,,,,,,906,23,male,left_right_width,2024-10-17_12h44.00.940,exp1,2023.1.0,60.043651717684554,
,,,,,,,,,,,,,,,,4,8.65,9.55,10.45,11.35,0,0.9,0.35,0.55,3.25,10,initial,36.05,312,344,377,409,0,9,9,9,9,0,,,,,,,3,0,3,0,0,11,11,41,,,,,,,,,,,,num_4,1.865915600094013,num_4,0.35,0.9,0.6,1.1,22.9233,42.02605,return,4.74806939996779,,,,,,,,,,,,,,,,,906,23,male,left_right_width,2024-10-17_12h44.00.940,exp1,2023.1.0,60.043651717684554,
,,,,,,,,,,,,,,,,4,8.65,9.55,10.45,11.35,0,0.9,0.35,0.55,3.25,10,initial,36.05,312,344,377,409,0,9,9,9,9,0,,,,,,,3,0,3,0,0,12,12,12,,,,,,,,,,,,num_3,1.5610621999949217,num_3,0.55,0.6,0.6000000000000001,1.05,22.9233,40.11578,return,9.77898980001919,,,,,,,,,,,,,,,,,906,23,male,left_right_width,2024-10-17_12h44.00.940,exp1,2023.1.0,60.043651717684554,
,,,,,,,,,,,,,,,,4,8.65,9.55,10.45,11.35,0,0.9,0.35,0.55,3.25,10,initial,36.05,312,344,377,409,0,9,9,9,9,0,,,,,,,3,0,3,0,0,13,13,16,,,,,,,,,,,,num_4,1.2436682999832556,num_4,0.35,0.8,0.5499999999999999,1.2,21.01303,45.8466,return,7.043273300048895,,,,,,,,,,,,,,,,,906,23,male,left_right_width,2024-10-17_12h44.00.940,exp1,2023.1.0,60.043651717684554,
,,,,,,,,,,,,,,,,3,9.1,10,10.9,0,0,0.9,0.35,0.55,2.35,10,initial,36.05,328,361,393,0,0,9,9,9,0,0,,,,,,,3,0,3,0,0,14,14,2,,,,,,,,,,,,num_2,1.1475035999901593,num_2,0.2,0.4,1.0000000000000002,1.9,38.2055,72.59046,return,10.584273000014946,,,,,,,,,,,,,,,,,906,23,male,left_right_width,2024-10-17_12h44.00.940,exp1,2023.1.0,60.043651717684554,
,,,,,,,,,,,,,,,,4,8.65,9.55,10.45,11.35,0,0.9,0.35,0.55,3.25,10,initial,36.05,312,344,377,409,0,9,9,9,9,0,,,,,,,3,0,3,0,0,15,15,14,,,,,,,,,,,,num_3,1.223209899966605,num_3,0.2,1.3,0.7000000000000001,1.35,26.74385,51.57743,return,7.092387100099586,,,,,,,,,,,,,,,,,906,23,male,left_right_width,2024-10-17_12h44.00.940,exp1,2023.1.0,60.043651717684554,
,,,,,,,,,,,,,,,,5,8.2,9.1,10,10.9,11.8,0.9,0.35,0.55,4.15,10,initial,36.05,296,328,361,393,425,9,9,9,9,9,,,,,,,3,0,3,0,0,16,16,19,,,,,,,,,,,,num_5,1.1419226999860257,num_5,0.25,1.2,0.65,1.25,24.83358,47.75688,return,4.071191499941051,,,,,,,,,,,,,,,,,906,23,male,left_right_width,2024-10-17_12h44.00.940,exp1,2023.1.0,60.043651717684554,
,,,,,,,,,,,,,,,,3,9.1,10,10.9,0,0,0.9,0.35,0.55,2.35,10,initial,36.05,328,361,393,0,0,9,9,9,0,0,,,,,,,3,0,3,0,0,17,17,34,,,,,,,,,,,,num_2,0.8277634000405669,num_2,0.35,1.6,0.65,1.6,24.83358,61.12881,return,3.0613353999797255,,,,,,,,,,,,,,,,,906,23,male,left_right_width,2024-10-17_12h44.00.940,exp1,2023.1.0,60.043651717684554,
,,,,,,,,,,,,,,,,4,8.65,9.55,10.45,11.35,0,0.9,0.35,0.55,3.25,10,initial,36.05,312,344,377,409,0,9,9,9,9,0,,,,,,,3,0,3,0,0,18,18,17,,,,,,,,,,,,num_4,1.1483703999547288,num_4,0.5,0.9,0.7500000000000002,1.2,28.65413,45.8466,return,3.975966800004244,,,,,,,,,,,,,,,,,906,23,male,left_right_width,2024-10-17_12h44.00.940,exp1,2023.1.0,60.043651717684554,
,,,,,,,,,,,,,,,,5,8.2,9.1,10,10.9,11.8,0.9,0.35,0.55,4.15,10,initial,36.05,296,328,361,393,425,9,9,9,9,9,,,,,,,3,0,3,0,0,19,19,46,,,,,,,,,,,,num_4,1.1688521999167278,num_4,0.3,0.7,0.65,1.3,24.83358,49.66716,return,10.440988500020467,,,,,,,,,,,,,,,,,906,23,male,left_right_width,2024-10-17_12h44.00.940,exp1,2023.1.0,60.043651717684554,
,,,,,,,,,,,,,,,,3,9.1,10,10.9,0,0,0.9,0.35,0.55,2.35,10,initial,36.05,328,361,393,0,0,9,9,9,0,0,,,,,,,3,0,3,0,0,20,20,27,,,,,,,,,,,,num_3,1.0967299999902025,num_3,0.2,0.4,0.44999999999999996,0.75,17.19248,28.65413,return,6.7918989000609145,,,,,,,,,,,,,,,,,906,23,male,left_right_width,2024-10-17_12h44.00.940,exp1,2023.1.0,60.043651717684554,
,,,,,,,,,,,,,,,,4,8.65,9.55,10.45,11.35,0,0.9,0.35,0.55,3.25,10,initial,36.05,312,344,377,409,0,9,9,9,9,0,,,,,,,3,0,3,0,0,21,21,43,,,,,,,,,,,,num_4,1.1457615999970585,num_4,0.2,1.3,0.6,1.4,22.9233,53.48771,return,4.771538500091992,,,,,,,,,,,,,,,,,906,23,male,left_right_width,2024-10-17_12h44.00.940,exp1,2023.1.0,60.043651717684554,
,,,,,,,,,,,,,,,,4,8.65,9.55,10.45,11.35,0,0.9,0.35,0.55,3.25,10,initial,36.05,312,344,377,409,0,9,9,9,9,0,,,,,,,3,0,3,0,0,22,22,44,,,,,,,,,,,,num_4,1.9768146000569686,num_4,0.55,1.3,0.7000000000000002,1.5,26.74385,57.30826,return,5.475538400001824,,,,,,,,,,,,,,,,,906,23,male,left_right_width,2024-10-17_12h44.00.940,exp1,2023.1.0,60.043651717684554,
,,,,,,,,,,,,,,,,3,9.1,10,10.9,0,0,0.9,0.35,0.55,2.35,10,initial,36.05,328,361,393,0,0,9,9,9,0,0,,,,,,,3,0,3,0,0,23,23,29,,,,,,,,,,,,num_2,1.8466514000901952,num_2,0.2,0.4,0.5499999999999999,0.9,21.01303,34.38495,return,7.034924499923363,,,,,,,,,,,,,,,,,906,23,male,left_right_width,2024-10-17_12h44.00.940,exp1,2023.1.0,60.043651717684554,
,,,,,,,,,,,,,,,,3,9.1,10,10.9,0,0,0.9,0.35,0.55,2.35,10,initial,36.05,328,361,393,0,0,9,9,9,0,0,,,,,,,3,0,3,0,0,24,24,32,,,,,,,,,,,,num_2,0.9324425999075174,num_2,0.3,1.4,0.7500000000000001,1.2,28.65413,45.8466,return,6.124825600069016,,,,,,,,,,,,,,,,,906,23,male,left_right_width,2024-10-17_12h44.00.940,exp1,2023.1.0,60.043651717684554,
,,,,,,,,,,,,,,,,4,8.65,9.55,10.45,11.35,0,0.9,0.35,0.55,3.25,10,initial,36.05,312,344,377,409,0,9,9,9,9,0,,,,,,,3,0,3,0,0,25,25,36,,,,,,,,,,,,num_4,1.4173538000322878,num_4,0.2,1.2,0.65,1.0,24.83358,38.2055,return,5.182187299942598,,,,,,,,,,,,,,,,,906,23,male,left_right_width,2024-10-17_12h44.00.940,exp1,2023.1.0,60.043651717684554,
,,,,,,,,,,,,,,,,5,8.2,9.1,10,10.9,11.8,0.9,0.35,0.55,4.15,10,initial,36.05,296,328,361,393,425,9,9,9,9,9,,,,,,,3,0,3,0,0,26,26,45,,,,,,,,,,,,num_4,1.011667599901557,num_4,0.25,0.5,0.65,1.0,24.83358,38.2055,return,8.585398299968801,,,,,,,,,,,,,,,,,906,23,male,left_right_width,2024-10-17_12h44.00.940,exp1,2023.1.0,60.043651717684554,
,,,,,,,,,,,,,,,,5,8.2,9.1,10,10.9,11.8,0.9,0.35,0.55,4.15,10,initial,36.05,296,328,361,393,425,9,9,9,9,9,,,,,,,3,0,3,0,0,27,27,25,,,,,,,,,,,,num_4,1.3179581000003964,num_4,0.3,0.6,0.7500000000000001,1.2,28.65413,45.8466,return,14.892328699934296,,,,,,,,,,,,,,,,,906,23,male,left_right_width,2024-10-17_12h44.00.940,exp1,2023.1.0,60.043651717684554,
,,,,,,,,,,,,,,,,3,9.1,10,10.9,0,0,0.9,0.35,0.55,2.35,10,initial,36.05,328,361,393,0,0,9,9,9,0,0,,,,,,,3,0,3,0,0,28,28,7,,,,,,,,,,,,num_2,0.8051244999514893,num_2,0.4,0.8,0.5,1.2,19.10275,45.8466,return,4.3351324000395834,,,,,,,,,,,,,,,,,906,23,male,left_right_width,2024-10-17_12h44.00.940,exp1,2023.1.0,60.043651717684554,
,,,,,,,,,,,,,,,,3,9.1,10,10.9,0,0,0.9,0.35,0.55,2.35,10,initial,36.05,328,361,393,0,0,9,9,9,0,0,,,,,,,3,0,3,0,0,29,29,5,,,,,,,,,,,,num_2,0.8927638999884948,num_2,0.45,1.4,0.6500000000000001,1.3,24.83358,49.66716,return,16.451577399973758,,,,,,,,,,,,,,,,,906,23,male,left_right_width,2024-10-17_12h44.00.940,exp1,2023.1.0,60.043651717684554,
,,,,,,,,,,,,,,,,3,9.1,10,10.9,0,0,0.9,0.35,0.55,2.35,10,initial,36.05,328,361,393,0,0,9,9,9,0,0,,,,,,,3,0,3,0,0,30,30,31,,,,,,,,,,,,num_2,3.294312500045635,num_2,0.2,0.4,0.5499999999999999,0.8,21.01303,30.5644,return,8.41900579992216,,,,,,,,,,,,,,,,,906,23,male,left_right_width,2024-10-17_12h44.00.940,exp1,2023.1.0,60.043651717684554,
,,,,,,,,,,,,,,,,5,8.2,9.1,10,10.9,11.8,0.9,0.35,0.55,4.15,10,initial,36.05,296,328,361,393,425,9,9,9,9,9,,,,,,,3,0,3,0,0,31,31,20,,,,,,,,,,,,num_5,1.0894360999809578,num_5,0.35,0.6,0.65,1.2,24.83358,45.8466,return,6.930409899912775,,,,,,,,,,,,,,,,,906,23,male,left_right_width,2024-10-17_12h44.00.940,exp1,2023.1.0,60.043651717684554,
,,,,,,,,,,,,,,,,5,8.2,9.1,10,10.9,11.8,0.9,0.35,0.55,4.15,10,initial,36.05,296,328,361,393,425,9,9,9,9,9,,,,,,,3,0,3,0,0,32,32,50,,,,,,,,,,,,num_4,0.9307407001033425,num_4,0.25,0.7,0.65,1.1,24.83358,42.02605,return,6.921379999956116,,,,,,,,,,,,,,,,,906,23,male,left_right_width,2024-10-17_12h44.00.940,exp1,2023.1.0,60.043651717684554,
,,,,,,,,,,,,,,,,4,8.65,9.55,10.45,11.35,0,0.9,0.35,0.55,3.25,10,initial,36.05,312,344,377,409,0,9,9,9,9,0,,,,,,,3,0,3,0,0,33,33,11,,,,,,,,,,,,num_3,0.874822000041604,num_3,0.4,1.3,0.6000000000000001,1.2,22.9233,45.8466,return,4.071053100051358,,,,,,,,,,,,,,,,,906,23,male,left_right_width,2024-10-17_12h44.00.940,exp1,2023.1.0,60.043651717684554,
,,,,,,,,,,,,,,,,3,9.1,10,10.9,0,0,0.9,0.35,0.55,2.35,10,initial,36.05,328,361,393,0,0,9,9,9,0,0,,,,,,,3,0,3,0,0,34,34,8,,,,,,,,,,,,num_2,0.9728123000822961,num_2,0.5,0.8,0.6000000000000001,1.2,22.9233,45.8466,return,6.830247699981555,,,,,,,,,,,,,,,,,906,23,male,left_right_width,2024-10-17_12h44.00.940,exp1,2023.1.0,60.043651717684554,
,,,,,,,,,,,,,,,,4,8.65,9.55,10.45,11.35,0,0.9,0.35,0.55,3.25,10,initial,36.05,312,344,377,409,0,9,9,9,9,0,,,,,,,3,0,3,0,0,35,35,13,,,,,,,,,,,,num_4,1.1964495000429451,num_4,0.25,0.9,0.5499999999999999,1.1,21.01303,42.02605,return,3.482914200052619,,,,,,,,,,,,,,,,,906,23,male,left_right_width,2024-10-17_12h44.00.940,exp1,2023.1.0,60.043651717684554,
,,,,,,,,,,,,,,,,4,8.65,9.55,10.45,11.35,0,0.9,0.35,0.55,3.25,10,initial,36.05,312,344,377,409,0,9,9,9,9,0,,,,,,,3,0,3,0,0,36,36,9,,,,,,,,,,,,num_4,1.0285360999405384,num_4,0.5,1.1,0.55,1.1,21.01303,42.02605,return,2.7300155999837443,,,,,,,,,,,,,,,,,906,23,male,left_right_width,2024-10-17_12h44.00.940,exp1,2023.1.0,60.043651717684554,
,,,,,,,,,,,,,,,,3,9.1,10,10.9,0,0,0.9,0.35,0.55,2.35,10,initial,36.05,328,361,393,0,0,9,9,9,0,0,,,,,,,3,0,3,0,0,37,37,1,,,,,,,,,,,,num_2,1.0341219999827445,num_2,0.3,1.2,0.65,1.2,24.83358,45.8466,return,7.706068699946627,,,,,,,,,,,,,,,,,906,23,male,left_right_width,2024-10-17_12h44.00.940,exp1,2023.1.0,60.043651717684554,
,,,,,,,,,,,,,,,,4,8.65,9.55,10.45,11.35,0,0.9,0.35,0.55,3.25,10,initial,36.05,312,344,377,409,0,9,9,9,9,0,,,,,,,3,0,3,0,0,38,38,10,,,,,,,,,,,,num_3,1.5982413000892848,num_3,0.4,1.3,0.55,1.05,21.01303,40.11578,return,6.777570899925195,,,,,,,,,,,,,,,,,906,23,male,left_right_width,2024-10-17_12h44.00.940,exp1,2023.1.0,60.043651717684554,
,,,,,,,,,,,,,,,,5,8.2,9.1,10,10.9,11.8,0.9,0.35,0.55,4.15,10,initial,36.05,296,328,361,393,425,9,9,9,9,9,,,,,,,3,0,3,0,0,39,39,51,,,,,,,,,,,,num_4,0.9436909999931231,num_4,0.35,0.7,0.65,1.0,24.83358,38.2055,return,5.864575700019486,,,,,,,,,,,,,,,,,906,23,male,left_right_width,2024-10-17_12h44.00.940,exp1,2023.1.0,60.043651717684554,
,,,,,,,,,,,,,,,,5,8.2,9.1,10,10.9,11.8,0.9,0.35,0.55,4.15,10,initial,36.05,296,328,361,393,425,9,9,9,9,9,,,,,,,3,0,3,0,0,40,40,18,,,,,,,,,,,,num_4,1.086295000044629,num_4,0.4,1.2,0.7000000000000002,1.1,26.74385,42.02605,return,6.077816199976951,,,,,,,,,,,,,,,,,906,23,male,left_right_width,2024-10-17_12h44.00.940,exp1,2023.1.0,60.043651717684554,
,,,,,,,,,,,,,,,,4,8.65,9.55,10.45,11.35,0,0.9,0.35,0.55,3.25,10,initial,36.05,312,344,377,409,0,9,9,9,9,0,,,,,,,3,0,3,0,0,41,41,38,,,,,,,,,,,,num_3,0.9306626999750733,num_3,0.45,0.8,0.6000000000000001,0.9,22.9233,34.38495,return,3.692745100008324,,,,,,,,,,,,,,,,,906,23,male,left_right_width,2024-10-17_12h44.00.940,exp1,2023.1.0,60.043651717684554,
,,,,,,,,,,,,,,,,5,8.2,9.1,10,10.9,11.8,0.9,0.35,0.55,4.15,10,initial,36.05,296,328,361,393,425,9,9,9,9,9,,,,,,,3,0,3,0,0,42,42,49,,,,,,,,,,,,num_5,1.6424084000755101,num_5,0.35,0.6,0.65,0.95,24.83358,36.29523,return,5.44444910006132,,,,,,,,,,,,,,,,,906,23,male,left_right_width,2024-10-17_12h44.00.940,exp1,2023.1.0,60.043651717684554,
,,,,,,,,,,,,,,,,5,8.2,9.1,10,10.9,11.8,0.9,0.35,0.55,4.15,10,initial,36.05,296,328,361,393,425,9,9,9,9,9,,,,,,,3,0,3,0,0,43,43,47,,,,,,,,,,,,num_4,1.8469558999640867,num_4,0.55,0.7,0.6500000000000001,1.1,24.83358,42.02605,return,8.202792900032364,,,,,,,,,,,,,,,,,906,23,male,left_right_width,2024-10-17_12h44.00.940,exp1,2023.1.0,60.043651717684554,
,,,,,,,,,,,,,,,,3,9.1,10,10.9,0,0,0.9,0.35,0.55,2.35,10,initial,36.05,328,361,393,0,0,9,9,9,0,0,,,,,,,3,0,3,0,0,44,44,30,,,,,,,,,,,,num_2,0.7810819000005722,num_2,0.4,1.4,0.6500000000000001,1.0,24.83358,38.2055,return,4.359504400053993,,,,,,,,,,,,,,,,,906,23,male,left_right_width,2024-10-17_12h44.00.940,exp1,2023.1.0,60.043651717684554,
,,,,,,,,,,,,,,,,3,9.1,10,10.9,0,0,0.9,0.35,0.55,2.35,10,initial,36.05,328,361,393,0,0,9,9,9,0,0,,,,,,,3,0,3,0,0,45,45,35,,,,,,,,,,,,num_2,1.0143089001066983,num_2,0.45,0.8,0.6000000000000001,1.0,22.9233,38.2055,return,4.248980399919674,,,,,,,,,,,,,,,,,906,23,male,left_right_width,2024-10-17_12h44.00.940,exp1,2023.1.0,60.043651717684554,
,,,,,,,,,,,,,,,,5,8.2,9.1,10,10.9,11.8,0.9,0.35,0.55,4.15,10,initial,36.05,296,328,361,393,425,9,9,9,9,9,,,,,,,3,0,3,0,0,46,46,26,,,,,,,,,,,,num_5,1.3644890999421477,num_5,0.2,0.9,0.6,1.05,22.9233,40.11578,return,5.628512200084515,,,,,,,,,,,,,,,,,906,23,male,left_right_width,2024-10-17_12h44.00.940,exp1,2023.1.0,60.043651717684554,
,,,,,,,,,,,,,,,,3,9.1,10,10.9,0,0,0.9,0.35,0.55,2.35,10,initial,36.05,328,361,393,0,0,9,9,9,0,0,,,,,,,3,0,3,0,0,47,47,0,,,,,,,,,,,,num_2,0.8248854000121355,num_2,0.25,0.6,0.6,1.0,22.9233,38.2055,return,6.438157399999909,,,,,,,,,,,,,,,,,906,23,male,left_right_width,2024-10-17_12h44.00.940,exp1,2023.1.0,60.043651717684554,
,,,,,,,,,,,,,,,,5,8.2,9.1,10,10.9,11.8,0.9,0.35,0.55,4.15,10,initial,36.05,296,328,361,393,425,9,9,9,9,9,,,,,,,3,0,3,0,0,48,48,48,,,,,,,,,,,,num_4,2.268356699962169,num_4,0.2,1.2,0.6,1.3,22.9233,49.66716,return,8.2398820000235,,,,,,,,,,,,,,,,,906,23,male,left_right_width,2024-10-17_12h44.00.940,exp1,2023.1.0,60.043651717684554,
,,,,,,,,,,,,,,,,4,8.65,9.55,10.45,11.35,0,0.9,0.35,0.55,3.25,10,initial,36.05,312,344,377,409,0,9,9,9,9,0,,,,,,,3,0,3,0,0,49,49,40,,,,,,,,,,,,num_3,1.1614131000824273,num_3,0.2,0.4,0.6,0.8,22.9233,30.5644,return,11.764569799997844,,,,,,,,,,,,,,,,,906,23,male,left_right_width,2024-10-17_12h44.00.940,exp1,2023.1.0,60.043651717684554,
,,,,,,,,,,,,,,,,5,8.2,9.1,10,10.9,11.8,0.9,0.35,0.55,4.15,10,initial,36.05,296,328,361,393,425,9,9,9,9,9,,,,,,,3,0,3,0,0,50,50,24,,,,,,,,,,,,num_5,1.1077815999742597,num_5,0.4,1.1,0.55,1.0,21.01303,38.2055,return,3.6215374000603333,,,,,,,,,,,,,,,,,906,23,male,left_right_width,2024-10-17_12h44.00.940,exp1,2023.1.0,60.043651717684554,
,,,,,,,,,,,,,,,,3,9.1,10,10.9,0,0,0.9,0.35,0.55,2.35,10,initial,36.05,328,361,393,0,0,9,9,9,0,0,,,,,,,3,0,3,0,0,51,51,3,,,,,,,,,,,,num_2,0.8068281000014395,num_2,0.35,1.0,0.65,1.0,24.83358,38.2055,return,2.62831910001114,,,,,,,,,,,,,,,,,906,23,male,left_right_width,2024-10-17_12h44.00.940,exp1,2023.1.0,60.043651717684554,
,,,,,,,,,,,,,,,,4,8.65,9.55,10.45,11.35,0,0.9,0.35,0.55,3.25,10,initial,36.05,312,344,377,409,0,9,9,9,9,0,,,,,,,3,0,3,0,0,52,52,39,,,,,,,,,,,,num_3,0.9792047999799252,num_3,0.3,1.1,0.6,1.0,22.9233,38.2055,return,3.051584600005299,,,,,,,,,,,,,,,,,906,23,male,left_right_width,2024-10-17_12h44.00.940,exp1,2023.1.0,60.043651717684554,
,,,,,,,,,,,,,,,,5,8.2,9.1,10,10.9,11.8,0.9,0.35,0.55,4.15,10,initial,36.05,296,328,361,393,425,9,9,9,9,9,,,,,,,3,0,3,0,0,53,53,53,,,,,,,,,,,,num_5,1.7520723999477923,num_5,0.2,1.0,0.6,1.05,22.9233,40.11578,return,4.865782100008801,,,,,,,,,,,,,,,,,906,23,male,left_right_width,2024-10-17_12h44.00.940,exp1,2023.1.0,60.043651717684554,
,,,,,,,,,,,,,,,,,,,,,,,,,,,,,,,,,,,,,,,,,,,,,3,0,3,0,,,,,,,,,,,,,,,,,,,,,,,,,,,,,2695.936924700043,2695.936924700043,2695.936924700043,,,,,,,,,,,,906,23,male,left_right_width,2024-10-17_12h44.00.940,exp1,2023.1.0,60.043651717684554,
,,,,,,,,,,,,,,,,5,9,9.5,10,10.5,11,0.5,0.1,0.4,2.4,10,initial,36.05,324,342,361,379,397,9,9,9,9,9,,,,,,,4,0,4,0,0,0,0,24,,,,,,,,,,,,num_3,1.358043699990958,num_3,0.55,1.1,0.45,0.6,17.19248,22.9233,return,4.724817599984817,,,,,,,,,,,,,,,,,906,23,male,left_right_width,2024-10-17_12h44.00.940,exp1,2023.1.0,60.043651717684554,
,,,,,,,,,,,,,,,,5,9,9.5,10,10.5,11,0.5,0.1,0.4,2.4,10,initial,36.05,324,342,361,379,397,9,9,9,9,9,,,,,,,4,0,4,0,0,1,1,49,,,,,,,,,,,,num_4,1.043490199954249,num_4,0.25,0.8,0.44999999999999996,0.6,17.19248,22.9233,return,3.3519270999822766,,,,,,,,,,,,,,,,,906,23,male,left_right_width,2024-10-17_12h44.00.940,exp1,2023.1.0,60.043651717684554,
,,,,,,,,,,,,,,,,4,9.25,9.75,10.25,10.75,0,0.5,0.1,0.4,1.9000000000000001,10,initial,36.05,333,351,370,388,0,9,9,9,9,0,,,,,,,4,0,4,0,0,2,2,12,,,,,,,,,,,,num_3,0.8692173000890762,num_3,0.45,0.6,0.4,0.5,15.2822,19.10275,return,4.158492600079626,,,,,,,,,,,,,,,,,906,23,male,left_right_width,2024-10-17_12h44.00.940,exp1,2023.1.0,60.043651717684554,
,,,,,,,,,,,,,,,,3,9.5,10,10.5,0,0,0.5,0.1,0.4,1.4000000000000001,10,initial,36.05,342,361,379,0,0,9,9,9,0,0,,,,,,,4,0,4,0,0,3,3,8,,,,,,,,,,,,num_2,0.8179777000332251,num_2,0.35,0.8,0.39999999999999997,0.5,15.2822,19.10275,return,2.9382190000033006,,,,,,,,,,,,,,,,,906,23,male,left_right_width,2024-10-17_12h44.00.940,exp1,2023.1.0,60.043651717684554,
,,,,,,,,,,,,,,,,5,9,9.5,10,10.5,11,0.5,0.1,0.4,2.4,10,initial,36.05,324,342,361,379,397,9,9,9,9,9,,,,,,,4,0,4,0,0,4,4,50,,,,,,,,,,,,num_4,1.4746590999420732,num_4,0.4,1.3,0.4,0.5,15.2822,19.10275,return,6.613104699994437,,,,,,,,,,,,,,,,,906,23,male,left_right_width,2024-10-17_12h44.00.940,exp1,2023.1.0,60.043651717684554,
,,,,,,,,,,,,,,,,5,9,9.5,10,10.5,11,0.5,0.1,0.4,2.4,10,initial,36.05,324,342,361,379,397,9,9,9,9,9,,,,,,,4,0,4,0,0,5,5,22,,,,,,,,,,,,num_5,1.5433936000335962,num_5,0.25,1.3,0.39999999999999997,0.55,15.2822,21.01303,return,5.9568717000074685,,,,,,,,,,,,,,,,,906,23,male,left_right_width,2024-10-17_12h44.00.940,exp1,2023.1.0,60.043651717684554,
,,,,,,,,,,,,,,,,3,9.5,10,10.5,0,0,0.5,0.1,0.4,1.4000000000000001,10,initial,36.05,342,361,379,0,0,9,9,9,0,0,,,,,,,4,0,4,0,0,6,6,35,,,,,,,,,,,,num_2,0.9090933999978006,num_2,0.45,1.2,0.35000000000000003,0.5,13.37193,19.10275,return,4.193831000011414,,,,,,,,,,,,,,,,,906,23,male,left_right_width,2024-10-17_12h44.00.940,exp1,2023.1.0,60.043651717684554,
,,,,,,,,,,,,,,,,5,9,9.5,10,10.5,11,0.5,0.1,0.4,2.4,10,initial,36.05,324,342,361,379,397,9,9,9,9,9,,,,,,,4,0,4,0,0,7,7,23,,,,,,,,,,,,num_4,1.0560866999439895,num_4,0.2,0.4,0.39999999999999997,0.6,15.2822,22.9233,return,7.393709199968725,,,,,,,,,,,,,,,,,906,23,male,left_right_width,2024-10-17_12h44.00.940,exp1,2023.1.0,60.043651717684554,
,,,,,,,,,,,,,,,,4,9.25,9.75,10.25,10.75,0,0.5,0.1,0.4,1.9000000000000001,10,initial,36.05,333,351,370,388,0,9,9,9,9,0,,,,,,,4,0,4,0,0,8,8,9,,,,,,,,,,,,num_3,1.0924070999026299,num_3,0.4,0.7,0.4,0.55,15.2822,21.01303,return,5.716863000066951,,,,,,,,,,,,,,,,,906,23,male,left_right_width,2024-10-17_12h44.00.940,exp1,2023.1.0,60.043651717684554,
,,,,,,,,,,,,,,,,5,9,9.5,10,10.5,11,0.5,0.1,0.4,2.4,10,initial,36.05,324,342,361,379,397,9,9,9,9,9,,,,,,,4,0,4,0,0,9,9,20,,,,,,,,,,,,num_4,1.5044916999759153,num_4,0.2,1.1,0.44999999999999996,0.6,17.19248,22.9233,return,3.8383607000578195,,,,,,,,,,,,,,,,,906,23,male,left_right_width,2024-10-17_12h44.00.940,exp1,2023.1.0,60.043651717684554,
,,,,,,,,,,,,,,,,3,9.5,10,10.5,0,0,0.5,0.1,0.4,1.4000000000000001,10,initial,36.05,342,361,379,0,0,9,9,9,0,0,,,,,,,4,0,4,0,0,10,10,1,,,,,,,,,,,,num_2,0.9248208999633789,num_2,0.3,0.8,0.44999999999999996,0.6,17.19248,22.9233,return,3.6333949000108987,,,,,,,,,,,,,,,,,906,23,male,left_right_width,2024-10-17_12h44.00.940,exp1,2023.1.0,60.043651717684554,
,,,,,,,,,,,,,,,,4,9.25,9.75,10.25,10.75,0,0.5,0.1,0.4,1.9000000000000001,10,initial,36.05,333,351,370,388,0,9,9,9,9,0,,,,,,,4,0,4,0,0,11,11,14,,,,,,,,,,,,num_3,1.3562908999156207,num_3,0.55,0.8,0.45,0.55,17.19248,21.01303,return,5.052779500023462,,,,,,,,,,,,,,,,,906,23,male,left_right_width,2024-10-17_12h44.00.940,exp1,2023.1.0,60.043651717684554,
,,,,,,,,,,,,,,,,4,9.25,9.75,10.25,10.75,0,0.5,0.1,0.4,1.9000000000000001,10,initial,36.05,333,351,370,388,0,9,9,9,9,0,,,,,,,4,0,4,0,0,12,12,42,,,,,,,,,,,,num_3,1.1054315000073984,num_3,0.4,1.1,0.45,0.55,17.19248,21.01303,return,5.091319400002249,,,,,,,,,,,,,,,,,906,23,male,left_right_width,2024-10-17_12h44.00.940,exp1,2023.1.0,60.043651717684554,
,,,,,,,,,,,,,,,,4,9.25,9.75,10.25,10.75,0,0.5,0.1,0.4,1.9000000000000001,10,initial,36.05,333,351,370,388,0,9,9,9,9,0,,,,,,,4,0,4,0,0,13,13,16,,,,,,,,,,,,num_3,1.0974204000085592,num_3,0.5,1.3,0.45,0.55,17.19248,21.01303,return,5.558950399979949,,,,,,,,,,,,,,,,,906,23,male,left_right_width,2024-10-17_12h44.00.940,exp1,2023.1.0,60.043651717684554,
,,,,,,,,,,,,,,,,3,9.5,10,10.5,0,0,0.5,0.1,0.4,1.4000000000000001,10,initial,36.05,342,361,379,0,0,9,9,9,0,0,,,,,,,4,0,4,0,0,14,14,27,,,,,,,,,,,,num_2,0.832287700031884,num_2,0.2,1.2,0.44999999999999996,0.6,17.19248,22.9233,return,4.175228400039487,,,,,,,,,,,,,,,,,906,23,male,left_right_width,2024-10-17_12h44.00.940,exp1,2023.1.0,60.043651717684554,
,,,,,,,,,,,,,,,,4,9.25,9.75,10.25,10.75,0,0.5,0.1,0.4,1.9000000000000001,10,initial,36.05,333,351,370,388,0,9,9,9,9,0,,,,,,,4,0,4,0,0,15,15,38,,,,,,,,,,,,num_3,0.8894094999413937,num_3,0.35,1.3,0.44999999999999996,0.55,17.19248,21.01303,return,5.009259100072086,,,,,,,,,,,,,,,,,906,23,male,left_right_width,2024-10-17_12h44.00.940,exp1,2023.1.0,60.043651717684554,
,,,,,,,,,,,,,,,,3,9.5,10,10.5,0,0,0.5,0.1,0.4,1.4000000000000001,10,initial,36.05,342,361,379,0,0,9,9,9,0,0,,,,,,,4,0,4,0,0,16,16,4,,,,,,,,,,,,num_2,0.7883551999693736,num_2,0.55,0.8,0.5,0.6,19.10275,22.9233,return,4.240618200041354,,,,,,,,,,,,,,,,,906,23,male,left_right_width,2024-10-17_12h44.00.940,exp1,2023.1.0,60.043651717684554,
,,,,,,,,,,,,,,,,4,9.25,9.75,10.25,10.75,0,0.5,0.1,0.4,1.9000000000000001,10,initial,36.05,333,351,370,388,0,9,9,9,9,0,,,,,,,4,0,4,0,0,17,17,15,,,,,,,,,,,,num_3,0.9240864000748843,num_3,0.35,0.6,0.44999999999999996,0.55,17.19248,21.01303,return,2.5015490000369027,,,,,,,,,,,,,,,,,906,23,male,left_right_width,2024-10-17_12h44.00.940,exp1,2023.1.0,60.043651717684554,
,,,,,,,,,,,,,,,,3,9.5,10,10.5,0,0,0.5,0.1,0.4,1.4000000000000001,10,initial,36.05,342,361,379,0,0,9,9,9,0,0,,,,,,,4,0,4,0,0,18,18,31,,,,,,,,,,,,num_2,0.9117854000069201,num_2,0.5,1.4,0.45,0.6,17.19248,22.9233,return,4.59693919995334,,,,,,,,,,,,,,,,,906,23,male,left_right_width,2024-10-17_12h44.00.940,exp1,2023.1.0,60.043651717684554,
,,,,,,,,,,,,,,,,5,9,9.5,10,10.5,11,0.5,0.1,0.4,2.4,10,initial,36.05,324,342,361,379,397,9,9,9,9,9,,,,,,,4,0,4,0,0,19,19,53,,,,,,,,,,,,num_4,0.9691355000250041,num_4,0.2,0.9,0.49999999999999994,0.6,19.10275,22.9233,return,5.994713700027205,,,,,,,,,,,,,,,,,906,23,male,left_right_width,2024-10-17_12h44.00.940,exp1,2023.1.0,60.043651717684554,
,,,,,,,,,,,,,,,,3,9.5,10,10.5,0,0,0.5,0.1,0.4,1.4000000000000001,10,initial,36.05,342,361,379,0,0,9,9,9,0,0,,,,,,,4,0,4,0,0,20,20,33,,,,,,,,,,,,num_2,0.8907082999357954,num_2,0.2,0.8,0.39999999999999997,0.5,15.2822,19.10275,return,4.737466300022788,,,,,,,,,,,,,,,,,906,23,male,left_right_width,2024-10-17_12h44.00.940,exp1,2023.1.0,60.043651717684554,
,,,,,,,,,,,,,,,,5,9,9.5,10,10.5,11,0.5,0.1,0.4,2.4,10,initial,36.05,324,342,361,379,397,9,9,9,9,9,,,,,,,4,0,4,0,0,21,21,26,,,,,,,,,,,,num_5,1.099589499994181,num_5,0.5,1.0,0.4,0.55,15.2822,21.01303,return,4.138416099944152,,,,,,,,,,,,,,,,,906,23,male,left_right_width,2024-10-17_12h44.00.940,exp1,2023.1.0,60.043651717684554,
,,,,,,,,,,,,,,,,4,9.25,9.75,10.25,10.75,0,0.5,0.1,0.4,1.9000000000000001,10,initial,36.05,333,351,370,388,0,9,9,9,9,0,,,,,,,4,0,4,0,0,22,22,17,,,,,,,,,,,,num_3,1.1944924000417814,num_3,0.45,1.2,0.4,0.55,15.2822,21.01303,return,5.3309080000035465,,,,,,,,,,,,,,,,,906,23,male,left_right_width,2024-10-17_12h44.00.940,exp1,2023.1.0,60.043651717684554,
,,,,,,,,,,,,,,,,4,9.25,9.75,10.25,10.75,0,0.5,0.1,0.4,1.9000000000000001,10,initial,36.05,333,351,370,388,0,9,9,9,9,0,,,,,,,4,0,4,0,0,23,23,13,,,,,,,,,,,,num_3,0.9007182000204921,num_3,0.4,1.1,0.4,0.55,15.2822,21.01303,return,6.20545080001466,,,,,,,,,,,,,,,,,906,23,male,left_right_width,2024-10-17_12h44.00.940,exp1,2023.1.0,60.043651717684554,
,,,,,,,,,,,,,,,,3,9.5,10,10.5,0,0,0.5,0.1,0.4,1.4000000000000001,10,initial,36.05,342,361,379,0,0,9,9,9,0,0,,,,,,,4,0,4,0,0,24,24,29,,,,,,,,,,,,num_2,0.9007928000064567,num_2,0.2,0.8,0.35,0.5,13.37193,19.10275,return,4.956328800064512,,,,,,,,,,,,,,,,,906,23,male,left_right_width,2024-10-17_12h44.00.940,exp1,2023.1.0,60.043651717684554,
,,,,,,,,,,,,,,,,5,9,9.5,10,10.5,11,0.5,0.1,0.4,2.4,10,initial,36.05,324,342,361,379,397,9,9,9,9,9,,,,,,,4,0,4,0,0,25,25,18,,,,,,,,,,,,num_4,1.0297580999322236,num_4,0.25,0.8,0.39999999999999997,0.5,15.2822,19.10275,return,4.566008600057103,,,,,,,,,,,,,,,,,906,23,male,left_right_width,2024-10-17_12h44.00.940,exp1,2023.1.0,60.043651717684554,
,,,,,,,,,,,,,,,,3,9.5,10,10.5,0,0,0.5,0.1,0.4,1.4000000000000001,10,initial,36.05,342,361,379,0,0,9,9,9,0,0,,,,,,,4,0,4,0,0,26,26,7,,,,,,,,,,,,num_2,0.868832900072448,num_2,0.25,1.6,0.44999999999999996,0.6,17.19248,22.9233,return,4.381314300000668,,,,,,,,,,,,,,,,,906,23,male,left_right_width,2024-10-17_12h44.00.940,exp1,2023.1.0,60.043651717684554,
,,,,,,,,,,,,,,,,3,9.5,10,10.5,0,0,0.5,0.1,0.4,1.4000000000000001,10,initial,36.05,342,361,379,0,0,9,9,9,0,0,,,,,,,4,0,4,0,0,27,27,34,,,,,,,,,,,,num_2,0.6404396999860182,num_2,0.35,1.2,0.39999999999999997,0.5,15.2822,19.10275,return,3.0737994000082836,,,,,,,,,,,,,,,,,906,23,male,left_right_width,2024-10-17_12h44.00.940,exp1,2023.1.0,60.043651717684554,
,,,,,,,,,,,,,,,,5,9,9.5,10,10.5,11,0.5,0.1,0.4,2.4,10,initial,36.05,324,342,361,379,397,9,9,9,9,9,,,,,,,4,0,4,0,0,28,28,45,,,,,,,,,,,,num_5,0.9603178000543267,num_5,0.2,1.3,0.39999999999999997,0.5,15.2822,19.10275,return,8.085151399951428,,,,,,,,,,,,,,,,,906,23,male,left_right_width,2024-10-17_12h44.00.940,exp1,2023.1.0,60.043651717684554,
,,,,,,,,,,,,,,,,4,9.25,9.75,10.25,10.75,0,0.5,0.1,0.4,1.9000000000000001,10,initial,36.05,333,351,370,388,0,9,9,9,9,0,,,,,,,4,0,4,0,0,29,29,43,,,,,,,,,,,,num_3,1.1926949999760836,num_3,0.4,1,0.45,0.55,17.19248,21.01303,return,3.5860574999824166,,,,,,,,,,,,,,,,,906,23,male,left_right_width,2024-10-17_12h44.00.940,exp1,2023.1.0,60.043651717684554,
,,,,,,,,,,,,,,,,5,9,9.5,10,10.5,11,0.5,0.1,0.4,2.4,10,initial,36.05,324,342,361,379,397,9,9,9,9,9,,,,,,,4,0,4,0,0,30,30,46,,,,,,,,,,,,num_4,1.1995706999441609,num_4,0.2,1.0,0.49999999999999994,0.6,19.10275,22.9233,return,6.444824400008656,,,,,,,,,,,,,,,,,906,23,male,left_right_width,2024-10-17_12h44.00.940,exp1,2023.1.0,60.043651717684554,
,,,,,,,,,,,,,,,,4,9.25,9.75,10.25,10.75,0,0.5,0.1,0.4,1.9000000000000001,10,initial,36.05,333,351,370,388,0,9,9,9,9,0,,,,,,,4,0,4,0,0,31,31,44,,,,,,,,,,,,num_4,1.1268985000206158,num_4,0.2,0.5,0.44999999999999996,0.6,17.19248,22.9233,return,7.107246499974281,,,,,,,,,,,,,,,,,906,23,male,left_right_width,2024-10-17_12h44.00.940,exp1,2023.1.0,60.043651717684554,
,,,,,,,,,,,,,,,,5,9,9.5,10,10.5,11,0.5,0.1,0.4,2.4,10,initial,36.05,324,342,361,379,397,9,9,9,9,9,,,,,,,4,0,4,0,0,32,32,19,,,,,,,,,,,,num_4,1.1298098000697792,num_4,0.4,1.2,0.45,0.6,17.19248,22.9233,return,8.968290099990554,,,,,,,,,,,,,,,,,906,23,male,left_right_width,2024-10-17_12h44.00.940,exp1,2023.1.0,60.043651717684554,
,,,,,,,,,,,,,,,,4,9.25,9.75,10.25,10.75,0,0.5,0.1,0.4,1.9000000000000001,10,initial,36.05,333,351,370,388,0,9,9,9,9,0,,,,,,,4,0,4,0,0,33,33,37,,,,,,,,,,,,num_3,1.2915187999606133,num_3,0.55,1.3,0.45,0.55,17.19248,21.01303,return,7.779208799940534,,,,,,,,,,,,,,,,,906,23,male,left_right_width,2024-10-17_12h44.00.940,exp1,2023.1.0,60.043651717684554,
,,,,,,,,,,,,,,,,3,9.5,10,10.5,0,0,0.5,0.1,0.4,1.4000000000000001,10,initial,36.05,342,361,379,0,0,9,9,9,0,0,,,,,,,4,0,4,0,0,34,34,2,,,,,,,,,,,,num_2,0.7933883999940008,num_2,0.4,1.2,0.4,0.6,15.2822,22.9233,return,4.436825099983253,,,,,,,,,,,,,,,,,906,23,male,left_right_width,2024-10-17_12h44.00.940,exp1,2023.1.0,60.043651717684554,
,,,,,,,,,,,,,,,,4,9.25,9.75,10.25,10.75,0,0.5,0.1,0.4,1.9000000000000001,10,initial,36.05,333,351,370,388,0,9,9,9,9,0,,,,,,,4,0,4,0,0,35,35,41,,,,,,,,,,,,num_3,1.1934126000851393,num_3,0.45,0.7,0.4,0.5,15.2822,19.10275,return,4.661049299989827,,,,,,,,,,,,,,,,,906,23,male,left_right_width,2024-10-17_12h44.00.940,exp1,2023.1.0,60.043651717684554,
,,,,,,,,,,,,,,,,4,9.25,9.75,10.25,10.75,0,0.5,0.1,0.4,1.9000000000000001,10,initial,36.05,333,351,370,388,0,9,9,9,9,0,,,,,,,4,0,4,0,0,36,36,39,,,,,,,,,,,,num_4,1.6636358998948708,num_4,0.4,0.5,0.45,0.6,17.19248,22.9233,return,5.427806799998507,,,,,,,,,,,,,,,,,906,23,male,left_right_width,2024-10-17_12h44.00.940,exp1,2023.1.0,60.043651717684554,
,,,,,,,,,,,,,,,,4,9.25,9.75,10.25,10.75,0,0.5,0.1,0.4,1.9000000000000001,10,initial,36.05,333,351,370,388,0,9,9,9,9,0,,,,,,,4,0,4,0,0,37,37,11,,,,,,,,,,,,num_3,0.938610199955292,num_3,0.4,0.7,0.5,0.6,19.10275,22.9233,return,2.7382216999540105,,,,,,,,,,,,,,,,,906,23,male,left_right_width,2024-10-17_12h44.00.940,exp1,2023.1.0,60.043651717684554,
,,,,,,,,,,,,,,,,3,9.5,10,10.5,0,0,0.5,0.1,0.4,1.4000000000000001,10,initial,36.05,342,361,379,0,0,9,9,9,0,0,,,,,,,4,0,4,0,0,38,38,5,,,,,,,,,,,,num_3,0.9681413000216708,num_3,0.5,1.3,0.5,0.6,19.10275,22.9233,return,5.371304699918255,,,,,,,,,,,,,,,,,906,23,male,left_right_width,2024-10-17_12h44.00.940,exp1,2023.1.0,60.043651717684554,
,,,,,,,,,,,,,,,,3,9.5,10,10.5,0,0,0.5,0.1,0.4,1.4000000000000001,10,initial,36.05,342,361,379,0,0,9,9,9,0,0,,,,,,,4,0,4,0,0,39,39,0,,,,,,,,,,,,num_2,0.882363099954091,num_2,0.5,0.6,0.45,0.6,17.19248,22.9233,return,3.934867199975997,,,,,,,,,,,,,,,,,906,23,male,left_right_width,2024-10-17_12h44.00.940,exp1,2023.1.0,60.043651717684554,
,,,,,,,,,,,,,,,,5,9,9.5,10,10.5,11,0.5,0.1,0.4,2.4,10,initial,36.05,324,342,361,379,397,9,9,9,9,9,,,,,,,4,0,4,0,0,40,40,47,,,,,,,,,,,,num_5,1.2202768999850377,num_5,0.2,1.3,0.5499999999999999,0.65,21.01303,24.83358,return,7.282177199958824,,,,,,,,,,,,,,,,,906,23,male,left_right_width,2024-10-17_12h44.00.940,exp1,2023.1.0,60.043651717684554,
,,,,,,,,,,,,,,,,5,9,9.5,10,10.5,11,0.5,0.1,0.4,2.4,10,initial,36.05,324,342,361,379,397,9,9,9,9,9,,,,,,,4,0,4,0,0,41,41,21,,,,,,,,,,,,num_4,1.2019364000298083,num_4,0.3,0.3,0.5499999999999999,0.7,21.01303,26.74385,return,8.444529799977317,,,,,,,,,,,,,,,,,906,23,male,left_right_width,2024-10-17_12h44.00.940,exp1,2023.1.0,60.043651717684554,
,,,,,,,,,,,,,,,,3,9.5,10,10.5,0,0,0.5,0.1,0.4,1.4000000000000001,10,initial,36.05,342,361,379,0,0,9,9,9,0,0,,,,,,,4,0,4,0,0,42,42,6,,,,,,,,,,,,num_2,0.8063907000469044,num_2,0.2,0.4,0.35,0.5,13.37193,19.10275,return,5.170422099996358,,,,,,,,,,,,,,,,,906,23,male,left_right_width,2024-10-17_12h44.00.940,exp1,2023.1.0,60.043651717684554,
,,,,,,,,,,,,,,,,3,9.5,10,10.5,0,0,0.5,0.1,0.4,1.4000000000000001,10,initial,36.05,342,361,379,0,0,9,9,9,0,0,,,,,,,4,0,4,0,0,43,43,3,,,,,,,,,,,,num_2,0.9208239000290632,num_2,0.55,0.6,0.45,0.6,17.19248,22.9233,return,3.747033000108786,,,,,,,,,,,,,,,,,906,23,male,left_right_width,2024-10-17_12h44.00.940,exp1,2023.1.0,60.043651717684554,
,,,,,,,,,,,,,,,,5,9,9.5,10,10.5,11,0.5,0.1,0.4,2.4,10,initial,36.05,324,342,361,379,397,9,9,9,9,9,,,,,,,4,0,4,0,0,44,44,25,,,,,,,,,,,,num_5,1.8248511999845505,num_5,0.45,1.1,0.4,0.65,15.2822,24.83358,return,5.202537199947983,,,,,,,,,,,,,,,,,906,23,male,left_right_width,2024-10-17_12h44.00.940,exp1,2023.1.0,60.043651717684554,
,,,,,,,,,,,,,,,,3,9.5,10,10.5,0,0,0.5,0.1,0.4,1.4000000000000001,10,initial,36.05,342,361,379,0,0,9,9,9,0,0,,,,,,,4,0,4,0,0,45,45,30,,,,,,,,,,,,num_2,0.9682845999486744,num_2,0.4,1.6,0.45,0.5,17.19248,19.10275,return,4.681814200012013,,,,,,,,,,,,,,,,,906,23,male,left_right_width,2024-10-17_12h44.00.940,exp1,2023.1.0,60.043651717684554,
,,,,,,,,,,,,,,,,3,9.5,10,10.5,0,0,0.5,0.1,0.4,1.4000000000000001,10,initial,36.05,342,361,379,0,0,9,9,9,0,0,,,,,,,4,0,4,0,0,46,46,32,,,,,,,,,,,,num_2,0.807277400046587,num_2,0.3,0.8,0.49999999999999994,0.7,19.10275,26.74385,return,4.1489306999137625,,,,,,,,,,,,,,,,,906,23,male,left_right_width,2024-10-17_12h44.00.940,exp1,2023.1.0,60.043651717684554,
,,,,,,,,,,,,,,,,3,9.5,10,10.5,0,0,0.5,0.1,0.4,1.4000000000000001,10,initial,36.05,342,361,379,0,0,9,9,9,0,0,,,,,,,4,0,4,0,0,47,47,28,,,,,,,,,,,,num_2,1.0095130000263453,num_2,0.3,1.2,0.35,0.5,13.37193,19.10275,return,8.129898399929516,,,,,,,,,,,,,,,,,906,23,male,left_right_width,2024-10-17_12h44.00.940,exp1,2023.1.0,60.043651717684554,
,,,,,,,,,,,,,,,,5,9,9.5,10,10.5,11,0.5,0.1,0.4,2.4,10,initial,36.05,324,342,361,379,397,9,9,9,9,9,,,,,,,4,0,4,0,0,48,48,52,,,,,,,,,,,,num_4,1.1579030000139028,num_4,0.35,0.6,0.65,0.8,24.83358,30.5644,return,5.143003200064413,,,,,,,,,,,,,,,,,906,23,male,left_right_width,2024-10-17_12h44.00.940,exp1,2023.1.0,60.043651717684554,
,,,,,,,,,,,,,,,,4,9.25,9.75,10.25,10.75,0,0.5,0.1,0.4,1.9000000000000001,10,initial,36.05,333,351,370,388,0,9,9,9,9,0,,,,,,,4,0,4,0,0,49,49,40,,,,,,,,,,,,num_3,1.5858279999811202,num_3,0.2,0.3,0.44999999999999996,0.6,17.19248,22.9233,return,10.510918300016783,,,,,,,,,,,,,,,,,906,23,male,left_right_width,2024-10-17_12h44.00.940,exp1,2023.1.0,60.043651717684554,
,,,,,,,,,,,,,,,,4,9.25,9.75,10.25,10.75,0,0.5,0.1,0.4,1.9000000000000001,10,initial,36.05,333,351,370,388,0,9,9,9,9,0,,,,,,,4,0,4,0,0,50,50,10,,,,,,,,,,,,num_3,1.2223587000044063,num_3,0.45,0.9,0.45,0.6,17.19248,22.9233,return,5.379319800063968,,,,,,,,,,,,,,,,,906,23,male,left_right_width,2024-10-17_12h44.00.940,exp1,2023.1.0,60.043651717684554,
,,,,,,,,,,,,,,,,5,9,9.5,10,10.5,11,0.5,0.1,0.4,2.4,10,initial,36.05,324,342,361,379,397,9,9,9,9,9,,,,,,,4,0,4,0,0,51,51,48,,,,,,,,,,,,num_4,0.9982965999515727,num_4,0.2,0.9,0.49999999999999994,0.8,19.10275,30.5644,return,8.55246250005439,,,,,,,,,,,,,,,,,906,23,male,left_right_width,2024-10-17_12h44.00.940,exp1,2023.1.0,60.043651717684554,
,,,,,,,,,,,,,,,,5,9,9.5,10,10.5,11,0.5,0.1,0.4,2.4,10,initial,36.05,324,342,361,379,397,9,9,9,9,9,,,,,,,4,0,4,0,0,52,52,51,,,,,,,,,,,,num_4,1.024024200043641,num_4,0.5,0.8,0.5,0.7,19.10275,26.74385,return,5.792175199952908,,,,,,,,,,,,,,,,,906,23,male,left_right_width,2024-10-17_12h44.00.940,exp1,2023.1.0,60.043651717684554,
,,,,,,,,,,,,,,,,4,9.25,9.75,10.25,10.75,0,0.5,0.1,0.4,1.9000000000000001,10,initial,36.05,333,351,370,388,0,9,9,9,9,0,,,,,,,4,0,4,0,0,53,53,36,,,,,,,,,,,,num_3,1.0573539999313653,num_3,0.45,1,0.55,0.65,21.01303,24.83358,return,4.020855200011283,,,,,,,,,,,,,,,,,906,23,male,left_right_width,2024-10-17_12h44.00.940,exp1,2023.1.0,60.043651717684554,
,,,,,,,,,,,,,,,,,,,,,,,,,,,,,,,,,,,,,,,,,,,,,4,0,4,0,,,,,,,,,,,,,,,,,,,,,,,,,,,,,3185.3858544999966,3185.3858544999966,3185.3858544999966,,,,,,,,,,,,906,23,male,left_right_width,2024-10-17_12h44.00.940,exp1,2023.1.0,60.043651717684554,
,,,,,,,,,,,,,,,,5,9,9.5,10,10.5,11,0.5,0.25,0.25,2.25,10,initial,36.05,324,342,361,379,397,9,9,9,9,9,,,,,,,5,0,5,0,0,0,0,45,,,,,,,,,,,,num_4,0.9190911999903619,num_4,0.25,1.1,0.3,1.1,11.46165,42.02605,return,2.9384671000298113,,,,,,,,,,,,,,,,,906,23,male,left_right_width,2024-10-17_12h44.00.940,exp1,2023.1.0,60.043651717684554,
,,,,,,,,,,,,,,,,3,9.5,10,10.5,0,0,0.5,0.25,0.25,1.25,10,initial,36.05,342,361,379,0,0,9,9,9,0,0,,,,,,,5,0,5,0,0,1,1,29,,,,,,,,,,,,num_2,0.7540180999785662,num_2,0.45,1.6,0.30000000000000004,1.2,11.46165,45.8466,return,3.5994111000327393,,,,,,,,,,,,,,,,,906,23,male,left_right_width,2024-10-17_12h44.00.940,exp1,2023.1.0,60.043651717684554,
,,,,,,,,,,,,,,,,4,9.25,9.75,10.25,10.75,0,0.5,0.25,0.25,1.75,10,initial,36.05,333,351,370,388,0,9,9,9,9,0,,,,,,,5,0,5,0,0,2,2,37,,,,,,,,,,,,num_3,0.875371600035578,num_3,0.4,1.1,0.25000000000000006,1.0,9.55138,38.2055,return,2.9016082999296486,,,,,,,,,,,,,,,,,906,23,male,left_right_width,2024-10-17_12h44.00.940,exp1,2023.1.0,60.043651717684554,
,,,,,,,,,,,,,,,,4,9.25,9.75,10.25,10.75,0,0.5,0.25,0.25,1.75,10,initial,36.05,333,351,370,388,0,9,9,9,9,0,,,,,,,5,0,5,0,0,3,3,9,,,,,,,,,,,,num_3,1.344673699932173,num_3,0.5,0.6,0.30000000000000004,0.8,11.46165,30.5644,return,3.768888899940066,,,,,,,,,,,,,,,,,906,23,male,left_right_width,2024-10-17_12h44.00.940,exp1,2023.1.0,60.043651717684554,
,,,,,,,,,,,,,,,,5,9,9.5,10,10.5,11,0.5,0.25,0.25,2.25,10,initial,36.05,324,342,361,379,397,9,9,9,9,9,,,,,,,5,0,5,0,0,4,4,20,,,,,,,,,,,,num_4,0.9696780000813305,num_4,0.2,0.8,0.3,0.9,11.46165,34.38495,return,3.1655401000753045,,,,,,,,,,,,,,,,,906,23,male,left_right_width,2024-10-17_12h44.00.940,exp1,2023.1.0,60.043651717684554,
,,,,,,,,,,,,,,,,4,9.25,9.75,10.25,10.75,0,0.5,0.25,0.25,1.75,10,initial,36.05,333,351,370,388,0,9,9,9,9,0,,,,,,,5,0,5,0,0,5,5,41,,,,,,,,,,,,num_3,0.8684311000397429,num_3,0.3,1.3,0.3,0.75,11.46165,28.65413,return,6.26946889993269,,,,,,,,,,,,,,,,,906,23,male,left_right_width,2024-10-17_12h44.00.940,exp1,2023.1.0,60.043651717684554,
,,,,,,,,,,,,,,,,3,9.5,10,10.5,0,0,0.5,0.25,0.25,1.25,10,initial,36.05,342,361,379,0,0,9,9,9,0,0,,,,,,,5,0,5,0,0,6,6,5,,,,,,,,,,,,num_2,0.6951360000530258,num_2,0.55,1.2,0.30000000000000004,1.0,11.46165,38.2055,return,5.9770925000775605,,,,,,,,,,,,,,,,,906,23,male,left_right_width,2024-10-17_12h44.00.940,exp1,2023.1.0,60.043651717684554,
,,,,,,,,,,,,,,,,3,9.5,10,10.5,0,0,0.5,0.25,0.25,1.25,10,initial,36.05,342,361,379,0,0,9,9,9,0,0,,,,,,,5,0,5,0,0,7,7,7,,,,,,,,,,,,num_2,0.840352600091137,num_2,0.55,1.6,0.35000000000000003,1.2,13.37193,45.8466,return,3.1866425999905914,,,,,,,,,,,,,,,,,906,23,male,left_right_width,2024-10-17_12h44.00.940,exp1,2023.1.0,60.043651717684554,
,,,,,,,,,,,,,,,,5,9,9.5,10,10.5,11,0.5,0.25,0.25,2.25,10,initial,36.05,324,342,361,379,397,9,9,9,9,9,,,,,,,5,0,5,0,0,8,8,48,,,,,,,,,,,,num_4,0.9788300000363961,num_4,0.55,0.6,0.30000000000000004,0.8,11.46165,30.5644,return,4.424911899957806,,,,,,,,,,,,,,,,,906,23,male,left_right_width,2024-10-17_12h44.00.940,exp1,2023.1.0,60.043651717684554,
,,,,,,,,,,,,,,,,5,9,9.5,10,10.5,11,0.5,0.25,0.25,2.25,10,initial,36.05,324,342,361,379,397,9,9,9,9,9,,,,,,,5,0,5,0,0,9,9,53,,,,,,,,,,,,num_4,0.8098013999406248,num_4,0.5,0.7,0.4,0.9,15.2822,34.38495,return,3.160599899943918,,,,,,,,,,,,,,,,,906,23,male,left_right_width,2024-10-17_12h44.00.940,exp1,2023.1.0,60.043651717684554,
