amount_p,posx1_p,posx2_p,posx3_p,posx4_p,posx5_p,center_to_center_p,edge_to_edge_p,w_p,stim_length_p,eccentricity_p,line1_p,line2_p,line3_p,line4_p,line5_p,amount,posx1,posx2,posx3,posx4,posx5,center_to_center,edge_to_edge,w,stim_length,eccentricity,trial_type,deg_to_pix_index,posx1_in_pix,posx2_in_pix,posx3_in_pix,posx4_in_pix,posx5_in_pix,line1,line2,line3,line4,line5,posx,setsize_cobdi,trials.thisRepN,trials.thisTrialN,trials.thisN,trials.thisIndex,blocks.thisRepN,blocks.thisTrialN,blocks.thisN,blocks.thisIndex,loop.thisRepN,loop.thisTrialN,loop.thisN,loop.thisIndex,first.thisRepN,first.thisTrialN,first.thisN,first.thisIndex,second.thisRepN,second.thisTrialN,second.thisN,second.thisIndex,key_resp_3.started,key_resp_3.keys,key_resp_3.rt,key_resp.keys,key_resp.rt,response,starting_width_deg,starting_space_deg,response_width_degree,response_spacing_degree,response_width_pixel,response_spacing_pixel,next_5.keys,next_5.rt,key_resp_4.keys,key_resp_4.rt,text_3.started,text_4.started,key_resp_2.started,text_2.started,key_resp_2.keys,key_resp_2.rt,adjusting.started,next.keys,next.rt,text_control2.started,key_resp.started,key_resp.corr,text_bye.started,text_bye.stopped,participant,age,gender,resp_group,date,expName,psychopyVersion,frameRate,
,,,,,,,,,,,,,,,,,,,,,,,,,,,,,,,,,,,,,,,,,,,,,,,,,,,,,,,,,,,,,39.191313500050455,c,166.51082419999875,,,,,,,,,,,,,,,,,,,,,,,,,,,,907,20,female,up_down_width,2024-10-18_10h36.21.024,exp1,2023.1.0,59.98444007139262,
5,8.2,9.1,10,10.9,11.8,0.9,0.35,0.55,4.15,10,9,9,9,9,9,,,,,,,,,,,,,,,,,,,,,,,,,,0,0,0,2,,,,,,,,,,,,,,,,,,,,num_5,6.999177400022745,num_5,0.35,1.3,0.3,1.05,11.46165,40.11578,return,13.370785400038585,,,,,,,,,,,,,,,,,907,20,female,up_down_width,2024-10-18_10h36.21.024,exp1,2023.1.0,59.98444007139262,
5,9,9.5,10,10.5,11,0.5,0.1,0.4,2.4,10,9,9,9,9,9,,,,,,,,,,,,,,,,,,,,,,,,,,0,1,1,5,,,,,,,,,,,,,,,,,,,,num_4,1.6152377999387681,num_4,0.5,1.2,0.5,0.7,19.10275,26.74385,return,6.7489733000984415,,,,,,,,,,,,,,,,,907,20,female,up_down_width,2024-10-18_10h36.21.024,exp1,2023.1.0,59.98444007139262,
3,9.1,10,10.9,0,0,0.9,0.35,0.55,2.35,10,9,9,9,0,0,,,,,,,,,,,,,,,,,,,,,,,,,,0,2,2,3,,,,,,,,,,,,,,,,,,,,num_3,2.1346081000519916,num_3,0.55,1.2,0.55,1.15,21.01303,43.93633,return,2.1600783000467345,,,,,,,,,,,,,,,,,907,20,female,up_down_width,2024-10-18_10h36.21.024,exp1,2023.1.0,59.98444007139262,
3,9.5,10,10.5,0,0,0.5,0.25,0.25,1.25,10,9,9,9,0,0,,,,,,,,,,,,,,,,,,,,,,,,,,0,3,3,0,,,,,,,,,,,,,,,,,,,,num_3,1.9366399999707937,num_3,0.45,1.2,0.30000000000000004,0.9,11.46165,34.38495,return,7.790701400022954,,,,,,,,,,,,,,,,,907,20,female,up_down_width,2024-10-18_10h36.21.024,exp1,2023.1.0,59.98444007139262,
4,9.25,9.75,10.25,10.75,0,0.5,0.25,0.25,1.75,10,9,9,9,9,0,,,,,,,,,,,,,,,,,,,,,,,,,,0,4,4,1,,,,,,,,,,,,,,,,,,,,num_4,1.601316099986434,num_4,0.35,1.2,0.35,0.9,13.37193,34.38495,return,2.650458399904892,,,,,,,,,,,,,,,,,907,20,female,up_down_width,2024-10-18_10h36.21.024,exp1,2023.1.0,59.98444007139262,
4,9.25,9.75,10.25,10.75,0,0.5,0.1,0.4,1.9000000000000001,10,9,9,9,9,0,,,,,,,,,,,,,,,,,,,,,,,,,,0,5,5,4,,,,,,,,,,,,,,,,,,,,num_2,2.0394733001012355,num_2,0.25,0.6,0.3,0.5,11.46165,19.10275,return,4.4513712000334635,,,,,,,,,,,,,,,,,907,20,female,up_down_width,2024-10-18_10h36.21.024,exp1,2023.1.0,59.98444007139262,
,,,,,,,,,,,,,,,,,,,,,,,,,,,,,,,,,,,,,,,,,,,,,,,,,,,,,,,,,,,,,,,,,,,,,,,,,,,c,102.9130460000597,,,,,,,,,,,,,,,907,20,female,up_down_width,2024-10-18_10h36.21.024,exp1,2023.1.0,59.98444007139262,
,,,,,,,,,,,,,,,,3,9.5,10,10.5,0,0,0.5,0.1,0.4,1.4000000000000001,10,initial,36.05,342,361,379,0,0,9,9,9,0,0,,,,,,,0,0,0,0,0,0,0,5,,,,,,,,,,,,num_3,1.2297066999599338,num_3,0.4,1.3,0.45,0.7,17.19248,26.74385,return,4.065466100000776,,,,,,,,,,,,,,,,,907,20,female,up_down_width,2024-10-18_10h36.21.024,exp1,2023.1.0,59.98444007139262,
,,,,,,,,,,,,,,,,4,9.25,9.75,10.25,10.75,0,0.5,0.1,0.4,1.9000000000000001,10,initial,36.05,333,351,370,388,0,9,9,9,9,0,,,,,,,0,0,0,0,0,1,1,44,,,,,,,,,,,,num_4,1.134516799938865,num_4,0.2,1.1,0.44999999999999996,0.8,17.19248,30.5644,return,5.278141400078312,,,,,,,,,,,,,,,,,907,20,female,up_down_width,2024-10-18_10h36.21.024,exp1,2023.1.0,59.98444007139262,
,,,,,,,,,,,,,,,,3,9.5,10,10.5,0,0,0.5,0.1,0.4,1.4000000000000001,10,initial,36.05,342,361,379,0,0,9,9,9,0,0,,,,,,,0,0,0,0,0,2,2,28,,,,,,,,,,,,num_3,1.4283037999412045,num_3,0.4,1.3,0.45,0.8,17.19248,30.5644,return,4.257526200031862,,,,,,,,,,,,,,,,,907,20,female,up_down_width,2024-10-18_10h36.21.024,exp1,2023.1.0,59.98444007139262,
,,,,,,,,,,,,,,,,3,9.5,10,10.5,0,0,0.5,0.1,0.4,1.4000000000000001,10,initial,36.05,342,361,379,0,0,9,9,9,0,0,,,,,,,0,0,0,0,0,3,3,31,,,,,,,,,,,,num_3,0.995478400029242,num_3,0.35,0.4,0.3,0.8,11.46165,30.5644,return,6.793581199948676,,,,,,,,,,,,,,,,,907,20,female,up_down_width,2024-10-18_10h36.21.024,exp1,2023.1.0,59.98444007139262,
,,,,,,,,,,,,,,,,4,9.25,9.75,10.25,10.75,0,0.5,0.1,0.4,1.9000000000000001,10,initial,36.05,333,351,370,388,0,9,9,9,9,0,,,,,,,0,0,0,0,0,4,4,40,,,,,,,,,,,,num_3,1.1326048000482842,num_3,0.45,1.2,0.6500000000000001,1.1,24.83358,42.02605,return,2.074019999941811,,,,,,,,,,,,,,,,,907,20,female,up_down_width,2024-10-18_10h36.21.024,exp1,2023.1.0,59.98444007139262,
,,,,,,,,,,,,,,,,5,9,9.5,10,10.5,11,0.5,0.1,0.4,2.4,10,initial,36.05,324,342,361,379,397,9,9,9,9,9,,,,,,,0,0,0,0,0,5,5,48,,,,,,,,,,,,num_5,0.9482879999559373,num_5,0.35,1.3,0.44999999999999996,0.7,17.19248,26.74385,return,2.987048900104128,,,,,,,,,,,,,,,,,907,20,female,up_down_width,2024-10-18_10h36.21.024,exp1,2023.1.0,59.98444007139262,
,,,,,,,,,,,,,,,,5,9,9.5,10,10.5,11,0.5,0.1,0.4,2.4,10,initial,36.05,324,342,361,379,397,9,9,9,9,9,,,,,,,0,0,0,0,0,6,6,53,,,,,,,,,,,,num_4,1.0674553000135347,num_4,0.35,0.8,0.35,0.7,13.37193,26.74385,return,0.7800669999560341,,,,,,,,,,,,,,,,,907,20,female,up_down_width,2024-10-18_10h36.21.024,exp1,2023.1.0,59.98444007139262,
,,,,,,,,,,,,,,,,4,9.25,9.75,10.25,10.75,0,0.5,0.1,0.4,1.9000000000000001,10,initial,36.05,333,351,370,388,0,9,9,9,9,0,,,,,,,0,0,0,0,0,7,7,9,,,,,,,,,,,,num_3,1.1610638001002371,num_3,0.55,1,0.35000000000000003,0.75,13.37193,28.65413,return,3.1407596999779344,,,,,,,,,,,,,,,,,907,20,female,up_down_width,2024-10-18_10h36.21.024,exp1,2023.1.0,59.98444007139262,
,,,,,,,,,,,,,,,,4,9.25,9.75,10.25,10.75,0,0.5,0.1,0.4,1.9000000000000001,10,initial,36.05,333,351,370,388,0,9,9,9,9,0,,,,,,,0,0,0,0,0,8,8,36,,,,,,,,,,,,num_3,0.801849800045602,num_3,0.45,0.6,0.45,0.65,17.19248,24.83358,return,4.3968505000229925,,,,,,,,,,,,,,,,,907,20,female,up_down_width,2024-10-18_10h36.21.024,exp1,2023.1.0,59.98444007139262,
,,,,,,,,,,,,,,,,3,9.5,10,10.5,0,0,0.5,0.1,0.4,1.4000000000000001,10,initial,36.05,342,361,379,0,0,9,9,9,0,0,,,,,,,0,0,0,0,0,9,9,2,,,,,,,,,,,,num_3,0.7727175999898463,num_3,0.5,0.7,0.5,0.7,19.10275,26.74385,return,0.7084284999873489,,,,,,,,,,,,,,,,,907,20,female,up_down_width,2024-10-18_10h36.21.024,exp1,2023.1.0,59.98444007139262,
,,,,,,,,,,,,,,,,4,9.25,9.75,10.25,10.75,0,0.5,0.1,0.4,1.9000000000000001,10,initial,36.05,333,351,370,388,0,9,9,9,9,0,,,,,,,0,0,0,0,0,10,10,37,,,,,,,,,,,,num_3,0.8178768999641761,num_3,0.55,0.6,0.55,0.6,21.01303,22.9233,return,0.09314329992048442,,,,,,,,,,,,,,,,,907,20,female,up_down_width,2024-10-18_10h36.21.024,exp1,2023.1.0,59.98444007139262,
,,,,,,,,,,,,,,,,4,9.25,9.75,10.25,10.75,0,0.5,0.1,0.4,1.9000000000000001,10,initial,36.05,333,351,370,388,0,9,9,9,9,0,,,,,,,0,0,0,0,0,11,11,10,,,,,,,,,,,,num_3,0.9361174000659958,num_3,0.5,0.6,0.5,0.65,19.10275,24.83358,return,1.1054642000235617,,,,,,,,,,,,,,,,,907,20,female,up_down_width,2024-10-18_10h36.21.024,exp1,2023.1.0,59.98444007139262,
,,,,,,,,,,,,,,,,5,9,9.5,10,10.5,11,0.5,0.1,0.4,2.4,10,initial,36.05,324,342,361,379,397,9,9,9,9,9,,,,,,,0,0,0,0,0,12,12,47,,,,,,,,,,,,num_5,1.3142151000211015,num_5,0.25,0.8,0.44999999999999996,0.55,17.19248,21.01303,return,4.78202110005077,,,,,,,,,,,,,,,,,907,20,female,up_down_width,2024-10-18_10h36.21.024,exp1,2023.1.0,59.98444007139262,
,,,,,,,,,,,,,,,,4,9.25,9.75,10.25,10.75,0,0.5,0.1,0.4,1.9000000000000001,10,initial,36.05,333,351,370,388,0,9,9,9,9,0,,,,,,,0,0,0,0,0,13,13,39,,,,,,,,,,,,num_4,0.9433516999706626,num_4,0.3,0.9,0.39999999999999997,0.6,15.2822,22.9233,return,2.0556342999916524,,,,,,,,,,,,,,,,,907,20,female,up_down_width,2024-10-18_10h36.21.024,exp1,2023.1.0,59.98444007139262,
,,,,,,,,,,,,,,,,5,9,9.5,10,10.5,11,0.5,0.1,0.4,2.4,10,initial,36.05,324,342,361,379,397,9,9,9,9,9,,,,,,,0,0,0,0,0,14,14,24,,,,,,,,,,,,num_6,0.909577100072056,num_6,0.45,0.7,0.45,0.7,17.19248,26.74385,return,1.5431471000192687,,,,,,,,,,,,,,,,,907,20,female,up_down_width,2024-10-18_10h36.21.024,exp1,2023.1.0,59.98444007139262,
,,,,,,,,,,,,,,,,4,9.25,9.75,10.25,10.75,0,0.5,0.1,0.4,1.9000000000000001,10,initial,36.05,333,351,370,388,0,9,9,9,9,0,,,,,,,0,0,0,0,0,15,15,11,,,,,,,,,,,,num_3,0.9097940999781713,num_3,0.25,0.6,0.39999999999999997,0.65,15.2822,24.83358,return,2.1031809999840334,,,,,,,,,,,,,,,,,907,20,female,up_down_width,2024-10-18_10h36.21.024,exp1,2023.1.0,59.98444007139262,
,,,,,,,,,,,,,,,,4,9.25,9.75,10.25,10.75,0,0.5,0.1,0.4,1.9000000000000001,10,initial,36.05,333,351,370,388,0,9,9,9,9,0,,,,,,,0,0,0,0,0,16,16,13,,,,,,,,,,,,num_3,0.7367228000657633,num_3,0.55,0.6,0.4,0.55,15.2822,21.01303,return,1.8236699999542907,,,,,,,,,,,,,,,,,907,20,female,up_down_width,2024-10-18_10h36.21.024,exp1,2023.1.0,59.98444007139262,
,,,,,,,,,,,,,,,,5,9,9.5,10,10.5,11,0.5,0.1,0.4,2.4,10,initial,36.05,324,342,361,379,397,9,9,9,9,9,,,,,,,0,0,0,0,0,17,17,46,,,,,,,,,,,,num_4,0.9184570999350399,num_4,0.3,1.2,0.39999999999999997,0.6,15.2822,22.9233,return,3.807958999997936,,,,,,,,,,,,,,,,,907,20,female,up_down_width,2024-10-18_10h36.21.024,exp1,2023.1.0,59.98444007139262,
,,,,,,,,,,,,,,,,5,9,9.5,10,10.5,11,0.5,0.1,0.4,2.4,10,initial,36.05,324,342,361,379,397,9,9,9,9,9,,,,,,,0,0,0,0,0,18,18,21,,,,,,,,,,,,num_5,1.0663511999882758,num_5,0.4,0.8,0.4,0.65,15.2822,24.83358,return,1.9833258000435308,,,,,,,,,,,,,,,,,907,20,female,up_down_width,2024-10-18_10h36.21.024,exp1,2023.1.0,59.98444007139262,
,,,,,,,,,,,,,,,,3,9.5,10,10.5,0,0,0.5,0.1,0.4,1.4000000000000001,10,initial,36.05,342,361,379,0,0,9,9,9,0,0,,,,,,,0,0,0,0,0,19,19,34,,,,,,,,,,,,num_3,1.3995856000110507,num_3,0.35,0.7,0.39999999999999997,0.7,15.2822,26.74385,return,1.321140700019896,,,,,,,,,,,,,,,,,907,20,female,up_down_width,2024-10-18_10h36.21.024,exp1,2023.1.0,59.98444007139262,
,,,,,,,,,,,,,,,,5,9,9.5,10,10.5,11,0.5,0.1,0.4,2.4,10,initial,36.05,324,342,361,379,397,9,9,9,9,9,,,,,,,0,0,0,0,0,20,20,50,,,,,,,,,,,,num_4,0.9063183999387547,num_4,0.4,1.2,0.4,0.7,15.2822,26.74385,return,1.382535400101915,,,,,,,,,,,,,,,,,907,20,female,up_down_width,2024-10-18_10h36.21.024,exp1,2023.1.0,59.98444007139262,
,,,,,,,,,,,,,,,,4,9.25,9.75,10.25,10.75,0,0.5,0.1,0.4,1.9000000000000001,10,initial,36.05,333,351,370,388,0,9,9,9,9,0,,,,,,,0,0,0,0,0,21,21,42,,,,,,,,,,,,num_4,0.8605214999988675,num_4,0.25,1.2,0.44999999999999996,0.6,17.19248,22.9233,return,1.8955704000545666,,,,,,,,,,,,,,,,,907,20,female,up_down_width,2024-10-18_10h36.21.024,exp1,2023.1.0,59.98444007139262,
,,,,,,,,,,,,,,,,5,9,9.5,10,10.5,11,0.5,0.1,0.4,2.4,10,initial,36.05,324,342,361,379,397,9,9,9,9,9,,,,,,,0,0,0,0,0,22,22,19,,,,,,,,,,,,num_4,0.9894036999903619,num_4,0.25,0.6,0.25,0.5,9.55138,19.10275,return,0.7182855999562889,,,,,,,,,,,,,,,,,907,20,female,up_down_width,2024-10-18_10h36.21.024,exp1,2023.1.0,59.98444007139262,
,,,,,,,,,,,,,,,,5,9,9.5,10,10.5,11,0.5,0.1,0.4,2.4,10,initial,36.05,324,342,361,379,397,9,9,9,9,9,,,,,,,0,0,0,0,0,23,23,20,,,,,,,,,,,,num_4,0.8522311999695376,num_4,0.25,0.8,0.6,0.8,22.9233,30.5644,return,1.389737299992703,,,,,,,,,,,,,,,,,907,20,female,up_down_width,2024-10-18_10h36.21.024,exp1,2023.1.0,59.98444007139262,
,,,,,,,,,,,,,,,,5,9,9.5,10,10.5,11,0.5,0.1,0.4,2.4,10,initial,36.05,324,342,361,379,397,9,9,9,9,9,,,,,,,0,0,0,0,0,24,24,23,,,,,,,,,,,,num_4,0.8128633999731392,num_4,0.25,0.4,0.35,0.5,13.37193,19.10275,return,2.5067198000615463,,,,,,,,,,,,,,,,,907,20,female,up_down_width,2024-10-18_10h36.21.024,exp1,2023.1.0,59.98444007139262,
,,,,,,,,,,,,,,,,3,9.5,10,10.5,0,0,0.5,0.1,0.4,1.4000000000000001,10,initial,36.05,342,361,379,0,0,9,9,9,0,0,,,,,,,0,0,0,0,0,25,25,29,,,,,,,,,,,,num_3,0.8326417999342084,num_3,0.2,0.5,0.39999999999999997,0.6,15.2822,22.9233,return,2.3729240000247955,,,,,,,,,,,,,,,,,907,20,female,up_down_width,2024-10-18_10h36.21.024,exp1,2023.1.0,59.98444007139262,
,,,,,,,,,,,,,,,,3,9.5,10,10.5,0,0,0.5,0.1,0.4,1.4000000000000001,10,initial,36.05,342,361,379,0,0,9,9,9,0,0,,,,,,,0,0,0,0,0,26,26,3,,,,,,,,,,,,num_3,1.3887134999968112,num_3,0.45,0.9,0.4,0.9,15.2822,34.38495,return,0.9416227000765502,,,,,,,,,,,,,,,,,907,20,female,up_down_width,2024-10-18_10h36.21.024,exp1,2023.1.0,59.98444007139262,
,,,,,,,,,,,,,,,,3,9.5,10,10.5,0,0,0.5,0.1,0.4,1.4000000000000001,10,initial,36.05,342,361,379,0,0,9,9,9,0,0,,,,,,,0,0,0,0,0,27,27,32,,,,,,,,,,,,num_3,0.7956297999480739,num_3,0.4,1,0.45,1,17.19248,38.2055,return,0.9633002000628039,,,,,,,,,,,,,,,,,907,20,female,up_down_width,2024-10-18_10h36.21.024,exp1,2023.1.0,59.98444007139262,
,,,,,,,,,,,,,,,,3,9.5,10,10.5,0,0,0.5,0.1,0.4,1.4000000000000001,10,initial,36.05,342,361,379,0,0,9,9,9,0,0,,,,,,,0,0,0,0,0,28,28,6,,,,,,,,,,,,num_3,0.8559937999816611,num_3,0.35,0.6,0.35,0.6,13.37193,22.9233,return,0.5437447000294924,,,,,,,,,,,,,,,,,907,20,female,up_down_width,2024-10-18_10h36.21.024,exp1,2023.1.0,59.98444007139262,
,,,,,,,,,,,,,,,,5,9,9.5,10,10.5,11,0.5,0.1,0.4,2.4,10,initial,36.05,324,342,361,379,397,9,9,9,9,9,,,,,,,0,0,0,0,0,29,29,18,,,,,,,,,,,,num_4,0.9325742999790236,num_4,0.3,0.6,0.3,0.6,11.46165,22.9233,return,0.4141634999541566,,,,,,,,,,,,,,,,,907,20,female,up_down_width,2024-10-18_10h36.21.024,exp1,2023.1.0,59.98444007139262,
,,,,,,,,,,,,,,,,4,9.25,9.75,10.25,10.75,0,0.5,0.1,0.4,1.9000000000000001,10,initial,36.05,333,351,370,388,0,9,9,9,9,0,,,,,,,0,0,0,0,0,30,30,43,,,,,,,,,,,,num_4,0.6775976999197155,num_4,0.2,1.1,0.44999999999999996,0.6,17.19248,22.9233,return,2.6968143999110907,,,,,,,,,,,,,,,,,907,20,female,up_down_width,2024-10-18_10h36.21.024,exp1,2023.1.0,59.98444007139262,
,,,,,,,,,,,,,,,,5,9,9.5,10,10.5,11,0.5,0.1,0.4,2.4,10,initial,36.05,324,342,361,379,397,9,9,9,9,9,,,,,,,0,0,0,0,0,31,31,49,,,,,,,,,,,,num_5,0.9751007000450045,num_5,0.25,1.0,0.25,1.0,9.55138,38.2055,return,0.4209551999811083,,,,,,,,,,,,,,,,,907,20,female,up_down_width,2024-10-18_10h36.21.024,exp1,2023.1.0,59.98444007139262,
,,,,,,,,,,,,,,,,5,9,9.5,10,10.5,11,0.5,0.1,0.4,2.4,10,initial,36.05,324,342,361,379,397,9,9,9,9,9,,,,,,,0,0,0,0,0,32,32,22,,,,,,,,,,,,num_5,0.9350334000773728,num_5,0.25,1.0,0.25,1.0,9.55138,38.2055,return,0.3024508999660611,,,,,,,,,,,,,,,,,907,20,female,up_down_width,2024-10-18_10h36.21.024,exp1,2023.1.0,59.98444007139262,
,,,,,,,,,,,,,,,,5,9,9.5,10,10.5,11,0.5,0.1,0.4,2.4,10,initial,36.05,324,342,361,379,397,9,9,9,9,9,,,,,,,0,0,0,0,0,33,33,52,,,,,,,,,,,,num_5,0.39018869993742555,num_5,0.25,0.3,0.25,0.45,9.55138,17.19248,return,1.268030200037174,,,,,,,,,,,,,,,,,907,20,female,up_down_width,2024-10-18_10h36.21.024,exp1,2023.1.0,59.98444007139262,
,,,,,,,,,,,,,,,,5,9,9.5,10,10.5,11,0.5,0.1,0.4,2.4,10,initial,36.05,324,342,361,379,397,9,9,9,9,9,,,,,,,0,0,0,0,0,34,34,26,,,,,,,,,,,,num_5,0.8912155000725761,num_5,0.25,1.2,0.39999999999999997,0.7,15.2822,26.74385,return,3.2055976000847295,,,,,,,,,,,,,,,,,907,20,female,up_down_width,2024-10-18_10h36.21.024,exp1,2023.1.0,59.98444007139262,
,,,,,,,,,,,,,,,,4,9.25,9.75,10.25,10.75,0,0.5,0.1,0.4,1.9000000000000001,10,initial,36.05,333,351,370,388,0,9,9,9,9,0,,,,,,,0,0,0,0,0,35,35,17,,,,,,,,,,,,num_3,0.899311300017871,num_3,0.35,1,0.35,1,13.37193,38.2055,return,0.2657233999343589,,,,,,,,,,,,,,,,,907,20,female,up_down_width,2024-10-18_10h36.21.024,exp1,2023.1.0,59.98444007139262,
,,,,,,,,,,,,,,,,3,9.5,10,10.5,0,0,0.5,0.1,0.4,1.4000000000000001,10,initial,36.05,342,361,379,0,0,9,9,9,0,0,,,,,,,0,0,0,0,0,36,36,35,,,,,,,,,,,,num_3,0.7621528999879956,num_3,0.5,0.8,0.4,0.75,15.2822,28.65413,return,1.509779299958609,,,,,,,,,,,,,,,,,907,20,female,up_down_width,2024-10-18_10h36.21.024,exp1,2023.1.0,59.98444007139262,
,,,,,,,,,,,,,,,,5,9,9.5,10,10.5,11,0.5,0.1,0.4,2.4,10,initial,36.05,324,342,361,379,397,9,9,9,9,9,,,,,,,0,0,0,0,0,37,37,51,,,,,,,,,,,,num_4,0.7597801999654621,num_4,0.4,0.6,0.45,0.8,17.19248,30.5644,return,1.9225190998986363,,,,,,,,,,,,,,,,,907,20,female,up_down_width,2024-10-18_10h36.21.024,exp1,2023.1.0,59.98444007139262,
,,,,,,,,,,,,,,,,3,9.5,10,10.5,0,0,0.5,0.1,0.4,1.4000000000000001,10,initial,36.05,342,361,379,0,0,9,9,9,0,0,,,,,,,0,0,0,0,0,38,38,30,,,,,,,,,,,,num_3,0.8444679999956861,num_3,0.55,0.6,0.35000000000000003,0.6,13.37193,22.9233,return,4.48429070005659,,,,,,,,,,,,,,,,,907,20,female,up_down_width,2024-10-18_10h36.21.024,exp1,2023.1.0,59.98444007139262,
,,,,,,,,,,,,,,,,3,9.5,10,10.5,0,0,0.5,0.1,0.4,1.4000000000000001,10,initial,36.05,342,361,379,0,0,9,9,9,0,0,,,,,,,0,0,0,0,0,39,39,1,,,,,,,,,,,,num_3,1.3661572000710294,num_3,0.4,0.8,0.4,0.8,15.2822,30.5644,return,0.6872666000854224,,,,,,,,,,,,,,,,,907,20,female,up_down_width,2024-10-18_10h36.21.024,exp1,2023.1.0,59.98444007139262,
,,,,,,,,,,,,,,,,3,9.5,10,10.5,0,0,0.5,0.1,0.4,1.4000000000000001,10,initial,36.05,342,361,379,0,0,9,9,9,0,0,,,,,,,0,0,0,0,0,40,40,0,,,,,,,,,,,,num_3,0.9507066999794915,num_3,0.55,0.8,0.55,0.8,21.01303,30.5644,return,0.12715730001218617,,,,,,,,,,,,,,,,,907,20,female,up_down_width,2024-10-18_10h36.21.024,exp1,2023.1.0,59.98444007139262,
,,,,,,,,,,,,,,,,3,9.5,10,10.5,0,0,0.5,0.1,0.4,1.4000000000000001,10,initial,36.05,342,361,379,0,0,9,9,9,0,0,,,,,,,0,0,0,0,0,41,41,8,,,,,,,,,,,,num_2,0.9259701000992209,num_2,0.3,0.6,0.35,0.7,13.37193,26.74385,return,1.4639617999782786,,,,,,,,,,,,,,,,,907,20,female,up_down_width,2024-10-18_10h36.21.024,exp1,2023.1.0,59.98444007139262,
,,,,,,,,,,,,,,,,5,9,9.5,10,10.5,11,0.5,0.1,0.4,2.4,10,initial,36.05,324,342,361,379,397,9,9,9,9,9,,,,,,,0,0,0,0,0,42,42,25,,,,,,,,,,,,num_4,0.8330312999896705,num_4,0.45,0.5,0.30000000000000004,0.7,11.46165,26.74385,return,2.8257668999722227,,,,,,,,,,,,,,,,,907,20,female,up_down_width,2024-10-18_10h36.21.024,exp1,2023.1.0,59.98444007139262,
,,,,,,,,,,,,,,,,3,9.5,10,10.5,0,0,0.5,0.1,0.4,1.4000000000000001,10,initial,36.05,342,361,379,0,0,9,9,9,0,0,,,,,,,0,0,0,0,0,43,43,33,,,,,,,,,,,,num_2,0.9894845999078825,num_2,0.55,1.4,0.25000000000000006,0.8,9.55138,30.5644,return,2.7840506000211462,,,,,,,,,,,,,,,,,907,20,female,up_down_width,2024-10-18_10h36.21.024,exp1,2023.1.0,59.98444007139262,
,,,,,,,,,,,,,,,,3,9.5,10,10.5,0,0,0.5,0.1,0.4,1.4000000000000001,10,initial,36.05,342,361,379,0,0,9,9,9,0,0,,,,,,,0,0,0,0,0,44,44,4,,,,,,,,,,,,num_3,0.7345615000231192,num_3,0.5,0.9,0.45,0.7,17.19248,26.74385,return,2.2875928999856114,,,,,,,,,,,,,,,,,907,20,female,up_down_width,2024-10-18_10h36.21.024,exp1,2023.1.0,59.98444007139262,
,,,,,,,,,,,,,,,,4,9.25,9.75,10.25,10.75,0,0.5,0.1,0.4,1.9000000000000001,10,initial,36.05,333,351,370,388,0,9,9,9,9,0,,,,,,,0,0,0,0,0,45,45,38,,,,,,,,,,,,num_4,0.9075111000565812,num_4,0.2,0.7,0.39999999999999997,0.5,15.2822,19.10275,return,2.449203799944371,,,,,,,,,,,,,,,,,907,20,female,up_down_width,2024-10-18_10h36.21.024,exp1,2023.1.0,59.98444007139262,
,,,,,,,,,,,,,,,,3,9.5,10,10.5,0,0,0.5,0.1,0.4,1.4000000000000001,10,initial,36.05,342,361,379,0,0,9,9,9,0,0,,,,,,,0,0,0,0,0,46,46,27,,,,,,,,,,,,num_5,4.727669700048864,num_5,0.4,0.7,0.4,0.6,15.2822,22.9233,return,0.8230463999789208,,,,,,,,,,,,,,,,,907,20,female,up_down_width,2024-10-18_10h36.21.024,exp1,2023.1.0,59.98444007139262,
,,,,,,,,,,,,,,,,4,9.25,9.75,10.25,10.75,0,0.5,0.1,0.4,1.9000000000000001,10,initial,36.05,333,351,370,388,0,9,9,9,9,0,,,,,,,0,0,0,0,0,47,47,41,,,,,,,,,,,,num_2,0.44772930000908673,num_2,0.45,1.6,0.45,1.6,17.19248,61.12881,return,0.04423460003454238,,,,,,,,,,,,,,,,,907,20,female,up_down_width,2024-10-18_10h36.21.024,exp1,2023.1.0,59.98444007139262,
,,,,,,,,,,,,,,,,4,9.25,9.75,10.25,10.75,0,0.5,0.1,0.4,1.9000000000000001,10,initial,36.05,333,351,370,388,0,9,9,9,9,0,,,,,,,0,0,0,0,0,48,48,12,,,,,,,,,,,,num_3,0.9895876999944448,num_3,0.2,1,0.44999999999999996,0.7,17.19248,26.74385,return,2.644723300007172,,,,,,,,,,,,,,,,,907,20,female,up_down_width,2024-10-18_10h36.21.024,exp1,2023.1.0,59.98444007139262,
,,,,,,,,,,,,,,,,4,9.25,9.75,10.25,10.75,0,0.5,0.1,0.4,1.9000000000000001,10,initial,36.05,333,351,370,388,0,9,9,9,9,0,,,,,,,0,0,0,0,0,49,49,15,,,,,,,,,,,,num_3,1.5659327999455854,num_3,0.4,1,0.45,0.75,17.19248,28.65413,return,2.7033216999843717,,,,,,,,,,,,,,,,,907,20,female,up_down_width,2024-10-18_10h36.21.024,exp1,2023.1.0,59.98444007139262,
,,,,,,,,,,,,,,,,3,9.5,10,10.5,0,0,0.5,0.1,0.4,1.4000000000000001,10,initial,36.05,342,361,379,0,0,9,9,9,0,0,,,,,,,0,0,0,0,0,50,50,7,,,,,,,,,,,,num_3,1.2350982000352815,num_3,0.45,1.3,0.45,0.7,17.19248,26.74385,return,2.3494539000093937,,,,,,,,,,,,,,,,,907,20,female,up_down_width,2024-10-18_10h36.21.024,exp1,2023.1.0,59.98444007139262,
,,,,,,,,,,,,,,,,4,9.25,9.75,10.25,10.75,0,0.5,0.1,0.4,1.9000000000000001,10,initial,36.05,333,351,370,388,0,9,9,9,9,0,,,,,,,0,0,0,0,0,51,51,14,,,,,,,,,,,,num_4,1.1879856999730691,num_4,0.25,0.3,0.25,0.5,9.55138,19.10275,return,1.938590900041163,,,,,,,,,,,,,,,,,907,20,female,up_down_width,2024-10-18_10h36.21.024,exp1,2023.1.0,59.98444007139262,
,,,,,,,,,,,,,,,,4,9.25,9.75,10.25,10.75,0,0.5,0.1,0.4,1.9000000000000001,10,initial,36.05,333,351,370,388,0,9,9,9,9,0,,,,,,,0,0,0,0,0,52,52,16,,,,,,,,,,,,num_3,1.2090251999907196,num_3,0.3,1,0.39999999999999997,0.6,15.2822,22.9233,return,2.4230469000758603,,,,,,,,,,,,,,,,,907,20,female,up_down_width,2024-10-18_10h36.21.024,exp1,2023.1.0,59.98444007139262,
,,,,,,,,,,,,,,,,5,9,9.5,10,10.5,11,0.5,0.1,0.4,2.4,10,initial,36.05,324,342,361,379,397,9,9,9,9,9,,,,,,,0,0,0,0,0,53,53,45,,,,,,,,,,,,num_4,0.8730901000089943,num_4,0.2,1.0,0.35,0.6,13.37193,22.9233,return,2.2138085999758914,,,,,,,,,,,,,,,,,907,20,female,up_down_width,2024-10-18_10h36.21.024,exp1,2023.1.0,59.98444007139262,
,,,,,,,,,,,,,,,,,,,,,,,,,,,,,,,,,,,,,,,,,,,,,0,0,0,0,,,,,,,,,,,,,,,,,,,,,,,,,,,,,627.8978511999594,627.8978511999594,627.8978511999594,,,,,,,,,,,,907,20,female,up_down_width,2024-10-18_10h36.21.024,exp1,2023.1.0,59.98444007139262,
,,,,,,,,,,,,,,,,3,9.5,10,10.5,0,0,0.5,0.25,0.25,1.25,10,initial,36.05,342,361,379,0,0,9,9,9,0,0,,,,,,,1,0,1,0,0,0,0,7,,,,,,,,,,,,num_3,1.2797323000850156,num_3,0.5,0.8,0.35000000000000003,0.8,13.37193,30.5644,return,1.9428049999987707,,,,,,,,,,,,,,,,,907,20,female,up_down_width,2024-10-18_10h36.21.024,exp1,2023.1.0,59.98444007139262,
,,,,,,,,,,,,,,,,3,9.5,10,10.5,0,0,0.5,0.25,0.25,1.25,10,initial,36.05,342,361,379,0,0,9,9,9,0,0,,,,,,,1,0,1,0,0,1,1,27,,,,,,,,,,,,num_3,0.6022270999383181,num_3,0.3,1.3,0.25,0.85,9.55138,32.47468,return,3.6493729999056086,,,,,,,,,,,,,,,,,907,20,female,up_down_width,2024-10-18_10h36.21.024,exp1,2023.1.0,59.98444007139262,
,,,,,,,,,,,,,,,,3,9.5,10,10.5,0,0,0.5,0.25,0.25,1.25,10,initial,36.05,342,361,379,0,0,9,9,9,0,0,,,,,,,1,0,1,0,0,2,2,29,,,,,,,,,,,,num_3,0.8605167999630794,num_3,0.2,1.1,0.2,0.8,7.6411,30.5644,return,1.6887770000612363,,,,,,,,,,,,,,,,,907,20,female,up_down_width,2024-10-18_10h36.21.024,exp1,2023.1.0,59.98444007139262,
,,,,,,,,,,,,,,,,4,9.25,9.75,10.25,10.75,0,0.5,0.25,0.25,1.75,10,initial,36.05,333,351,370,388,0,9,9,9,9,0,,,,,,,1,0,1,0,0,3,3,15,,,,,,,,,,,,num_3,0.7700003000209108,num_3,0.35,1.1,0.35,1.05,13.37193,40.11578,return,0.3375956999370828,,,,,,,,,,,,,,,,,907,20,female,up_down_width,2024-10-18_10h36.21.024,exp1,2023.1.0,59.98444007139262,
,,,,,,,,,,,,,,,,5,9,9.5,10,10.5,11,0.5,0.25,0.25,2.25,10,initial,36.05,324,342,361,379,397,9,9,9,9,9,,,,,,,1,0,1,0,0,4,4,18,,,,,,,,,,,,num_4,1.0348517999518663,num_4,0.25,1.1,0.25,0.6,9.55138,22.9233,return,1.1848387999925762,,,,,,,,,,,,,,,,,907,20,female,up_down_width,2024-10-18_10h36.21.024,exp1,2023.1.0,59.98444007139262,
,,,,,,,,,,,,,,,,3,9.5,10,10.5,0,0,0.5,0.25,0.25,1.25,10,initial,36.05,342,361,379,0,0,9,9,9,0,0,,,,,,,1,0,1,0,0,5,5,30,,,,,,,,,,,,num_2,1.235172399901785,num_2,0.35,1.4,0.35,0.9,13.37193,34.38495,return,1.296927799936384,,,,,,,,,,,,,,,,,907,20,female,up_down_width,2024-10-18_10h36.21.024,exp1,2023.1.0,59.98444007139262,
,,,,,,,,,,,,,,,,4,9.25,9.75,10.25,10.75,0,0.5,0.25,0.25,1.75,10,initial,36.05,333,351,370,388,0,9,9,9,9,0,,,,,,,1,0,1,0,0,6,6,39,,,,,,,,,,,,num_4,0.7975470999954268,num_4,0.45,1.3,0.45,1.3,17.19248,49.66716,return,0.20443400007206947,,,,,,,,,,,,,,,,,907,20,female,up_down_width,2024-10-18_10h36.21.024,exp1,2023.1.0,59.98444007139262,
,,,,,,,,,,,,,,,,3,9.5,10,10.5,0,0,0.5,0.25,0.25,1.25,10,initial,36.05,342,361,379,0,0,9,9,9,0,0,,,,,,,1,0,1,0,0,7,7,28,,,,,,,,,,,,num_2,0.8436494999332353,num_2,0.2,0.4,-0.3,0.8,-11.46165,30.5644,return,10.984721599961631,,,,,,,,,,,,,,,,,907,20,female,up_down_width,2024-10-18_10h36.21.024,exp1,2023.1.0,59.98444007139262,
,,,,,,,,,,,,,,,,5,9,9.5,10,10.5,11,0.5,0.25,0.25,2.25,10,initial,36.05,324,342,361,379,397,9,9,9,9,9,,,,,,,1,0,1,0,0,8,8,47,,,,,,,,,,,,num_4,0.9853752000490203,num_4,0.3,0.5,0.2,1.3,7.6411,49.66716,return,2.763238099985756,,,,,,,,,,,,,,,,,907,20,female,up_down_width,2024-10-18_10h36.21.024,exp1,2023.1.0,59.98444007139262,
,,,,,,,,,,,,,,,,3,9.5,10,10.5,0,0,0.5,0.25,0.25,1.25,10,initial,36.05,342,361,379,0,0,9,9,9,0,0,,,,,,,1,0,1,0,0,9,9,2,,,,,,,,,,,,num_2,1.123794800019823,num_2,0.25,0.6,0.25,1.3,9.55138,49.66716,return,2.0026734999846667,,,,,,,,,,,,,,,,,907,20,female,up_down_width,2024-10-18_10h36.21.024,exp1,2023.1.0,59.98444007139262,
,,,,,,,,,,,,,,,,4,9.25,9.75,10.25,10.75,0,0.5,0.25,0.25,1.75,10,initial,36.05,333,351,370,388,0,9,9,9,9,0,,,,,,,1,0,1,0,0,10,10,43,,,,,,,,,,,,num_4,0.8080309999641031,num_4,0.3,0.7,0.3,0.8,11.46165,30.5644,return,0.7871248000301421,,,,,,,,,,,,,,,,,907,20,female,up_down_width,2024-10-18_10h36.21.024,exp1,2023.1.0,59.98444007139262,
,,,,,,,,,,,,,,,,4,9.25,9.75,10.25,10.75,0,0.5,0.25,0.25,1.75,10,initial,36.05,333,351,370,388,0,9,9,9,9,0,,,,,,,1,0,1,0,0,11,11,37,,,,,,,,,,,,num_4,1.0280439000343904,num_4,0.3,1.2,0.3,1.0,11.46165,38.2055,return,2.1855959999375045,,,,,,,,,,,,,,,,,907,20,female,up_down_width,2024-10-18_10h36.21.024,exp1,2023.1.0,59.98444007139262,
,,,,,,,,,,,,,,,,5,9,9.5,10,10.5,11,0.5,0.25,0.25,2.25,10,initial,36.05,324,342,361,379,397,9,9,9,9,9,,,,,,,1,0,1,0,0,12,12,19,,,,,,,,,,,,num_4,0.7326027000090107,num_4,0.3,1.2,0.3,1.4,11.46165,53.48771,return,1.5617720000445843,,,,,,,,,,,,,,,,,907,20,female,up_down_width,2024-10-18_10h36.21.024,exp1,2023.1.0,59.98444007139262,
,,,,,,,,,,,,,,,,5,9,9.5,10,10.5,11,0.5,0.25,0.25,2.25,10,initial,36.05,324,342,361,379,397,9,9,9,9,9,,,,,,,1,0,1,0,0,13,13,25,,,,,,,,,,,,num_4,0.8247680999338627,num_4,0.25,0.5,0.25,1.2,9.55138,45.8466,return,1.9262503000209108,,,,,,,,,,,,,,,,,907,20,female,up_down_width,2024-10-18_10h36.21.024,exp1,2023.1.0,59.98444007139262,
,,,,,,,,,,,,,,,,4,9.25,9.75,10.25,10.75,0,0.5,0.25,0.25,1.75,10,initial,36.05,333,351,370,388,0,9,9,9,9,0,,,,,,,1,0,1,0,0,14,14,11,,,,,,,,,,,,num_4,0.7145697999512777,num_4,0.4,0.5,0.4,1.1,15.2822,42.02605,return,1.8189880000427365,,,,,,,,,,,,,,,,,907,20,female,up_down_width,2024-10-18_10h36.21.024,exp1,2023.1.0,59.98444007139262,
,,,,,,,,,,,,,,,,5,9,9.5,10,10.5,11,0.5,0.25,0.25,2.25,10,initial,36.05,324,342,361,379,397,9,9,9,9,9,,,,,,,1,0,1,0,0,15,15,48,,,,,,,,,,,,num_4,0.6611656000604853,num_4,0.2,0.8,0.2,1.0,7.6411,38.2055,return,1.4452744000591338,,,,,,,,,,,,,,,,,907,20,female,up_down_width,2024-10-18_10h36.21.024,exp1,2023.1.0,59.98444007139262,
,,,,,,,,,,,,,,,,4,9.25,9.75,10.25,10.75,0,0.5,0.25,0.25,1.75,10,initial,36.05,333,351,370,388,0,9,9,9,9,0,,,,,,,1,0,1,0,0,16,16,16,,,,,,,,,,,,num_4,0.8777137999422848,num_4,0.2,0.7,0.2,1.1,7.6411,42.02605,return,1.257483100052923,,,,,,,,,,,,,,,,,907,20,female,up_down_width,2024-10-18_10h36.21.024,exp1,2023.1.0,59.98444007139262,
,,,,,,,,,,,,,,,,3,9.5,10,10.5,0,0,0.5,0.25,0.25,1.25,10,initial,36.05,342,361,379,0,0,9,9,9,0,0,,,,,,,1,0,1,0,0,17,17,3,,,,,,,,,,,,num_2,1.176512699923478,num_2,0.4,1.4,0.4,1.6,15.2822,61.12881,return,0.8015046999789774,,,,,,,,,,,,,,,,,907,20,female,up_down_width,2024-10-18_10h36.21.024,exp1,2023.1.0,59.98444007139262,
,,,,,,,,,,,,,,,,5,9,9.5,10,10.5,11,0.5,0.25,0.25,2.25,10,initial,36.05,324,342,361,379,397,9,9,9,9,9,,,,,,,1,0,1,0,0,18,18,52,,,,,,,,,,,,num_4,0.7179435000289232,num_4,0.4,1.3,0.20000000000000007,1.7,7.6411,64.94936,return,2.445326599990949,,,,,,,,,,,,,,,,,907,20,female,up_down_width,2024-10-18_10h36.21.024,exp1,2023.1.0,59.98444007139262,
,,,,,,,,,,,,,,,,5,9,9.5,10,10.5,11,0.5,0.25,0.25,2.25,10,initial,36.05,324,342,361,379,397,9,9,9,9,9,,,,,,,1,0,1,0,0,19,19,20,,,,,,,,,,,,num_4,0.6240199999883771,num_4,0.25,0.4,0.15000000000000002,1.1,5.73083,42.02605,return,2.67768610001076,,,,,,,,,,,,,,,,,907,20,female,up_down_width,2024-10-18_10h36.21.024,exp1,2023.1.0,59.98444007139262,
,,,,,,,,,,,,,,,,4,9.25,9.75,10.25,10.75,0,0.5,0.25,0.25,1.75,10,initial,36.05,333,351,370,388,0,9,9,9,9,0,,,,,,,1,0,1,0,0,20,20,36,,,,,,,,,,,,num_3,0.7208879999816418,num_3,0.3,0.6,0.15000000000000002,1.25,5.73083,47.75688,return,3.211964000016451,,,,,,,,,,,,,,,,,907,20,female,up_down_width,2024-10-18_10h36.21.024,exp1,2023.1.0,59.98444007139262,
,,,,,,,,,,,,,,,,3,9.5,10,10.5,0,0,0.5,0.25,0.25,1.25,10,initial,36.05,342,361,379,0,0,9,9,9,0,0,,,,,,,1,0,1,0,0,21,21,32,,,,,,,,,,,,num_2,0.8963131000055,num_2,0.4,1.2,0.4,1.4,15.2822,53.48771,return,1.2706217999802902,,,,,,,,,,,,,,,,,907,20,female,up_down_width,2024-10-18_10h36.21.024,exp1,2023.1.0,59.98444007139262,
,,,,,,,,,,,,,,,,4,9.25,9.75,10.25,10.75,0,0.5,0.25,0.25,1.75,10,initial,36.05,333,351,370,388,0,9,9,9,9,0,,,,,,,1,0,1,0,0,22,22,17,,,,,,,,,,,,num_4,1.0015542999608442,num_4,0.35,1.2,0.35,1.6,13.37193,61.12881,return,0.9283505999483168,,,,,,,,,,,,,,,,,907,20,female,up_down_width,2024-10-18_10h36.21.024,exp1,2023.1.0,59.98444007139262,
,,,,,,,,,,,,,,,,4,9.25,9.75,10.25,10.75,0,0.5,0.25,0.25,1.75,10,initial,36.05,333,351,370,388,0,9,9,9,9,0,,,,,,,1,0,1,0,0,23,23,14,,,,,,,,,,,,num_3,0.7923152000876144,num_3,0.35,0.9,0.35,1.05,13.37193,40.11578,return,0.8984360999893397,,,,,,,,,,,,,,,,,907,20,female,up_down_width,2024-10-18_10h36.21.024,exp1,2023.1.0,59.98444007139262,
,,,,,,,,,,,,,,,,4,9.25,9.75,10.25,10.75,0,0.5,0.25,0.25,1.75,10,initial,36.05,333,351,370,388,0,9,9,9,9,0,,,,,,,1,0,1,0,0,24,24,13,,,,,,,,,,,,num_3,0.6993879999499768,num_3,0.5,1.3,0.20000000000000007,1.55,7.6411,59.21853,return,2.605531199951656,,,,,,,,,,,,,,,,,907,20,female,up_down_width,2024-10-18_10h36.21.024,exp1,2023.1.0,59.98444007139262,
,,,,,,,,,,,,,,,,5,9,9.5,10,10.5,11,0.5,0.25,0.25,2.25,10,initial,36.05,324,342,361,379,397,9,9,9,9,9,,,,,,,1,0,1,0,0,25,25,51,,,,,,,,,,,,num_4,0.7080419000703841,num_4,0.25,0.6,0.10000000000000002,1.5,3.82055,57.30826,return,2.6278806999325752,,,,,,,,,,,,,,,,,907,20,female,up_down_width,2024-10-18_10h36.21.024,exp1,2023.1.0,59.98444007139262,
,,,,,,,,,,,,,,,,4,9.25,9.75,10.25,10.75,0,0.5,0.25,0.25,1.75,10,initial,36.05,333,351,370,388,0,9,9,9,9,0,,,,,,,1,0,1,0,0,26,26,44,,,,,,,,,,,,num_3,0.9258613000856712,num_3,0.5,1.3,0.30000000000000004,1.35,11.46165,51.57743,return,2.4197871000505984,,,,,,,,,,,,,,,,,907,20,female,up_down_width,2024-10-18_10h36.21.024,exp1,2023.1.0,59.98444007139262,
,,,,,,,,,,,,,,,,3,9.5,10,10.5,0,0,0.5,0.25,0.25,1.25,10,initial,36.05,342,361,379,0,0,9,9,9,0,0,,,,,,,1,0,1,0,0,27,27,0,,,,,,,,,,,,num_2,0.8191121999407187,num_2,0.3,1.2,0.25,1.3,9.55138,49.66716,return,2.226827400038019,,,,,,,,,,,,,,,,,907,20,female,up_down_width,2024-10-18_10h36.21.024,exp1,2023.1.0,59.98444007139262,
,,,,,,,,,,,,,,,,4,9.25,9.75,10.25,10.75,0,0.5,0.25,0.25,1.75,10,initial,36.05,333,351,370,388,0,9,9,9,9,0,,,,,,,1,0,1,0,0,28,28,41,,,,,,,,,,,,num_3,0.7160156000172719,num_3,0.55,1.2,0.35000000000000003,1.35,13.37193,51.57743,return,1.5873471000231802,,,,,,,,,,,,,,,,,907,20,female,up_down_width,2024-10-18_10h36.21.024,exp1,2023.1.0,59.98444007139262,
,,,,,,,,,,,,,,,,5,9,9.5,10,10.5,11,0.5,0.25,0.25,2.25,10,initial,36.05,324,342,361,379,397,9,9,9,9,9,,,,,,,1,0,1,0,0,29,29,21,,,,,,,,,,,,num_4,0.7740715000545606,num_4,0.5,0.7,0.35000000000000003,1.2,13.37193,45.8466,return,1.8618440000573173,,,,,,,,,,,,,,,,,907,20,female,up_down_width,2024-10-18_10h36.21.024,exp1,2023.1.0,59.98444007139262,
,,,,,,,,,,,,,,,,4,9.25,9.75,10.25,10.75,0,0.5,0.25,0.25,1.75,10,initial,36.05,333,351,370,388,0,9,9,9,9,0,,,,,,,1,0,1,0,0,30,30,40,,,,,,,,,,,,num_3,0.9972447999753058,num_3,0.2,0.3,0.25,0.85,9.55138,32.47468,return,3.404505099984817,,,,,,,,,,,,,,,,,907,20,female,up_down_width,2024-10-18_10h36.21.024,exp1,2023.1.0,59.98444007139262,
,,,,,,,,,,,,,,,,5,9,9.5,10,10.5,11,0.5,0.25,0.25,2.25,10,initial,36.05,324,342,361,379,397,9,9,9,9,9,,,,,,,1,0,1,0,0,31,31,22,,,,,,,,,,,,num_4,0.7012480000266805,num_4,0.5,0.9,0.30000000000000004,1.2,11.46165,45.8466,return,2.748909499961883,,,,,,,,,,,,,,,,,907,20,female,up_down_width,2024-10-18_10h36.21.024,exp1,2023.1.0,59.98444007139262,
,,,,,,,,,,,,,,,,5,9,9.5,10,10.5,11,0.5,0.25,0.25,2.25,10,initial,36.05,324,342,361,379,397,9,9,9,9,9,,,,,,,1,0,1,0,0,32,32,50,,,,,,,,,,,,num_4,0.6610669000074267,num_4,0.45,1.3,0.30000000000000004,1.4,11.46165,53.48771,return,2.548247899976559,,,,,,,,,,,,,,,,,907,20,female,up_down_width,2024-10-18_10h36.21.024,exp1,2023.1.0,59.98444007139262,
,,,,,,,,,,,,,,,,3,9.5,10,10.5,0,0,0.5,0.25,0.25,1.25,10,initial,36.05,342,361,379,0,0,9,9,9,0,0,,,,,,,1,0,1,0,0,33,33,34,,,,,,,,,,,,num_2,0.8961222000652924,num_2,0.4,0.6,0.25000000000000006,0.9,9.55138,34.38495,return,1.7232752999989316,,,,,,,,,,,,,,,,,907,20,female,up_down_width,2024-10-18_10h36.21.024,exp1,2023.1.0,59.98444007139262,
,,,,,,,,,,,,,,,,5,9,9.5,10,10.5,11,0.5,0.25,0.25,2.25,10,initial,36.05,324,342,361,379,397,9,9,9,9,9,,,,,,,1,0,1,0,0,34,34,53,,,,,,,,,,,,num_4,0.7463791000191122,num_4,0.25,0.9,0.35,1.0,13.37193,38.2055,return,1.8955261999508366,,,,,,,,,,,,,,,,,907,20,female,up_down_width,2024-10-18_10h36.21.024,exp1,2023.1.0,59.98444007139262,
,,,,,,,,,,,,,,,,5,9,9.5,10,10.5,11,0.5,0.25,0.25,2.25,10,initial,36.05,324,342,361,379,397,9,9,9,9,9,,,,,,,1,0,1,0,0,35,35,26,,,,,,,,,,,,num_5,1.0409057999495417,num_5,0.45,1.2,0.25000000000000006,0.85,9.55138,32.47468,return,2.940920199966058,,,,,,,,,,,,,,,,,907,20,female,up_down_width,2024-10-18_10h36.21.024,exp1,2023.1.0,59.98444007139262,
,,,,,,,,,,,,,,,,4,9.25,9.75,10.25,10.75,0,0.5,0.25,0.25,1.75,10,initial,36.05,333,351,370,388,0,9,9,9,9,0,,,,,,,1,0,1,0,0,36,36,38,,,,,,,,,,,,num_2,0.8417506000259891,num_2,0.4,1.2,0.4,1.3,15.2822,49.66716,return,1.885844700038433,,,,,,,,,,,,,,,,,907,20,female,up_down_width,2024-10-18_10h36.21.024,exp1,2023.1.0,59.98444007139262,
,,,,,,,,,,,,,,,,3,9.5,10,10.5,0,0,0.5,0.25,0.25,1.25,10,initial,36.05,342,361,379,0,0,9,9,9,0,0,,,,,,,1,0,1,0,0,37,37,35,,,,,,,,,,,,num_2,0.7076735000591725,num_2,0.2,0.6,0.2,0.7,7.6411,26.74385,return,0.72098530002404,,,,,,,,,,,,,,,,,907,20,female,up_down_width,2024-10-18_10h36.21.024,exp1,2023.1.0,59.98444007139262,
,,,,,,,,,,,,,,,,3,9.5,10,10.5,0,0,0.5,0.25,0.25,1.25,10,initial,36.05,342,361,379,0,0,9,9,9,0,0,,,,,,,1,0,1,0,0,38,38,31,,,,,,,,,,,,num_2,0.5982166999019682,num_2,0.45,1.2,0.30000000000000004,1.2,11.46165,45.8466,return,1.9146209000609815,,,,,,,,,,,,,,,,,907,20,female,up_down_width,2024-10-18_10h36.21.024,exp1,2023.1.0,59.98444007139262,
,,,,,,,,,,,,,,,,4,9.25,9.75,10.25,10.75,0,0.5,0.25,0.25,1.75,10,initial,36.05,333,351,370,388,0,9,9,9,9,0,,,,,,,1,0,1,0,0,39,39,9,,,,,,,,,,,,num_3,0.48836030007805675,num_3,0.3,0.7,0.3,0.7,11.46165,26.74385,return,2.09516440005973,,,,,,,,,,,,,,,,,907,20,female,up_down_width,2024-10-18_10h36.21.024,exp1,2023.1.0,59.98444007139262,
,,,,,,,,,,,,,,,,5,9,9.5,10,10.5,11,0.5,0.25,0.25,2.25,10,initial,36.05,324,342,361,379,397,9,9,9,9,9,,,,,,,1,0,1,0,0,40,40,23,,,,,,,,,,,,num_2,0.24709759990219027,num_2,0.3,0.6,0.35,0.6,13.37193,22.9233,return,0.3019447000697255,,,,,,,,,,,,,,,,,907,20,female,up_down_width,2024-10-18_10h36.21.024,exp1,2023.1.0,59.98444007139262,
,,,,,,,,,,,,,,,,3,9.5,10,10.5,0,0,0.5,0.25,0.25,1.25,10,initial,36.05,342,361,379,0,0,9,9,9,0,0,,,,,,,1,0,1,0,0,41,41,5,,,,,,,,,,,,num_2,0.01969629991799593,num_2,0.25,1.4,0.7500000000000001,1.7,28.65413,64.94936,return,0.45132510003168136,,,,,,,,,,,,,,,,,907,20,female,up_down_width,2024-10-18_10h36.21.024,exp1,2023.1.0,59.98444007139262,
,,,,,,,,,,,,,,,,4,9.25,9.75,10.25,10.75,0,0.5,0.25,0.25,1.75,10,initial,36.05,333,351,370,388,0,9,9,9,9,0,,,,,,,1,0,1,0,0,42,42,42,,,,,,,,,,,,num_2,0.05763129994738847,num_2,0.2,1.2,0.39999999999999997,2.0,15.2822,76.41101,return,0.1958464999916032,,,,,,,,,,,,,,,,,907,20,female,up_down_width,2024-10-18_10h36.21.024,exp1,2023.1.0,59.98444007139262,
,,,,,,,,,,,,,,,,4,9.25,9.75,10.25,10.75,0,0.5,0.25,0.25,1.75,10,initial,36.05,333,351,370,388,0,9,9,9,9,0,,,,,,,1,0,1,0,0,43,43,10,,,,,,,,,,,,num_2,0.015434800065122545,num_2,0.2,0.8,0.3,1.3,11.46165,49.66716,return,0.23793730000033975,,,,,,,,,,,,,,,,,907,20,female,up_down_width,2024-10-18_10h36.21.024,exp1,2023.1.0,59.98444007139262,
,,,,,,,,,,,,,,,,3,9.5,10,10.5,0,0,0.5,0.25,0.25,1.25,10,initial,36.05,342,361,379,0,0,9,9,9,0,0,,,,,,,1,0,1,0,0,44,44,8,,,,,,,,,,,,num_3,0.15214429993648082,num_3,0.3,1.3,0.5499999999999999,1.55,21.01303,59.21853,return,2.348560699960217,,,,,,,,,,,,,,,,,907,20,female,up_down_width,2024-10-18_10h36.21.024,exp1,2023.1.0,59.98444007139262,
,,,,,,,,,,,,,,,,3,9.5,10,10.5,0,0,0.5,0.25,0.25,1.25,10,initial,36.05,342,361,379,0,0,9,9,9,0,0,,,,,,,1,0,1,0,0,45,45,4,,,,,,,,,,,,num_2,0.5114101000363007,num_2,0.25,1.2,0.35,1.3,13.37193,49.66716,return,1.6859505999600515,,,,,,,,,,,,,,,,,907,20,female,up_down_width,2024-10-18_10h36.21.024,exp1,2023.1.0,59.98444007139262,
,,,,,,,,,,,,,,,,5,9,9.5,10,10.5,11,0.5,0.25,0.25,2.25,10,initial,36.05,324,342,361,379,397,9,9,9,9,9,,,,,,,1,0,1,0,0,46,46,24,,,,,,,,,,,,num_3,0.44573929999023676,num_3,0.55,1.1,0.55,1.1,21.01303,42.02605,return,0.29621460009366274,,,,,,,,,,,,,,,,,907,20,female,up_down_width,2024-10-18_10h36.21.024,exp1,2023.1.0,59.98444007139262,
,,,,,,,,,,,,,,,,3,9.5,10,10.5,0,0,0.5,0.25,0.25,1.25,10,initial,36.05,342,361,379,0,0,9,9,9,0,0,,,,,,,1,0,1,0,0,47,47,1,,,,,,,,,,,,num_1,0.6208564999978989,num_1,0.35,9999,0.35,9999,13.37193,382016.8345,return,0.24163920001592487,,,,,,,,,,,,,,,,,907,20,female,up_down_width,2024-10-18_10h36.21.024,exp1,2023.1.0,59.98444007139262,
,,,,,,,,,,,,,,,,3,9.5,10,10.5,0,0,0.5,0.25,0.25,1.25,10,initial,36.05,342,361,379,0,0,9,9,9,0,0,,,,,,,1,0,1,0,0,48,48,33,,,,,,,,,,,,num_2,0.4473897999851033,num_2,0.4,0.6,0.4,0.8,15.2822,30.5644,return,2.1720316000282764,,,,,,,,,,,,,,,,,907,20,female,up_down_width,2024-10-18_10h36.21.024,exp1,2023.1.0,59.98444007139262,
,,,,,,,,,,,,,,,,5,9,9.5,10,10.5,11,0.5,0.25,0.25,2.25,10,initial,36.05,324,342,361,379,397,9,9,9,9,9,,,,,,,1,0,1,0,0,49,49,46,,,,,,,,,,,,num_2,0.19036470004357398,num_2,0.2,1.0,0.2,1.1,7.6411,42.02605,return,0.24782079993747175,,,,,,,,,,,,,,,,,907,20,female,up_down_width,2024-10-18_10h36.21.024,exp1,2023.1.0,59.98444007139262,
,,,,,,,,,,,,,,,,4,9.25,9.75,10.25,10.75,0,0.5,0.25,0.25,1.75,10,initial,36.05,333,351,370,388,0,9,9,9,9,0,,,,,,,1,0,1,0,0,50,50,12,,,,,,,,,,,,num_1,0.11849729996174574,num_1,0.55,9999,0.7000000000000002,9999,26.74385,382016.8345,return,0.13995830004569143,,,,,,,,,,,,,,,,,907,20,female,up_down_width,2024-10-18_10h36.21.024,exp1,2023.1.0,59.98444007139262,
,,,,,,,,,,,,,,,,5,9,9.5,10,10.5,11,0.5,0.25,0.25,2.25,10,initial,36.05,324,342,361,379,397,9,9,9,9,9,,,,,,,1,0,1,0,0,51,51,49,,,,,,,,,,,,num_2,0.18766040005721152,num_2,0.55,1.2,0.9000000000000004,2.0,34.38495,76.41101,return,0.16547560004983097,,,,,,,,,,,,,,,,,907,20,female,up_down_width,2024-10-18_10h36.21.024,exp1,2023.1.0,59.98444007139262,
,,,,,,,,,,,,,,,,3,9.5,10,10.5,0,0,0.5,0.25,0.25,1.25,10,initial,36.05,342,361,379,0,0,9,9,9,0,0,,,,,,,1,0,1,0,0,52,52,6,,,,,,,,,,,,num_2,0.5072985999286175,num_2,0.35,1.0,0.44999999999999996,1.2,17.19248,45.8466,return,1.8289564999286085,,,,,,,,,,,,,,,,,907,20,female,up_down_width,2024-10-18_10h36.21.024,exp1,2023.1.0,59.98444007139262,
,,,,,,,,,,,,,,,,5,9,9.5,10,10.5,11,0.5,0.25,0.25,2.25,10,initial,36.05,324,342,361,379,397,9,9,9,9,9,,,,,,,1,0,1,0,0,53,53,45,,,,,,,,,,,,num_5,1.1457584999734536,num_5,0.55,1.0,0.45,1.1,17.19248,42.02605,return,2.194102599984035,,,,,,,,,,,,,,,,,907,20,female,up_down_width,2024-10-18_10h36.21.024,exp1,2023.1.0,59.98444007139262,
,,,,,,,,,,,,,,,,,,,,,,,,,,,,,,,,,,,,,,,,,,,,,1,0,1,0,,,,,,,,,,,,,,,,,,,,,,,,,,,,,855.3473749000113,855.3473749000113,855.3473749000113,,,,,,,,,,,,907,20,female,up_down_width,2024-10-18_10h36.21.024,exp1,2023.1.0,59.98444007139262,
,,,,,,,,,,,,,,,,3,9.1,10,10.9,0,0,0.9,0.35,0.55,2.35,10,initial,36.05,328,361,393,0,0,9,9,9,0,0,,,,,,,2,0,2,0,0,0,0,2,,,,,,,,,,,,num_2,1.5924311999697238,num_2,0.3,1.6,0.8000000000000002,1.4,30.5644,53.48771,return,4.369605300016701,,,,,,,,,,,,,,,,,907,20,female,up_down_width,2024-10-18_10h36.21.024,exp1,2023.1.0,59.98444007139262,
,,,,,,,,,,,,,,,,5,8.2,9.1,10,10.9,11.8,0.9,0.35,0.55,4.15,10,initial,36.05,296,328,361,393,425,9,9,9,9,9,,,,,,,2,0,2,0,0,1,1,25,,,,,,,,,,,,num_2,0.8422394000226632,num_2,0.3,1.2,0.35,1.1,13.37193,42.02605,return,0.0664697999600321,,,,,,,,,,,,,,,,,907,20,female,up_down_width,2024-10-18_10h36.21.024,exp1,2023.1.0,59.98444007139262,
,,,,,,,,,,,,,,,,3,9.1,10,10.9,0,0,0.9,0.35,0.55,2.35,10,initial,36.05,328,361,393,0,0,9,9,9,0,0,,,,,,,2,0,2,0,0,2,2,6,,,,,,,,,,,,num_2,0.6993102000560611,num_2,0.55,1.4,0.6500000000000001,1.4,24.83358,53.48771,return,0.6808620999800041,,,,,,,,,,,,,,,,,907,20,female,up_down_width,2024-10-18_10h36.21.024,exp1,2023.1.0,59.98444007139262,
,,,,,,,,,,,,,,,,3,9.1,10,10.9,0,0,0.9,0.35,0.55,2.35,10,initial,36.05,328,361,393,0,0,9,9,9,0,0,,,,,,,2,0,2,0,0,3,3,32,,,,,,,,,,,,num_2,0.6463710999814793,num_2,0.2,1.6,0.2,1.6,7.6411,61.12881,return,0.10354999999981374,,,,,,,,,,,,,,,,,907,20,female,up_down_width,2024-10-18_10h36.21.024,exp1,2023.1.0,59.98444007139262,
,,,,,,,,,,,,,,,,3,9.1,10,10.9,0,0,0.9,0.35,0.55,2.35,10,initial,36.05,328,361,393,0,0,9,9,9,0,0,,,,,,,2,0,2,0,0,4,4,3,,,,,,,,,,,,num_2,1.0695605999790132,num_2,0.4,1.6,0.7000000000000002,1.6,26.74385,61.12881,return,0.9915157000068575,,,,,,,,,,,,,,,,,907,20,female,up_down_width,2024-10-18_10h36.21.024,exp1,2023.1.0,59.98444007139262,
,,,,,,,,,,,,,,,,5,8.2,9.1,10,10.9,11.8,0.9,0.35,0.55,4.15,10,initial,36.05,296,328,361,393,425,9,9,9,9,9,,,,,,,2,0,2,0,0,5,5,26,,,,,,,,,,,,num_6,0.8991979999700561,num_6,0.3,0.4,0.49999999999999994,0.9,19.10275,34.38495,return,4.617729599936865,,,,,,,,,,,,,,,,,907,20,female,up_down_width,2024-10-18_10h36.21.024,exp1,2023.1.0,59.98444007139262,
,,,,,,,,,,,,,,,,5,8.2,9.1,10,10.9,11.8,0.9,0.35,0.55,4.15,10,initial,36.05,296,328,361,393,425,9,9,9,9,9,,,,,,,2,0,2,0,0,6,6,45,,,,,,,,,,,,num_5,0.7976995001081377,num_5,0.55,0.9,0.6000000000000001,0.9,22.9233,34.38495,return,1.0846980001078919,,,,,,,,,,,,,,,,,907,20,female,up_down_width,2024-10-18_10h36.21.024,exp1,2023.1.0,59.98444007139262,
,,,,,,,,,,,,,,,,5,8.2,9.1,10,10.9,11.8,0.9,0.35,0.55,4.15,10,initial,36.05,296,328,361,393,425,9,9,9,9,9,,,,,,,2,0,2,0,0,7,7,21,,,,,,,,,,,,num_5,0.6282911000307649,num_5,0.2,1.0,0.5499999999999999,1.0,21.01303,38.2055,return,1.8451874000020325,,,,,,,,,,,,,,,,,907,20,female,up_down_width,2024-10-18_10h36.21.024,exp1,2023.1.0,59.98444007139262,
,,,,,,,,,,,,,,,,3,9.1,10,10.9,0,0,0.9,0.35,0.55,2.35,10,initial,36.05,328,361,393,0,0,9,9,9,0,0,,,,,,,2,0,2,0,0,8,8,8,,,,,,,,,,,,num_3,0.9217013999586925,num_3,0.4,0.5,0.4,0.5,15.2822,19.10275,return,0.2895938000874594,,,,,,,,,,,,,,,,,907,20,female,up_down_width,2024-10-18_10h36.21.024,exp1,2023.1.0,59.98444007139262,
,,,,,,,,,,,,,,,,5,8.2,9.1,10,10.9,11.8,0.9,0.35,0.55,4.15,10,initial,36.05,296,328,361,393,425,9,9,9,9,9,,,,,,,2,0,2,0,0,9,9,47,,,,,,,,,,,,num_4,0.7256285999901593,num_4,0.2,0.7,0.2,0.7,7.6411,26.74385,return,0.2793322999496013,,,,,,,,,,,,,,,,,907,20,female,up_down_width,2024-10-18_10h36.21.024,exp1,2023.1.0,59.98444007139262,
,,,,,,,,,,,,,,,,5,8.2,9.1,10,10.9,11.8,0.9,0.35,0.55,4.15,10,initial,36.05,296,328,361,393,425,9,9,9,9,9,,,,,,,2,0,2,0,0,10,10,19,,,,,,,,,,,,num_5,0.7123372999485582,num_5,0.2,1.3,0.6,1.25,22.9233,47.75688,return,3.7604519999586046,,,,,,,,,,,,,,,,,907,20,female,up_down_width,2024-10-18_10h36.21.024,exp1,2023.1.0,59.98444007139262,
,,,,,,,,,,,,,,,,5,8.2,9.1,10,10.9,11.8,0.9,0.35,0.55,4.15,10,initial,36.05,296,328,361,393,425,9,9,9,9,9,,,,,,,2,0,2,0,0,11,11,52,,,,,,,,,,,,num_5,1.0299543000292033,num_5,0.2,0.4,0.44999999999999996,0.75,17.19248,28.65413,return,4.409549799980596,,,,,,,,,,,,,,,,,907,20,female,up_down_width,2024-10-18_10h36.21.024,exp1,2023.1.0,59.98444007139262,
,,,,,,,,,,,,,,,,4,8.65,9.55,10.45,11.35,0,0.9,0.35,0.55,3.25,10,initial,36.05,312,344,377,409,0,9,9,9,9,0,,,,,,,2,0,2,0,0,12,12,15,,,,,,,,,,,,num_4,0.7604336999356747,num_4,0.2,0.8,0.6,0.8,22.9233,30.5644,return,1.7777480999939144,,,,,,,,,,,,,,,,,907,20,female,up_down_width,2024-10-18_10h36.21.024,exp1,2023.1.0,59.98444007139262,
,,,,,,,,,,,,,,,,4,8.65,9.55,10.45,11.35,0,0.9,0.35,0.55,3.25,10,initial,36.05,312,344,377,409,0,9,9,9,9,0,,,,,,,2,0,2,0,0,13,13,37,,,,,,,,,,,,num_6,0.7464736000401899,num_6,0.55,0.6,0.35000000000000003,0.8,13.37193,30.5644,return,2.364035199978389,,,,,,,,,,,,,,,,,907,20,female,up_down_width,2024-10-18_10h36.21.024,exp1,2023.1.0,59.98444007139262,
,,,,,,,,,,,,,,,,3,9.1,10,10.9,0,0,0.9,0.35,0.55,2.35,10,initial,36.05,328,361,393,0,0,9,9,9,0,0,,,,,,,2,0,2,0,0,14,14,34,,,,,,,,,,,,num_2,0.7190387001028284,num_2,0.4,1.4,0.6000000000000001,1.1,22.9233,42.02605,return,2.2377069999929518,,,,,,,,,,,,,,,,,907,20,female,up_down_width,2024-10-18_10h36.21.024,exp1,2023.1.0,59.98444007139262,
,,,,,,,,,,,,,,,,5,8.2,9.1,10,10.9,11.8,0.9,0.35,0.55,4.15,10,initial,36.05,296,328,361,393,425,9,9,9,9,9,,,,,,,2,0,2,0,0,15,15,49,,,,,,,,,,,,num_4,0.8571615000255406,num_4,0.5,1.3,0.5,1.2,19.10275,45.8466,return,1.2049834999488667,,,,,,,,,,,,,,,,,907,20,female,up_down_width,2024-10-18_10h36.21.024,exp1,2023.1.0,59.98444007139262,
,,,,,,,,,,,,,,,,3,9.1,10,10.9,0,0,0.9,0.35,0.55,2.35,10,initial,36.05,328,361,393,0,0,9,9,9,0,0,,,,,,,2,0,2,0,0,16,16,30,,,,,,,,,,,,num_2,1.310635400004685,num_2,0.25,0.6,0.35,0.8,13.37193,30.5644,return,1.8476636999985203,,,,,,,,,,,,,,,,,907,20,female,up_down_width,2024-10-18_10h36.21.024,exp1,2023.1.0,59.98444007139262,
,,,,,,,,,,,,,,,,4,8.65,9.55,10.45,11.35,0,0.9,0.35,0.55,3.25,10,initial,36.05,312,344,377,409,0,9,9,9,9,0,,,,,,,2,0,2,0,0,17,17,17,,,,,,,,,,,,num_6,0.7852344999555498,num_6,0.35,1.3,0.49999999999999994,0.7,19.10275,26.74385,return,7.369674599962309,,,,,,,,,,,,,,,,,907,20,female,up_down_width,2024-10-18_10h36.21.024,exp1,2023.1.0,59.98444007139262,
,,,,,,,,,,,,,,,,4,8.65,9.55,10.45,11.35,0,0.9,0.35,0.55,3.25,10,initial,36.05,312,344,377,409,0,9,9,9,9,0,,,,,,,2,0,2,0,0,18,18,40,,,,,,,,,,,,num_3,1.0992737000342458,num_3,0.3,0.4,0.39999999999999997,0.6,15.2822,22.9233,return,1.7393742999993265,,,,,,,,,,,,,,,,,907,20,female,up_down_width,2024-10-18_10h36.21.024,exp1,2023.1.0,59.98444007139262,
,,,,,,,,,,,,,,,,5,8.2,9.1,10,10.9,11.8,0.9,0.35,0.55,4.15,10,initial,36.05,296,328,361,393,425,9,9,9,9,9,,,,,,,2,0,2,0,0,19,19,23,,,,,,,,,,,,num_4,0.7993382000131533,num_4,0.3,0.9,0.5499999999999999,1.0,21.01303,38.2055,return,2.4952144999988377,,,,,,,,,,,,,,,,,907,20,female,up_down_width,2024-10-18_10h36.21.024,exp1,2023.1.0,59.98444007139262,
,,,,,,,,,,,,,,,,5,8.2,9.1,10,10.9,11.8,0.9,0.35,0.55,4.15,10,initial,36.05,296,328,361,393,425,9,9,9,9,9,,,,,,,2,0,2,0,0,20,20,24,,,,,,,,,,,,num_5,0.8624406999442726,num_5,0.3,0.5,0.44999999999999996,0.75,17.19248,28.65413,return,1.9713107000570744,,,,,,,,,,,,,,,,,907,20,female,up_down_width,2024-10-18_10h36.21.024,exp1,2023.1.0,59.98444007139262,
,,,,,,,,,,,,,,,,5,8.2,9.1,10,10.9,11.8,0.9,0.35,0.55,4.15,10,initial,36.05,296,328,361,393,425,9,9,9,9,9,,,,,,,2,0,2,0,0,21,21,51,,,,,,,,,,,,num_6,0.9953992000082508,num_6,0.25,1.2,0.5499999999999999,1.1,21.01303,42.02605,return,2.7592546999221668,,,,,,,,,,,,,,,,,907,20,female,up_down_width,2024-10-18_10h36.21.024,exp1,2023.1.0,59.98444007139262,
,,,,,,,,,,,,,,,,3,9.1,10,10.9,0,0,0.9,0.35,0.55,2.35,10,initial,36.05,328,361,393,0,0,9,9,9,0,0,,,,,,,2,0,2,0,0,22,22,33,,,,,,,,,,,,num_6,0.8513207000214607,num_6,0.35,0.8,0.49999999999999994,0.7,19.10275,26.74385,return,2.4791530000511557,,,,,,,,,,,,,,,,,907,20,female,up_down_width,2024-10-18_10h36.21.024,exp1,2023.1.0,59.98444007139262,
,,,,,,,,,,,,,,,,4,8.65,9.55,10.45,11.35,0,0.9,0.35,0.55,3.25,10,initial,36.05,312,344,377,409,0,9,9,9,9,0,,,,,,,2,0,2,0,0,23,23,11,,,,,,,,,,,,num_4,0.7410679999738932,num_4,0.4,0.8,0.5,0.8,19.10275,30.5644,return,2.1149547999957576,,,,,,,,,,,,,,,,,907,20,female,up_down_width,2024-10-18_10h36.21.024,exp1,2023.1.0,59.98444007139262,
,,,,,,,,,,,,,,,,3,9.1,10,10.9,0,0,0.9,0.35,0.55,2.35,10,initial,36.05,328,361,393,0,0,9,9,9,0,0,,,,,,,2,0,2,0,0,24,24,29,,,,,,,,,,,,num_6,0.7381906999507919,num_6,0.5,1.3,0.5,1.3,19.10275,49.66716,return,2.024963799980469,,,,,,,,,,,,,,,,,907,20,female,up_down_width,2024-10-18_10h36.21.024,exp1,2023.1.0,59.98444007139262,
,,,,,,,,,,,,,,,,3,9.1,10,10.9,0,0,0.9,0.35,0.55,2.35,10,initial,36.05,328,361,393,0,0,9,9,9,0,0,,,,,,,2,0,2,0,0,25,25,5,,,,,,,,,,,,num_2,0.7236426000017673,num_2,0.5,0.8,0.55,0.9,21.01303,34.38495,return,1.3163054001051933,,,,,,,,,,,,,,,,,907,20,female,up_down_width,2024-10-18_10h36.21.024,exp1,2023.1.0,59.98444007139262,
,,,,,,,,,,,,,,,,4,8.65,9.55,10.45,11.35,0,0.9,0.35,0.55,3.25,10,initial,36.05,312,344,377,409,0,9,9,9,9,0,,,,,,,2,0,2,0,0,26,26,13,,,,,,,,,,,,num_4,0.7874040000606328,num_4,0.45,0.8,0.55,1.0,21.01303,38.2055,return,1.327751100063324,,,,,,,,,,,,,,,,,907,20,female,up_down_width,2024-10-18_10h36.21.024,exp1,2023.1.0,59.98444007139262,
,,,,,,,,,,,,,,,,4,8.65,9.55,10.45,11.35,0,0.9,0.35,0.55,3.25,10,initial,36.05,312,344,377,409,0,9,9,9,9,0,,,,,,,2,0,2,0,0,27,27,43,,,,,,,,,,,,num_4,0.6412941000889987,num_4,0.45,1.1,0.5,1.1,19.10275,42.02605,return,0.9506200000178069,,,,,,,,,,,,,,,,,907,20,female,up_down_width,2024-10-18_10h36.21.024,exp1,2023.1.0,59.98444007139262,
,,,,,,,,,,,,,,,,3,9.1,10,10.9,0,0,0.9,0.35,0.55,2.35,10,initial,36.05,328,361,393,0,0,9,9,9,0,0,,,,,,,2,0,2,0,0,28,28,4,,,,,,,,,,,,num_3,0.8013430000282824,num_3,0.2,1,0.44999999999999996,1.05,17.19248,40.11578,return,1.4560249999631196,,,,,,,,,,,,,,,,,907,20,female,up_down_width,2024-10-18_10h36.21.024,exp1,2023.1.0,59.98444007139262,
,,,,,,,,,,,,,,,,4,8.65,9.55,10.45,11.35,0,0.9,0.35,0.55,3.25,10,initial,36.05,312,344,377,409,0,9,9,9,9,0,,,,,,,2,0,2,0,0,29,29,44,,,,,,,,,,,,num_4,0.7512609000550583,num_4,0.35,0.8,0.44999999999999996,0.8,17.19248,30.5644,return,0.8966649000067264,,,,,,,,,,,,,,,,,907,20,female,up_down_width,2024-10-18_10h36.21.024,exp1,2023.1.0,59.98444007139262,
,,,,,,,,,,,,,,,,3,9.1,10,10.9,0,0,0.9,0.35,0.55,2.35,10,initial,36.05,328,361,393,0,0,9,9,9,0,0,,,,,,,2,0,2,0,0,30,30,27,,,,,,,,,,,,num_3,0.861056900001131,num_3,0.4,0.9,0.55,0.9,21.01303,34.38495,return,1.0620889000128955,,,,,,,,,,,,,,,,,907,20,female,up_down_width,2024-10-18_10h36.21.024,exp1,2023.1.0,59.98444007139262,
,,,,,,,,,,,,,,,,4,8.65,9.55,10.45,11.35,0,0.9,0.35,0.55,3.25,10,initial,36.05,312,344,377,409,0,9,9,9,9,0,,,,,,,2,0,2,0,0,31,31,42,,,,,,,,,,,,num_4,1.104399000061676,num_4,0.4,1.3,0.6000000000000001,1.1,22.9233,42.02605,return,1.674982399912551,,,,,,,,,,,,,,,,,907,20,female,up_down_width,2024-10-18_10h36.21.024,exp1,2023.1.0,59.98444007139262,
,,,,,,,,,,,,,,,,5,8.2,9.1,10,10.9,11.8,0.9,0.35,0.55,4.15,10,initial,36.05,296,328,361,393,425,9,9,9,9,9,,,,,,,2,0,2,0,0,32,32,50,,,,,,,,,,,,num_5,0.6167540000751615,num_5,0.4,0.9,0.5,0.85,19.10275,32.47468,return,1.930105600040406,,,,,,,,,,,,,,,,,907,20,female,up_down_width,2024-10-18_10h36.21.024,exp1,2023.1.0,59.98444007139262,
,,,,,,,,,,,,,,,,3,9.1,10,10.9,0,0,0.9,0.35,0.55,2.35,10,initial,36.05,328,361,393,0,0,9,9,9,0,0,,,,,,,2,0,2,0,0,33,33,35,,,,,,,,,,,,num_3,0.9054382999893278,num_3,0.25,1.3,0.5499999999999999,1.05,21.01303,40.11578,return,3.1986006000079215,,,,,,,,,,,,,,,,,907,20,female,up_down_width,2024-10-18_10h36.21.024,exp1,2023.1.0,59.98444007139262,
,,,,,,,,,,,,,,,,4,8.65,9.55,10.45,11.35,0,0.9,0.35,0.55,3.25,10,initial,36.05,312,344,377,409,0,9,9,9,9,0,,,,,,,2,0,2,0,0,34,34,41,,,,,,,,,,,,num_4,0.6954107999335974,num_4,0.3,1.3,0.7000000000000001,0.9,26.74385,34.38495,return,2.422799799940549,,,,,,,,,,,,,,,,,907,20,female,up_down_width,2024-10-18_10h36.21.024,exp1,2023.1.0,59.98444007139262,
,,,,,,,,,,,,,,,,3,9.1,10,10.9,0,0,0.9,0.35,0.55,2.35,10,initial,36.05,328,361,393,0,0,9,9,9,0,0,,,,,,,2,0,2,0,0,35,35,7,,,,,,,,,,,,num_2,0.8697361000813544,num_2,0.45,1.2,0.6000000000000001,1.0,22.9233,38.2055,return,1.484649799996987,,,,,,,,,,,,,,,,,907,20,female,up_down_width,2024-10-18_10h36.21.024,exp1,2023.1.0,59.98444007139262,
,,,,,,,,,,,,,,,,3,9.1,10,10.9,0,0,0.9,0.35,0.55,2.35,10,initial,36.05,328,361,393,0,0,9,9,9,0,0,,,,,,,2,0,2,0,0,36,36,28,,,,,,,,,,,,num_2,1.0326262000016868,num_2,0.4,1.2,0.5,0.8,19.10275,30.5644,return,1.8491097000660375,,,,,,,,,,,,,,,,,907,20,female,up_down_width,2024-10-18_10h36.21.024,exp1,2023.1.0,59.98444007139262,
,,,,,,,,,,,,,,,,5,8.2,9.1,10,10.9,11.8,0.9,0.35,0.55,4.15,10,initial,36.05,296,328,361,393,425,9,9,9,9,9,,,,,,,2,0,2,0,0,37,37,18,,,,,,,,,,,,num_5,0.9662040999392048,num_5,0.5,0.7,0.5,0.65,19.10275,24.83358,return,1.116647099959664,,,,,,,,,,,,,,,,,907,20,female,up_down_width,2024-10-18_10h36.21.024,exp1,2023.1.0,59.98444007139262,
,,,,,,,,,,,,,,,,4,8.65,9.55,10.45,11.35,0,0.9,0.35,0.55,3.25,10,initial,36.05,312,344,377,409,0,9,9,9,9,0,,,,,,,2,0,2,0,0,38,38,36,,,,,,,,,,,,num_1,0.5010881000198424,num_1,0.45,9999,0.5,9999,19.10275,382016.8345,return,0.12830069998744875,,,,,,,,,,,,,,,,,907,20,female,up_down_width,2024-10-18_10h36.21.024,exp1,2023.1.0,59.98444007139262,
,,,,,,,,,,,,,,,,4,8.65,9.55,10.45,11.35,0,0.9,0.35,0.55,3.25,10,initial,36.05,312,344,377,409,0,9,9,9,9,0,,,,,,,2,0,2,0,0,39,39,39,,,,,,,,,,,,num_1,0.11806489992886782,num_1,0.2,9999,0.6,9999,22.9233,382016.8345,return,0.0574437000323087,,,,,,,,,,,,,,,,,907,20,female,up_down_width,2024-10-18_10h36.21.024,exp1,2023.1.0,59.98444007139262,
,,,,,,,,,,,,,,,,5,8.2,9.1,10,10.9,11.8,0.9,0.35,0.55,4.15,10,initial,36.05,296,328,361,393,425,9,9,9,9,9,,,,,,,2,0,2,0,0,40,40,53,,,,,,,,,,,,num_4,0.18470410001464188,num_4,0.25,0.4,0.35,0.8,13.37193,30.5644,return,1.9921680999686942,,,,,,,,,,,,,,,,,907,20,female,up_down_width,2024-10-18_10h36.21.024,exp1,2023.1.0,59.98444007139262,
,,,,,,,,,,,,,,,,5,8.2,9.1,10,10.9,11.8,0.9,0.35,0.55,4.15,10,initial,36.05,296,328,361,393,425,9,9,9,9,9,,,,,,,2,0,2,0,0,41,41,48,,,,,,,,,,,,num_6,0.17228370008524507,num_6,0.2,0.5,0.3,0.6,11.46165,22.9233,return,1.476258200011216,,,,,,,,,,,,,,,,,907,20,female,up_down_width,2024-10-18_10h36.21.024,exp1,2023.1.0,59.98444007139262,
,,,,,,,,,,,,,,,,5,8.2,9.1,10,10.9,11.8,0.9,0.35,0.55,4.15,10,initial,36.05,296,328,361,393,425,9,9,9,9,9,,,,,,,2,0,2,0,0,42,42,20,,,,,,,,,,,,num_5,0.7325933000538498,num_5,0.55,0.7,0.5,0.65,19.10275,24.83358,return,2.238061999902129,,,,,,,,,,,,,,,,,907,20,female,up_down_width,2024-10-18_10h36.21.024,exp1,2023.1.0,59.98444007139262,
,,,,,,,,,,,,,,,,3,9.1,10,10.9,0,0,0.9,0.35,0.55,2.35,10,initial,36.05,328,361,393,0,0,9,9,9,0,0,,,,,,,2,0,2,0,0,43,43,0,,,,,,,,,,,,num_2,0.7423700999934226,num_2,0.5,1.6,0.55,1.7,21.01303,64.94936,return,0.8039318999508396,,,,,,,,,,,,,,,,,907,20,female,up_down_width,2024-10-18_10h36.21.024,exp1,2023.1.0,59.98444007139262,
,,,,,,,,,,,,,,,,3,9.1,10,10.9,0,0,0.9,0.35,0.55,2.35,10,initial,36.05,328,361,393,0,0,9,9,9,0,0,,,,,,,2,0,2,0,0,44,44,1,,,,,,,,,,,,num_3,0.6436468000756577,num_3,0.25,0.8,0.44999999999999996,0.85,17.19248,32.47468,return,1.5248105000937358,,,,,,,,,,,,,,,,,907,20,female,up_down_width,2024-10-18_10h36.21.024,exp1,2023.1.0,59.98444007139262,
,,,,,,,,,,,,,,,,4,8.65,9.55,10.45,11.35,0,0.9,0.35,0.55,3.25,10,initial,36.05,312,344,377,409,0,9,9,9,9,0,,,,,,,2,0,2,0,0,45,45,12,,,,,,,,,,,,num_3,0.8799369999906048,num_3,0.2,1.3,0.49999999999999994,1.2,19.10275,45.8466,return,2.2628719999920577,,,,,,,,,,,,,,,,,907,20,female,up_down_width,2024-10-18_10h36.21.024,exp1,2023.1.0,59.98444007139262,
,,,,,,,,,,,,,,,,4,8.65,9.55,10.45,11.35,0,0.9,0.35,0.55,3.25,10,initial,36.05,312,344,377,409,0,9,9,9,9,0,,,,,,,2,0,2,0,0,46,46,38,,,,,,,,,,,,num_3,0.8746446000877768,num_3,0.55,0.7,0.5,0.8,19.10275,30.5644,return,2.4349815000314265,,,,,,,,,,,,,,,,,907,20,female,up_down_width,2024-10-18_10h36.21.024,exp1,2023.1.0,59.98444007139262,
,,,,,,,,,,,,,,,,3,9.1,10,10.9,0,0,0.9,0.35,0.55,2.35,10,initial,36.05,328,361,393,0,0,9,9,9,0,0,,,,,,,2,0,2,0,0,47,47,31,,,,,,,,,,,,num_3,1.2659575999714434,num_3,0.5,1.2,0.45,1.15,17.19248,43.93633,return,2.1511456000152975,,,,,,,,,,,,,,,,,907,20,female,up_down_width,2024-10-18_10h36.21.024,exp1,2023.1.0,59.98444007139262,
,,,,,,,,,,,,,,,,4,8.65,9.55,10.45,11.35,0,0.9,0.35,0.55,3.25,10,initial,36.05,312,344,377,409,0,9,9,9,9,0,,,,,,,2,0,2,0,0,48,48,9,,,,,,,,,,,,num_4,0.7766970000229776,num_4,0.25,0.9,0.44999999999999996,0.9,17.19248,34.38495,return,1.6379003999754786,,,,,,,,,,,,,,,,,907,20,female,up_down_width,2024-10-18_10h36.21.024,exp1,2023.1.0,59.98444007139262,
,,,,,,,,,,,,,,,,5,8.2,9.1,10,10.9,11.8,0.9,0.35,0.55,4.15,10,initial,36.05,296,328,361,393,425,9,9,9,9,9,,,,,,,2,0,2,0,0,49,49,46,,,,,,,,,,,,num_5,0.7824639000464231,num_5,0.5,0.7,0.5,0.75,19.10275,28.65413,return,2.3124297000467777,,,,,,,,,,,,,,,,,907,20,female,up_down_width,2024-10-18_10h36.21.024,exp1,2023.1.0,59.98444007139262,
,,,,,,,,,,,,,,,,4,8.65,9.55,10.45,11.35,0,0.9,0.35,0.55,3.25,10,initial,36.05,312,344,377,409,0,9,9,9,9,0,,,,,,,2,0,2,0,0,50,50,16,,,,,,,,,,,,num_4,0.7290215999819338,num_4,0.35,0.4,0.35,0.8,13.37193,30.5644,return,1.3196777000557631,,,,,,,,,,,,,,,,,907,20,female,up_down_width,2024-10-18_10h36.21.024,exp1,2023.1.0,59.98444007139262,
,,,,,,,,,,,,,,,,4,8.65,9.55,10.45,11.35,0,0.9,0.35,0.55,3.25,10,initial,36.05,312,344,377,409,0,9,9,9,9,0,,,,,,,2,0,2,0,0,51,51,10,,,,,,,,,,,,num_4,0.8065445999382064,num_4,0.4,0.6,0.4,0.9,15.2822,34.38495,return,0.9269989000167698,,,,,,,,,,,,,,,,,907,20,female,up_down_width,2024-10-18_10h36.21.024,exp1,2023.1.0,59.98444007139262,
,,,,,,,,,,,,,,,,5,8.2,9.1,10,10.9,11.8,0.9,0.35,0.55,4.15,10,initial,36.05,296,328,361,393,425,9,9,9,9,9,,,,,,,2,0,2,0,0,52,52,22,,,,,,,,,,,,num_5,0.7392151000676677,num_5,0.35,1.2,0.44999999999999996,1.0,17.19248,38.2055,return,2.0971371000632644,,,,,,,,,,,,,,,,,907,20,female,up_down_width,2024-10-18_10h36.21.024,exp1,2023.1.0,59.98444007139262,
,,,,,,,,,,,,,,,,4,8.65,9.55,10.45,11.35,0,0.9,0.35,0.55,3.25,10,initial,36.05,312,344,377,409,0,9,9,9,9,0,,,,,,,2,0,2,0,0,53,53,14,,,,,,,,,,,,num_1,0.9622782999649644,num_1,0.55,9999,0.6000000000000001,9999,22.9233,382016.8345,return,4.6510648999828845,,,,,,,,,,,,,,,,,907,20,female,up_down_width,2024-10-18_10h36.21.024,exp1,2023.1.0,59.98444007139262,
,,,,,,,,,,,,,,,,,,,,,,,,,,,,,,,,,,,,,,,,,,,,,2,0,2,0,,,,,,,,,,,,,,,,,,,,,,,,,,,,,1092.996898100013,1092.996898100013,1092.996898100013,,,,,,,,,,,,907,20,female,up_down_width,2024-10-18_10h36.21.024,exp1,2023.1.0,59.98444007139262,
,,,,,,,,,,,,,,,,3,9.5,10,10.5,0,0,0.5,0.1,0.4,1.4000000000000001,10,initial,36.05,342,361,379,0,0,9,9,9,0,0,,,,,,,3,0,3,0,0,0,0,7,,,,,,,,,,,,num_2,0.9850134999724105,num_2,0.25,0.8,0.35,0.7,13.37193,26.74385,return,1.7234297000104561,,,,,,,,,,,,,,,,,907,20,female,up_down_width,2024-10-18_10h36.21.024,exp1,2023.1.0,59.98444007139262,
,,,,,,,,,,,,,,,,3,9.5,10,10.5,0,0,0.5,0.1,0.4,1.4000000000000001,10,initial,36.05,342,361,379,0,0,9,9,9,0,0,,,,,,,3,0,3,0,0,1,1,3,,,,,,,,,,,,num_2,0.8052758000558242,num_2,0.5,1.2,0.45,0.6,17.19248,22.9233,return,2.8936150999506935,,,,,,,,,,,,,,,,,907,20,female,up_down_width,2024-10-18_10h36.21.024,exp1,2023.1.0,59.98444007139262,
,,,,,,,,,,,,,,,,4,9.25,9.75,10.25,10.75,0,0.5,0.1,0.4,1.9000000000000001,10,initial,36.05,333,351,370,388,0,9,9,9,9,0,,,,,,,3,0,3,0,0,2,2,44,,,,,,,,,,,,num_2,0.6623592999530956,num_2,0.3,1.4,0.3,0.5,11.46165,19.10275,return,4.467314800014719,,,,,,,,,,,,,,,,,907,20,female,up_down_width,2024-10-18_10h36.21.024,exp1,2023.1.0,59.98444007139262,
,,,,,,,,,,,,,,,,5,9,9.5,10,10.5,11,0.5,0.1,0.4,2.4,10,initial,36.05,324,342,361,379,397,9,9,9,9,9,,,,,,,3,0,3,0,0,3,3,48,,,,,,,,,,,,num_3,0.7611342000309378,num_3,0.3,0.8,0.39999999999999997,0.5,15.2822,19.10275,return,2.5147991999983788,,,,,,,,,,,,,,,,,907,20,female,up_down_width,2024-10-18_10h36.21.024,exp1,2023.1.0,59.98444007139262,
,,,,,,,,,,,,,,,,5,9,9.5,10,10.5,11,0.5,0.1,0.4,2.4,10,initial,36.05,324,342,361,379,397,9,9,9,9,9,,,,,,,3,0,3,0,0,4,4,25,,,,,,,,,,,,num_4,0.8660697999875993,num_4,0.4,1.0,0.4,0.5,15.2822,19.10275,return,1.8654739999910817,,,,,,,,,,,,,,,,,907,20,female,up_down_width,2024-10-18_10h36.21.024,exp1,2023.1.0,59.98444007139262,
,,,,,,,,,,,,,,,,5,9,9.5,10,10.5,11,0.5,0.1,0.4,2.4,10,initial,36.05,324,342,361,379,397,9,9,9,9,9,,,,,,,3,0,3,0,0,5,5,46,,,,,,,,,,,,num_4,0.753260700032115,num_4,0.3,0.4,0.3,0.5,11.46165,19.10275,return,1.5323064000112936,,,,,,,,,,,,,,,,,907,20,female,up_down_width,2024-10-18_10h36.21.024,exp1,2023.1.0,59.98444007139262,
,,,,,,,,,,,,,,,,3,9.5,10,10.5,0,0,0.5,0.1,0.4,1.4000000000000001,10,initial,36.05,342,361,379,0,0,9,9,9,0,0,,,,,,,3,0,3,0,0,6,6,30,,,,,,,,,,,,num_2,0.5995104999747127,num_2,0.25,0.6,0.25,0.4,9.55138,15.2822,return,1.1621492999838665,,,,,,,,,,,,,,,,,907,20,female,up_down_width,2024-10-18_10h36.21.024,exp1,2023.1.0,59.98444007139262,
,,,,,,,,,,,,,,,,3,9.5,10,10.5,0,0,0.5,0.1,0.4,1.4000000000000001,10,initial,36.05,342,361,379,0,0,9,9,9,0,0,,,,,,,3,0,3,0,0,7,7,5,,,,,,,,,,,,num_2,0.8661165999947116,num_2,0.5,0.6,0.45,0.6,17.19248,22.9233,return,1.5498152999207377,,,,,,,,,,,,,,,,,907,20,female,up_down_width,2024-10-18_10h36.21.024,exp1,2023.1.0,59.98444007139262,
,,,,,,,,,,,,,,,,3,9.5,10,10.5,0,0,0.5,0.1,0.4,1.4000000000000001,10,initial,36.05,342,361,379,0,0,9,9,9,0,0,,,,,,,3,0,3,0,0,8,8,29,,,,,,,,,,,,num_3,1.0531924000242725,num_3,0.35,0.7,0.39999999999999997,0.6,15.2822,22.9233,return,4.0761248000198975,,,,,,,,,,,,,,,,,907,20,female,up_down_width,2024-10-18_10h36.21.024,exp1,2023.1.0,59.98444007139262,
,,,,,,,,,,,,,,,,4,9.25,9.75,10.25,10.75,0,0.5,0.1,0.4,1.9000000000000001,10,initial,36.05,333,351,370,388,0,9,9,9,9,0,,,,,,,3,0,3,0,0,9,9,17,,,,,,,,,,,,num_3,0.7760905000614002,num_3,0.3,1,0.39999999999999997,0.55,15.2822,21.01303,return,2.75966880004853,,,,,,,,,,,,,,,,,907,20,female,up_down_width,2024-10-18_10h36.21.024,exp1,2023.1.0,59.98444007139262,
,,,,,,,,,,,,,,,,5,9,9.5,10,10.5,11,0.5,0.1,0.4,2.4,10,initial,36.05,324,342,361,379,397,9,9,9,9,9,,,,,,,3,0,3,0,0,10,10,53,,,,,,,,,,,,num_3,0.8421904999995604,num_3,0.4,0.8,0.4,0.55,15.2822,21.01303,return,1.9536692999536172,,,,,,,,,,,,,,,,,907,20,female,up_down_width,2024-10-18_10h36.21.024,exp1,2023.1.0,59.98444007139262,
,,,,,,,,,,,,,,,,5,9,9.5,10,10.5,11,0.5,0.1,0.4,2.4,10,initial,36.05,324,342,361,379,397,9,9,9,9,9,,,,,,,3,0,3,0,0,11,11,49,,,,,,,,,,,,num_4,0.7961590000195429,num_4,0.5,0.9,0.4,0.5,15.2822,19.10275,return,4.683026599930599,,,,,,,,,,,,,,,,,907,20,female,up_down_width,2024-10-18_10h36.21.024,exp1,2023.1.0,59.98444007139262,
,,,,,,,,,,,,,,,,5,9,9.5,10,10.5,11,0.5,0.1,0.4,2.4,10,initial,36.05,324,342,361,379,397,9,9,9,9,9,,,,,,,3,0,3,0,0,12,12,19,,,,,,,,,,,,num_5,0.9945286000147462,num_5,0.2,1.1,0.44999999999999996,0.55,17.19248,21.01303,return,4.708428400103003,,,,,,,,,,,,,,,,,907,20,female,up_down_width,2024-10-18_10h36.21.024,exp1,2023.1.0,59.98444007139262,
,,,,,,,,,,,,,,,,3,9.5,10,10.5,0,0,0.5,0.1,0.4,1.4000000000000001,10,initial,36.05,342,361,379,0,0,9,9,9,0,0,,,,,,,3,0,3,0,0,13,13,34,,,,,,,,,,,,num_2,0.6873413999564946,num_2,0.45,0.8,0.45,0.5,17.19248,19.10275,return,1.0075514999916777,,,,,,,,,,,,,,,,,907,20,female,up_down_width,2024-10-18_10h36.21.024,exp1,2023.1.0,59.98444007139262,
,,,,,,,,,,,,,,,,3,9.5,10,10.5,0,0,0.5,0.1,0.4,1.4000000000000001,10,initial,36.05,342,361,379,0,0,9,9,9,0,0,,,,,,,3,0,3,0,0,14,14,28,,,,,,,,,,,,num_2,0.6857750000199303,num_2,0.2,1.2,0.44999999999999996,0.5,17.19248,19.10275,return,3.440419099992141,,,,,,,,,,,,,,,,,907,20,female,up_down_width,2024-10-18_10h36.21.024,exp1,2023.1.0,59.98444007139262,
,,,,,,,,,,,,,,,,3,9.5,10,10.5,0,0,0.5,0.1,0.4,1.4000000000000001,10,initial,36.05,342,361,379,0,0,9,9,9,0,0,,,,,,,3,0,3,0,0,15,15,8,,,,,,,,,,,,num_2,0.8951306999661028,num_2,0.35,1.6,0.44999999999999996,0.6,17.19248,22.9233,return,4.740932100103237,,,,,,,,,,,,,,,,,907,20,female,up_down_width,2024-10-18_10h36.21.024,exp1,2023.1.0,59.98444007139262,
,,,,,,,,,,,,,,,,4,9.25,9.75,10.25,10.75,0,0.5,0.1,0.4,1.9000000000000001,10,initial,36.05,333,351,370,388,0,9,9,9,9,0,,,,,,,3,0,3,0,0,16,16,40,,,,,,,,,,,,num_3,0.7036830000579357,num_3,0.5,1.3,0.5,0.6,19.10275,22.9233,return,4.076872100005858,,,,,,,,,,,,,,,,,907,20,female,up_down_width,2024-10-18_10h36.21.024,exp1,2023.1.0,59.98444007139262,
,,,,,,,,,,,,,,,,5,9,9.5,10,10.5,11,0.5,0.1,0.4,2.4,10,initial,36.05,324,342,361,379,397,9,9,9,9,9,,,,,,,3,0,3,0,0,17,17,26,,,,,,,,,,,,num_4,0.8159573000157252,num_4,0.45,0.7,0.45,0.7,17.19248,26.74385,return,0.9096852999646217,,,,,,,,,,,,,,,,,907,20,female,up_down_width,2024-10-18_10h36.21.024,exp1,2023.1.0,59.98444007139262,
,,,,,,,,,,,,,,,,4,9.25,9.75,10.25,10.75,0,0.5,0.1,0.4,1.9000000000000001,10,initial,36.05,333,351,370,388,0,9,9,9,9,0,,,,,,,3,0,3,0,0,18,18,10,,,,,,,,,,,,num_3,0.858864999958314,num_3,0.35,1.2,0.35,1.2,13.37193,45.8466,return,0.18054420000407845,,,,,,,,,,,,,,,,,907,20,female,up_down_width,2024-10-18_10h36.21.024,exp1,2023.1.0,59.98444007139262,
,,,,,,,,,,,,,,,,4,9.25,9.75,10.25,10.75,0,0.5,0.1,0.4,1.9000000000000001,10,initial,36.05,333,351,370,388,0,9,9,9,9,0,,,,,,,3,0,3,0,0,19,19,38,,,,,,,,,,,,num_3,0.6064433000283316,num_3,0.25,0.5,0.35,0.45,13.37193,17.19248,return,1.636547000030987,,,,,,,,,,,,,,,,,907,20,female,up_down_width,2024-10-18_10h36.21.024,exp1,2023.1.0,59.98444007139262,
,,,,,,,,,,,,,,,,3,9.5,10,10.5,0,0,0.5,0.1,0.4,1.4000000000000001,10,initial,36.05,342,361,379,0,0,9,9,9,0,0,,,,,,,3,0,3,0,0,20,20,4,,,,,,,,,,,,num_2,0.532593300100416,num_2,0.35,1.0,0.35,0.5,13.37193,19.10275,return,1.982038400019519,,,,,,,,,,,,,,,,,907,20,female,up_down_width,2024-10-18_10h36.21.024,exp1,2023.1.0,59.98444007139262,
,,,,,,,,,,,,,,,,5,9,9.5,10,10.5,11,0.5,0.1,0.4,2.4,10,initial,36.05,324,342,361,379,397,9,9,9,9,9,,,,,,,3,0,3,0,0,21,21,24,,,,,,,,,,,,num_4,0.732692199992016,num_4,0.25,0.8,0.44999999999999996,0.6,17.19248,22.9233,return,3.2269960999256,,,,,,,,,,,,,,,,,907,20,female,up_down_width,2024-10-18_10h36.21.024,exp1,2023.1.0,59.98444007139262,
,,,,,,,,,,,,,,,,3,9.5,10,10.5,0,0,0.5,0.1,0.4,1.4000000000000001,10,initial,36.05,342,361,379,0,0,9,9,9,0,0,,,,,,,3,0,3,0,0,22,22,6,,,,,,,,,,,,num_2,1.050648199976422,num_2,0.2,1.2,0.35,0.5,13.37193,19.10275,return,2.8918728000717238,,,,,,,,,,,,,,,,,907,20,female,up_down_width,2024-10-18_10h36.21.024,exp1,2023.1.0,59.98444007139262,
,,,,,,,,,,,,,,,,5,9,9.5,10,10.5,11,0.5,0.1,0.4,2.4,10,initial,36.05,324,342,361,379,397,9,9,9,9,9,,,,,,,3,0,3,0,0,23,23,22,,,,,,,,,,,,num_4,0.8124045999720693,num_4,0.5,0.9,0.5,0.7,19.10275,26.74385,return,1.2675731999333948,,,,,,,,,,,,,,,,,907,20,female,up_down_width,2024-10-18_10h36.21.024,exp1,2023.1.0,59.98444007139262,
,,,,,,,,,,,,,,,,5,9,9.5,10,10.5,11,0.5,0.1,0.4,2.4,10,initial,36.05,324,342,361,379,397,9,9,9,9,9,,,,,,,3,0,3,0,0,24,24,45,,,,,,,,,,,,num_4,0.6996599000412971,num_4,0.35,0.9,0.39999999999999997,0.5,15.2822,19.10275,return,2.6447195999789983,,,,,,,,,,,,,,,,,907,20,female,up_down_width,2024-10-18_10h36.21.024,exp1,2023.1.0,59.98444007139262,
,,,,,,,,,,,,,,,,3,9.5,10,10.5,0,0,0.5,0.1,0.4,1.4000000000000001,10,initial,36.05,342,361,379,0,0,9,9,9,0,0,,,,,,,3,0,3,0,0,25,25,1,,,,,,,,,,,,num_2,0.9321679000277072,num_2,0.45,1.2,0.45,0.6,17.19248,22.9233,return,1.7264225999824703,,,,,,,,,,,,,,,,,907,20,female,up_down_width,2024-10-18_10h36.21.024,exp1,2023.1.0,59.98444007139262,
,,,,,,,,,,,,,,,,5,9,9.5,10,10.5,11,0.5,0.1,0.4,2.4,10,initial,36.05,324,342,361,379,397,9,9,9,9,9,,,,,,,3,0,3,0,0,26,26,20,,,,,,,,,,,,num_4,0.6477169999852777,num_4,0.5,1.0,0.5,0.6,19.10275,22.9233,return,1.2732008999446407,,,,,,,,,,,,,,,,,907,20,female,up_down_width,2024-10-18_10h36.21.024,exp1,2023.1.0,59.98444007139262,
,,,,,,,,,,,,,,,,4,9.25,9.75,10.25,10.75,0,0.5,0.1,0.4,1.9000000000000001,10,initial,36.05,333,351,370,388,0,9,9,9,9,0,,,,,,,3,0,3,0,0,27,27,37,,,,,,,,,,,,num_3,0.6747759999707341,num_3,0.55,1.3,0.55,0.65,21.01303,24.83358,return,3.121674600057304,,,,,,,,,,,,,,,,,907,20,female,up_down_width,2024-10-18_10h36.21.024,exp1,2023.1.0,59.98444007139262,
,,,,,,,,,,,,,,,,4,9.25,9.75,10.25,10.75,0,0.5,0.1,0.4,1.9000000000000001,10,initial,36.05,333,351,370,388,0,9,9,9,9,0,,,,,,,3,0,3,0,0,28,28,42,,,,,,,,,,,,num_3,0.7159354999894276,num_3,0.35,0.9,0.35,0.5,13.37193,19.10275,return,2.107989300042391,,,,,,,,,,,,,,,,,907,20,female,up_down_width,2024-10-18_10h36.21.024,exp1,2023.1.0,59.98444007139262,
,,,,,,,,,,,,,,,,3,9.5,10,10.5,0,0,0.5,0.1,0.4,1.4000000000000001,10,initial,36.05,342,361,379,0,0,9,9,9,0,0,,,,,,,3,0,3,0,0,29,29,31,,,,,,,,,,,,num_3,0.8276443999493495,num_3,0.45,0.8,0.45,0.5,17.19248,19.10275,return,1.3530045999214053,,,,,,,,,,,,,,,,,907,20,female,up_down_width,2024-10-18_10h36.21.024,exp1,2023.1.0,59.98444007139262,
,,,,,,,,,,,,,,,,3,9.5,10,10.5,0,0,0.5,0.1,0.4,1.4000000000000001,10,initial,36.05,342,361,379,0,0,9,9,9,0,0,,,,,,,3,0,3,0,0,30,30,27,,,,,,,,,,,,num_2,0.6133632999844849,num_2,0.55,1.0,0.55,0.7,21.01303,26.74385,return,0.8385805999860168,,,,,,,,,,,,,,,,,907,20,female,up_down_width,2024-10-18_10h36.21.024,exp1,2023.1.0,59.98444007139262,
,,,,,,,,,,,,,,,,3,9.5,10,10.5,0,0,0.5,0.1,0.4,1.4000000000000001,10,initial,36.05,342,361,379,0,0,9,9,9,0,0,,,,,,,3,0,3,0,0,31,31,35,,,,,,,,,,,,num_2,0.7071637000190094,num_2,0.3,1.4,0.49999999999999994,0.6,19.10275,22.9233,return,2.625577900093049,,,,,,,,,,,,,,,,,907,20,female,up_down_width,2024-10-18_10h36.21.024,exp1,2023.1.0,59.98444007139262,
,,,,,,,,,,,,,,,,4,9.25,9.75,10.25,10.75,0,0.5,0.1,0.4,1.9000000000000001,10,initial,36.05,333,351,370,388,0,9,9,9,9,0,,,,,,,3,0,3,0,0,32,32,14,,,,,,,,,,,,num_3,0.7623384000035003,num_3,0.45,0.8,0.45,0.55,17.19248,21.01303,return,1.6681922000134364,,,,,,,,,,,,,,,,,907,20,female,up_down_width,2024-10-18_10h36.21.024,exp1,2023.1.0,59.98444007139262,
,,,,,,,,,,,,,,,,4,9.25,9.75,10.25,10.75,0,0.5,0.1,0.4,1.9000000000000001,10,initial,36.05,333,351,370,388,0,9,9,9,9,0,,,,,,,3,0,3,0,0,33,33,11,,,,,,,,,,,,num_3,0.5326978999655694,num_3,0.5,1.3,0.5,0.6,19.10275,22.9233,return,3.131356699974276,,,,,,,,,,,,,,,,,907,20,female,up_down_width,2024-10-18_10h36.21.024,exp1,2023.1.0,59.98444007139262,
,,,,,,,,,,,,,,,,5,9,9.5,10,10.5,11,0.5,0.1,0.4,2.4,10,initial,36.05,324,342,361,379,397,9,9,9,9,9,,,,,,,3,0,3,0,0,34,34,50,,,,,,,,,,,,num_4,0.8245433999691159,num_4,0.3,0.4,0.25,0.3,9.55138,11.46165,return,2.942438800004311,,,,,,,,,,,,,,,,,907,20,female,up_down_width,2024-10-18_10h36.21.024,exp1,2023.1.0,59.98444007139262,
,,,,,,,,,,,,,,,,3,9.5,10,10.5,0,0,0.5,0.1,0.4,1.4000000000000001,10,initial,36.05,342,361,379,0,0,9,9,9,0,0,,,,,,,3,0,3,0,0,35,35,33,,,,,,,,,,,,num_2,0.6124198999023065,num_2,0.35,0.4,0.3,0.4,11.46165,15.2822,return,2.2611055000452325,,,,,,,,,,,,,,,,,907,20,female,up_down_width,2024-10-18_10h36.21.024,exp1,2023.1.0,59.98444007139262,
,,,,,,,,,,,,,,,,5,9,9.5,10,10.5,11,0.5,0.1,0.4,2.4,10,initial,36.05,324,342,361,379,397,9,9,9,9,9,,,,,,,3,0,3,0,0,36,36,21,,,,,,,,,,,,num_4,0.9037522000726312,num_4,0.3,0.9,0.35,0.4,13.37193,15.2822,return,1.6495622999500483,,,,,,,,,,,,,,,,,907,20,female,up_down_width,2024-10-18_10h36.21.024,exp1,2023.1.0,59.98444007139262,
,,,,,,,,,,,,,,,,4,9.25,9.75,10.25,10.75,0,0.5,0.1,0.4,1.9000000000000001,10,initial,36.05,333,351,370,388,0,9,9,9,9,0,,,,,,,3,0,3,0,0,37,37,13,,,,,,,,,,,,num_3,0.7179191999603063,num_3,0.45,1.2,0.45,0.55,17.19248,21.01303,return,2.9564768000273034,,,,,,,,,,,,,,,,,907,20,female,up_down_width,2024-10-18_10h36.21.024,exp1,2023.1.0,59.98444007139262,
,,,,,,,,,,,,,,,,3,9.5,10,10.5,0,0,0.5,0.1,0.4,1.4000000000000001,10,initial,36.05,342,361,379,0,0,9,9,9,0,0,,,,,,,3,0,3,0,0,38,38,32,,,,,,,,,,,,num_2,0.47615380003117025,num_2,0.2,1.0,0.2,0.7,7.6411,26.74385,return,0.6644165000179783,,,,,,,,,,,,,,,,,907,20,female,up_down_width,2024-10-18_10h36.21.024,exp1,2023.1.0,59.98444007139262,
,,,,,,,,,,,,,,,,4,9.25,9.75,10.25,10.75,0,0.5,0.1,0.4,1.9000000000000001,10,initial,36.05,333,351,370,388,0,9,9,9,9,0,,,,,,,3,0,3,0,0,39,39,43,,,,,,,,,,,,num_4,0.7623515999875963,num_4,0.4,1.2,0.35000000000000003,0.5,13.37193,19.10275,return,3.754445999977179,,,,,,,,,,,,,,,,,907,20,female,up_down_width,2024-10-18_10h36.21.024,exp1,2023.1.0,59.98444007139262,
,,,,,,,,,,,,,,,,4,9.25,9.75,10.25,10.75,0,0.5,0.1,0.4,1.9000000000000001,10,initial,36.05,333,351,370,388,0,9,9,9,9,0,,,,,,,3,0,3,0,0,40,40,41,,,,,,,,,,,,num_3,0.8444967999821529,num_3,0.3,1,0.3,0.5,11.46165,19.10275,return,2.8355540999909863,,,,,,,,,,,,,,,,,907,20,female,up_down_width,2024-10-18_10h36.21.024,exp1,2023.1.0,59.98444007139262,
,,,,,,,,,,,,,,,,5,9,9.5,10,10.5,11,0.5,0.1,0.4,2.4,10,initial,36.05,324,342,361,379,397,9,9,9,9,9,,,,,,,3,0,3,0,0,41,41,52,,,,,,,,,,,,num_4,0.7124389000236988,num_4,0.45,0.7,0.35000000000000003,0.5,13.37193,19.10275,return,2.171008800039999,,,,,,,,,,,,,,,,,907,20,female,up_down_width,2024-10-18_10h36.21.024,exp1,2023.1.0,59.98444007139262,
,,,,,,,,,,,,,,,,4,9.25,9.75,10.25,10.75,0,0.5,0.1,0.4,1.9000000000000001,10,initial,36.05,333,351,370,388,0,9,9,9,9,0,,,,,,,3,0,3,0,0,42,42,15,,,,,,,,,,,,num_3,0.7570615999866277,num_3,0.35,0.5,0.35,0.45,13.37193,17.19248,return,0.7553875000448897,,,,,,,,,,,,,,,,,907,20,female,up_down_width,2024-10-18_10h36.21.024,exp1,2023.1.0,59.98444007139262,
,,,,,,,,,,,,,,,,4,9.25,9.75,10.25,10.75,0,0.5,0.1,0.4,1.9000000000000001,10,initial,36.05,333,351,370,388,0,9,9,9,9,0,,,,,,,3,0,3,0,0,43,43,16,,,,,,,,,,,,num_3,0.6891362000023946,num_3,0.25,0.6,0.39999999999999997,0.65,15.2822,24.83358,return,1.9715242000529543,,,,,,,,,,,,,,,,,907,20,female,up_down_width,2024-10-18_10h36.21.024,exp1,2023.1.0,59.98444007139262,
,,,,,,,,,,,,,,,,5,9,9.5,10,10.5,11,0.5,0.1,0.4,2.4,10,initial,36.05,324,342,361,379,397,9,9,9,9,9,,,,,,,3,0,3,0,0,44,44,51,,,,,,,,,,,,num_4,0.6419147000415251,num_4,0.2,0.8,0.39999999999999997,0.6,15.2822,22.9233,return,3.428336299955845,,,,,,,,,,,,,,,,,907,20,female,up_down_width,2024-10-18_10h36.21.024,exp1,2023.1.0,59.98444007139262,
,,,,,,,,,,,,,,,,3,9.5,10,10.5,0,0,0.5,0.1,0.4,1.4000000000000001,10,initial,36.05,342,361,379,0,0,9,9,9,0,0,,,,,,,3,0,3,0,0,45,45,2,,,,,,,,,,,,num_3,0.7082506000297144,num_3,0.3,1.3,0.39999999999999997,0.7,15.2822,26.74385,return,5.650937000056729,,,,,,,,,,,,,,,,,907,20,female,up_down_width,2024-10-18_10h36.21.024,exp1,2023.1.0,59.98444007139262,
,,,,,,,,,,,,,,,,4,9.25,9.75,10.25,10.75,0,0.5,0.1,0.4,1.9000000000000001,10,initial,36.05,333,351,370,388,0,9,9,9,9,0,,,,,,,3,0,3,0,0,46,46,12,,,,,,,,,,,,num_3,1.005250999936834,num_3,0.25,0.6,0.25,0.6,9.55138,22.9233,return,0.6398152000037953,,,,,,,,,,,,,,,,,907,20,female,up_down_width,2024-10-18_10h36.21.024,exp1,2023.1.0,59.98444007139262,
,,,,,,,,,,,,,,,,4,9.25,9.75,10.25,10.75,0,0.5,0.1,0.4,1.9000000000000001,10,initial,36.05,333,351,370,388,0,9,9,9,9,0,,,,,,,3,0,3,0,0,47,47,9,,,,,,,,,,,,num_3,0.5602931000757962,num_3,0.35,0.6,0.44999999999999996,0.6,17.19248,22.9233,return,0.8405489000724629,,,,,,,,,,,,,,,,,907,20,female,up_down_width,2024-10-18_10h36.21.024,exp1,2023.1.0,59.98444007139262,
,,,,,,,,,,,,,,,,4,9.25,9.75,10.25,10.75,0,0.5,0.1,0.4,1.9000000000000001,10,initial,36.05,333,351,370,388,0,9,9,9,9,0,,,,,,,3,0,3,0,0,48,48,36,,,,,,,,,,,,num_3,0.6663683999795467,num_3,0.3,1.3,0.5499999999999999,0.75,21.01303,28.65413,return,3.388319000019692,,,,,,,,,,,,,,,,,907,20,female,up_down_width,2024-10-18_10h36.21.024,exp1,2023.1.0,59.98444007139262,
,,,,,,,,,,,,,,,,5,9,9.5,10,10.5,11,0.5,0.1,0.4,2.4,10,initial,36.05,324,342,361,379,397,9,9,9,9,9,,,,,,,3,0,3,0,0,49,49,47,,,,,,,,,,,,num_4,1.0072504999116063,num_4,0.25,0.3,0.25,0.5,9.55138,19.10275,return,1.5569785999832675,,,,,,,,,,,,,,,,,907,20,female,up_down_width,2024-10-18_10h36.21.024,exp1,2023.1.0,59.98444007139262,
,,,,,,,,,,,,,,,,5,9,9.5,10,10.5,11,0.5,0.1,0.4,2.4,10,initial,36.05,324,342,361,379,397,9,9,9,9,9,,,,,,,3,0,3,0,0,50,50,23,,,,,,,,,,,,num_4,0.9788919000420719,num_4,0.35,0.7,0.35,0.7,13.37193,26.74385,return,0.2793995999963954,,,,,,,,,,,,,,,,,907,20,female,up_down_width,2024-10-18_10h36.21.024,exp1,2023.1.0,59.98444007139262,
,,,,,,,,,,,,,,,,3,9.5,10,10.5,0,0,0.5,0.1,0.4,1.4000000000000001,10,initial,36.05,342,361,379,0,0,9,9,9,0,0,,,,,,,3,0,3,0,0,51,51,0,,,,,,,,,,,,num_2,0.6329259999329224,num_2,0.3,1.6,0.44999999999999996,0.6,17.19248,22.9233,return,3.306475799996406,,,,,,,,,,,,,,,,,907,20,female,up_down_width,2024-10-18_10h36.21.024,exp1,2023.1.0,59.98444007139262,
,,,,,,,,,,,,,,,,4,9.25,9.75,10.25,10.75,0,0.5,0.1,0.4,1.9000000000000001,10,initial,36.05,333,351,370,388,0,9,9,9,9,0,,,,,,,3,0,3,0,0,52,52,39,,,,,,,,,,,,num_4,0.9270911999046803,num_4,0.35,1.2,0.39999999999999997,0.5,15.2822,19.10275,return,2.8722599000902846,,,,,,,,,,,,,,,,,907,20,female,up_down_width,2024-10-18_10h36.21.024,exp1,2023.1.0,59.98444007139262,
,,,,,,,,,,,,,,,,5,9,9.5,10,10.5,11,0.5,0.1,0.4,2.4,10,initial,36.05,324,342,361,379,397,9,9,9,9,9,,,,,,,3,0,3,0,0,53,53,18,,,,,,,,,,,,num_5,0.8243733000708744,num_5,0.2,0.8,0.39999999999999997,0.5,15.2822,19.10275,return,2.6268595999572426,,,,,,,,,,,,,,,,,907,20,female,up_down_width,2024-10-18_10h36.21.024,exp1,2023.1.0,59.98444007139262,
,,,,,,,,,,,,,,,,,,,,,,,,,,,,,,,,,,,,,,,,,,,,,3,0,3,0,,,,,,,,,,,,,,,,,,,,,,,,,,,,,1353.8796544000506,1353.8796544000506,1353.8796544000506,,,,,,,,,,,,907,20,female,up_down_width,2024-10-18_10h36.21.024,exp1,2023.1.0,59.98444007139262,
,,,,,,,,,,,,,,,,3,9.1,10,10.9,0,0,0.9,0.35,0.55,2.35,10,initial,36.05,328,361,393,0,0,9,9,9,0,0,,,,,,,4,0,4,0,0,0,0,35,,,,,,,,,,,,num_3,3.318439899943769,num_3,0.4,0.8,0.30000000000000004,0.8,11.46165,30.5644,return,1.6448449000017717,,,,,,,,,,,,,,,,,907,20,female,up_down_width,2024-10-18_10h36.21.024,exp1,2023.1.0,59.98444007139262,
,,,,,,,,,,,,,,,,3,9.1,10,10.9,0,0,0.9,0.35,0.55,2.35,10,initial,36.05,328,361,393,0,0,9,9,9,0,0,,,,,,,4,0,4,0,0,1,1,8,,,,,,,,,,,,num_1,0.036301800049841404,num_1,0.35,9999,0.3,9999,11.46165,382016.8345,return,0.04752709995955229,,,,,,,,,,,,,,,,,907,20,female,up_down_width,2024-10-18_10h36.21.024,exp1,2023.1.0,59.98444007139262,
,,,,,,,,,,,,,,,,4,8.65,9.55,10.45,11.35,0,0.9,0.35,0.55,3.25,10,initial,36.05,312,344,377,409,0,9,9,9,9,0,,,,,,,4,0,4,0,0,2,2,16,,,,,,,,,,,,num_6,0.2339604999870062,num_6,0.45,1.3,0.05000000000000007,1.3,1.91028,49.66716,return,0.17524150002282113,,,,,,,,,,,,,,,,,907,20,female,up_down_width,2024-10-18_10h36.21.024,exp1,2023.1.0,59.98444007139262,
,,,,,,,,,,,,,,,,4,8.65,9.55,10.45,11.35,0,0.9,0.35,0.55,3.25,10,initial,36.05,312,344,377,409,0,9,9,9,9,0,,,,,,,4,0,4,0,0,3,3,14,,,,,,,,,,,,num_4,0.09178080002311617,num_4,0.45,1.0,0.20000000000000007,1.0,7.6411,38.2055,return,0.05455719993915409,,,,,,,,,,,,,,,,,907,20,female,up_down_width,2024-10-18_10h36.21.024,exp1,2023.1.0,59.98444007139262,
,,,,,,,,,,,,,,,,4,8.65,9.55,10.45,11.35,0,0.9,0.35,0.55,3.25,10,initial,36.05,312,344,377,409,0,9,9,9,9,0,,,,,,,4,0,4,0,0,4,4,9,,,,,,,,,,,,num_4,0.04186209989711642,num_4,0.4,0.5,0.15000000000000008,0.5,5.73083,19.10275,return,0.30484410002827644,,,,,,,,,,,,,,,,,907,20,female,up_down_width,2024-10-18_10h36.21.024,exp1,2023.1.0,59.98444007139262,
,,,,,,,,,,,,,,,,3,9.1,10,10.9,0,0,0.9,0.35,0.55,2.35,10,initial,36.05,328,361,393,0,0,9,9,9,0,0,,,,,,,4,0,4,0,0,5,5,6,,,,,,,,,,,,num_3,1.0351637999992818,num_3,0.35,1.1,0.49999999999999994,1.1,19.10275,42.02605,return,1.5955983999883756,,,,,,,,,,,,,,,,,907,20,female,up_down_width,2024-10-18_10h36.21.024,exp1,2023.1.0,59.98444007139262,
,,,,,,,,,,,,,,,,4,8.65,9.55,10.45,11.35,0,0.9,0.35,0.55,3.25,10,initial,36.05,312,344,377,409,0,9,9,9,9,0,,,,,,,4,0,4,0,0,6,6,13,,,,,,,,,,,,num_2,0.16312280006241053,num_2,0.55,1.0,0.6000000000000001,1.0,22.9233,38.2055,return,0.044347899965941906,,,,,,,,,,,,,,,,,907,20,female,up_down_width,2024-10-18_10h36.21.024,exp1,2023.1.0,59.98444007139262,
,,,,,,,,,,,,,,,,3,9.1,10,10.9,0,0,0.9,0.35,0.55,2.35,10,initial,36.05,328,361,393,0,0,9,9,9,0,0,,,,,,,4,0,4,0,0,7,7,1,,,,,,,,,,,,num_6,0.24181629996746778,num_6,0.4,1.1,0.9000000000000004,1.1,34.38495,42.02605,return,0.21806979994289577,,,,,,,,,,,,,,,,,907,20,female,up_down_width,2024-10-18_10h36.21.024,exp1,2023.1.0,59.98444007139262,
,,,,,,,,,,,,,,,,5,8.2,9.1,10,10.9,11.8,0.9,0.35,0.55,4.15,10,initial,36.05,296,328,361,393,425,9,9,9,9,9,,,,,,,4,0,4,0,0,8,8,22,,,,,,,,,,,,num_2,0.015901000006124377,num_2,0.4,0.8,0.55,0.8,21.01303,30.5644,return,0.4477867999812588,,,,,,,,,,,,,,,,,907,20,female,up_down_width,2024-10-18_10h36.21.024,exp1,2023.1.0,59.98444007139262,
,,,,,,,,,,,,,,,,4,8.65,9.55,10.45,11.35,0,0.9,0.35,0.55,3.25,10,initial,36.05,312,344,377,409,0,9,9,9,9,0,,,,,,,4,0,4,0,0,9,9,15,,,,,,,,,,,,num_5,0.04925909999292344,num_5,0.2,1.2,0.44999999999999996,1.2,17.19248,45.8466,return,0.018325499957427382,,,,,,,,,,,,,,,,,907,20,female,up_down_width,2024-10-18_10h36.21.024,exp1,2023.1.0,59.98444007139262,
,,,,,,,,,,,,,,,,5,8.2,9.1,10,10.9,11.8,0.9,0.35,0.55,4.15,10,initial,36.05,296,328,361,393,425,9,9,9,9,9,,,,,,,4,0,4,0,0,10,10,24,,,,,,,,,,,,num_4,0.05558229994494468,num_4,0.25,0.6,0.65,0.6,24.83358,22.9233,return,0.48367829993367195,,,,,,,,,,,,,,,,,907,20,female,up_down_width,2024-10-18_10h36.21.024,exp1,2023.1.0,59.98444007139262,
,,,,,,,,,,,,,,,,3,9.1,10,10.9,0,0,0.9,0.35,0.55,2.35,10,initial,36.05,328,361,393,0,0,9,9,9,0,0,,,,,,,4,0,4,0,0,11,11,28,,,,,,,,,,,,num_6,0.34059580008033663,num_6,0.55,0.8,0.7500000000000002,0.8,28.65413,30.5644,return,0.005818300065584481,,,,,,,,,,,,,,,,,907,20,female,up_down_width,2024-10-18_10h36.21.024,exp1,2023.1.0,59.98444007139262,
,,,,,,,,,,,,,,,,3,9.1,10,10.9,0,0,0.9,0.35,0.55,2.35,10,initial,36.05,328,361,393,0,0,9,9,9,0,0,,,,,,,4,0,4,0,0,12,12,3,,,,,,,,,,,,num_2,2.1144456999609247,num_2,0.35,1.4,0.49999999999999994,0.9,19.10275,34.38495,return,2.5836450000060722,,,,,,,,,,,,,,,,,907,20,female,up_down_width,2024-10-18_10h36.21.024,exp1,2023.1.0,59.98444007139262,
,,,,,,,,,,,,,,,,4,8.65,9.55,10.45,11.35,0,0.9,0.35,0.55,3.25,10,initial,36.05,312,344,377,409,0,9,9,9,9,0,,,,,,,4,0,4,0,0,13,13,39,,,,,,,,,,,,num_3,1.1590597999747843,num_3,0.55,0.7,0.6000000000000001,0.7,22.9233,26.74385,return,0.869347200030461,,,,,,,,,,,,,,,,,907,20,female,up_down_width,2024-10-18_10h36.21.024,exp1,2023.1.0,59.98444007139262,
,,,,,,,,,,,,,,,,3,9.1,10,10.9,0,0,0.9,0.35,0.55,2.35,10,initial,36.05,328,361,393,0,0,9,9,9,0,0,,,,,,,4,0,4,0,0,14,14,4,,,,,,,,,,,,num_2,0.6363221999490634,num_2,0.2,1.2,0.39999999999999997,0.8,15.2822,30.5644,return,1.8998227000702173,,,,,,,,,,,,,,,,,907,20,female,up_down_width,2024-10-18_10h36.21.024,exp1,2023.1.0,59.98444007139262,
,,,,,,,,,,,,,,,,4,8.65,9.55,10.45,11.35,0,0.9,0.35,0.55,3.25,10,initial,36.05,312,344,377,409,0,9,9,9,9,0,,,,,,,4,0,4,0,0,15,15,44,,,,,,,,,,,,num_3,0.745549299987033,num_3,0.25,0.3,0.3,0.55,11.46165,21.01303,return,6.789250400033779,,,,,,,,,,,,,,,,,907,20,female,up_down_width,2024-10-18_10h36.21.024,exp1,2023.1.0,59.98444007139262,
,,,,,,,,,,,,,,,,5,8.2,9.1,10,10.9,11.8,0.9,0.35,0.55,4.15,10,initial,36.05,296,328,361,393,425,9,9,9,9,9,,,,,,,4,0,4,0,0,16,16,49,,,,,,,,,,,,num_5,0.759838999947533,num_5,0.3,0.4,0.39999999999999997,0.8,15.2822,30.5644,return,3.8487573000602424,,,,,,,,,,,,,,,,,907,20,female,up_down_width,2024-10-18_10h36.21.024,exp1,2023.1.0,59.98444007139262,
,,,,,,,,,,,,,,,,4,8.65,9.55,10.45,11.35,0,0.9,0.35,0.55,3.25,10,initial,36.05,312,344,377,409,0,9,9,9,9,0,,,,,,,4,0,4,0,0,17,17,11,,,,,,,,,,,,num_4,1.3517877000849694,num_4,0.2,0.4,0.35,0.7,13.37193,26.74385,return,1.7568373000249267,,,,,,,,,,,,,,,,,907,20,female,up_down_width,2024-10-18_10h36.21.024,exp1,2023.1.0,59.98444007139262,
,,,,,,,,,,,,,,,,5,8.2,9.1,10,10.9,11.8,0.9,0.35,0.55,4.15,10,initial,36.05,296,328,361,393,425,9,9,9,9,9,,,,,,,4,0,4,0,0,18,18,47,,,,,,,,,,,,num_5,0.7655723999487236,num_5,0.55,1.0,0.55,1.0,21.01303,38.2055,return,1.1185173999983817,,,,,,,,,,,,,,,,,907,20,female,up_down_width,2024-10-18_10h36.21.024,exp1,2023.1.0,59.98444007139262,
,,,,,,,,,,,,,,,,3,9.1,10,10.9,0,0,0.9,0.35,0.55,2.35,10,initial,36.05,328,361,393,0,0,9,9,9,0,0,,,,,,,4,0,4,0,0,19,19,0,,,,,,,,,,,,num_3,0.7450002999976277,num_3,0.35,0.8,0.39999999999999997,0.85,15.2822,32.47468,return,1.157498100074008,,,,,,,,,,,,,,,,,907,20,female,up_down_width,2024-10-18_10h36.21.024,exp1,2023.1.0,59.98444007139262,
,,,,,,,,,,,,,,,,3,9.1,10,10.9,0,0,0.9,0.35,0.55,2.35,10,initial,36.05,328,361,393,0,0,9,9,9,0,0,,,,,,,4,0,4,0,0,20,20,27,,,,,,,,,,,,num_2,0.7883550999686122,num_2,0.35,1.2,0.35,1.1,13.37193,42.02605,return,1.123227300005965,,,,,,,,,,,,,,,,,907,20,female,up_down_width,2024-10-18_10h36.21.024,exp1,2023.1.0,59.98444007139262,
,,,,,,,,,,,,,,,,4,8.65,9.55,10.45,11.35,0,0.9,0.35,0.55,3.25,10,initial,36.05,312,344,377,409,0,9,9,9,9,0,,,,,,,4,0,4,0,0,21,21,12,,,,,,,,,,,,num_4,0.9386944000143558,num_4,0.25,0.9,0.3,0.9,11.46165,34.38495,return,0.6103823999874294,,,,,,,,,,,,,,,,,907,20,female,up_down_width,2024-10-18_10h36.21.024,exp1,2023.1.0,59.98444007139262,
,,,,,,,,,,,,,,,,5,8.2,9.1,10,10.9,11.8,0.9,0.35,0.55,4.15,10,initial,36.05,296,328,361,393,425,9,9,9,9,9,,,,,,,4,0,4,0,0,22,22,23,,,,,,,,,,,,num_5,0.6445766999386251,num_5,0.2,0.5,0.3,0.5,11.46165,19.10275,return,0.8205138000193983,,,,,,,,,,,,,,,,,907,20,female,up_down_width,2024-10-18_10h36.21.024,exp1,2023.1.0,59.98444007139262,
,,,,,,,,,,,,,,,,3,9.1,10,10.9,0,0,0.9,0.35,0.55,2.35,10,initial,36.05,328,361,393,0,0,9,9,9,0,0,,,,,,,4,0,4,0,0,23,23,32,,,,,,,,,,,,num_3,0.7156021998962387,num_3,0.45,0.6,0.45,0.75,17.19248,28.65413,return,2.89305549999699,,,,,,,,,,,,,,,,,907,20,female,up_down_width,2024-10-18_10h36.21.024,exp1,2023.1.0,59.98444007139262,
,,,,,,,,,,,,,,,,3,9.1,10,10.9,0,0,0.9,0.35,0.55,2.35,10,initial,36.05,328,361,393,0,0,9,9,9,0,0,,,,,,,4,0,4,0,0,24,24,5,,,,,,,,,,,,num_3,0.6674803000641987,num_3,0.55,0.6,0.55,0.95,21.01303,36.29523,return,1.6119856000877917,,,,,,,,,,,,,,,,,907,20,female,up_down_width,2024-10-18_10h36.21.024,exp1,2023.1.0,59.98444007139262,
,,,,,,,,,,,,,,,,4,8.65,9.55,10.45,11.35,0,0.9,0.35,0.55,3.25,10,initial,36.05,312,344,377,409,0,9,9,9,9,0,,,,,,,4,0,4,0,0,25,25,42,,,,,,,,,,,,num_4,1.4425560000818223,num_4,0.3,0.3,0.3,0.7,11.46165,26.74385,return,3.9658750999951735,,,,,,,,,,,,,,,,,907,20,female,up_down_width,2024-10-18_10h36.21.024,exp1,2023.1.0,59.98444007139262,
,,,,,,,,,,,,,,,,5,8.2,9.1,10,10.9,11.8,0.9,0.35,0.55,4.15,10,initial,36.05,296,328,361,393,425,9,9,9,9,9,,,,,,,4,0,4,0,0,26,26,48,,,,,,,,,,,,num_5,1.0258021000772715,num_5,0.5,0.6,0.5,0.7,19.10275,26.74385,return,1.9597044000402093,,,,,,,,,,,,,,,,,907,20,female,up_down_width,2024-10-18_10h36.21.024,exp1,2023.1.0,59.98444007139262,
,,,,,,,,,,,,,,,,4,8.65,9.55,10.45,11.35,0,0.9,0.35,0.55,3.25,10,initial,36.05,312,344,377,409,0,9,9,9,9,0,,,,,,,4,0,4,0,0,27,27,40,,,,,,,,,,,,num_3,1.9191522999899462,num_3,0.55,1.1,0.5,1.15,19.10275,43.93633,return,1.1535065000643954,,,,,,,,,,,,,,,,,907,20,female,up_down_width,2024-10-18_10h36.21.024,exp1,2023.1.0,59.98444007139262,
,,,,,,,,,,,,,,,,3,9.1,10,10.9,0,0,0.9,0.35,0.55,2.35,10,initial,36.05,328,361,393,0,0,9,9,9,0,0,,,,,,,4,0,4,0,0,28,28,29,,,,,,,,,,,,num_3,0.9011884999927133,num_3,0.2,0.3,0.3,0.55,11.46165,21.01303,return,2.5252908000256866,,,,,,,,,,,,,,,,,907,20,female,up_down_width,2024-10-18_10h36.21.024,exp1,2023.1.0,59.98444007139262,
,,,,,,,,,,,,,,,,3,9.1,10,10.9,0,0,0.9,0.35,0.55,2.35,10,initial,36.05,328,361,393,0,0,9,9,9,0,0,,,,,,,4,0,4,0,0,29,29,2,,,,,,,,,,,,num_3,0.7549087000079453,num_3,0.2,0.7,0.35,0.7,13.37193,26.74385,return,1.5551961000310257,,,,,,,,,,,,,,,,,907,20,female,up_down_width,2024-10-18_10h36.21.024,exp1,2023.1.0,59.98444007139262,
,,,,,,,,,,,,,,,,4,8.65,9.55,10.45,11.35,0,0.9,0.35,0.55,3.25,10,initial,36.05,312,344,377,409,0,9,9,9,9,0,,,,,,,4,0,4,0,0,30,30,38,,,,,,,,,,,,num_4,0.8930555999977514,num_4,0.55,0.8,0.5,0.9,19.10275,34.38495,return,1.688075999962166,,,,,,,,,,,,,,,,,907,20,female,up_down_width,2024-10-18_10h36.21.024,exp1,2023.1.0,59.98444007139262,
,,,,,,,,,,,,,,,,4,8.65,9.55,10.45,11.35,0,0.9,0.35,0.55,3.25,10,initial,36.05,312,344,377,409,0,9,9,9,9,0,,,,,,,4,0,4,0,0,31,31,36,,,,,,,,,,,,num_3,0.6512363000074401,num_3,0.3,1.1,0.39999999999999997,1.15,15.2822,43.93633,return,1.567551999934949,,,,,,,,,,,,,,,,,907,20,female,up_down_width,2024-10-18_10h36.21.024,exp1,2023.1.0,59.98444007139262,
,,,,,,,,,,,,,,,,3,9.1,10,10.9,0,0,0.9,0.35,0.55,2.35,10,initial,36.05,328,361,393,0,0,9,9,9,0,0,,,,,,,4,0,4,0,0,32,32,7,,,,,,,,,,,,num_3,1.3952194000594318,num_3,0.3,0.9,0.39999999999999997,0.9,15.2822,34.38495,return,1.1589019999373704,,,,,,,,,,,,,,,,,907,20,female,up_down_width,2024-10-18_10h36.21.024,exp1,2023.1.0,59.98444007139262,
,,,,,,,,,,,,,,,,5,8.2,9.1,10,10.9,11.8,0.9,0.35,0.55,4.15,10,initial,36.05,296,328,361,393,425,9,9,9,9,9,,,,,,,4,0,4,0,0,33,33,25,,,,,,,,,,,,num_4,1.0517497999826446,num_4,0.5,1.1,0.6000000000000001,1.1,22.9233,42.02605,return,1.0044622999848798,,,,,,,,,,,,,,,,,907,20,female,up_down_width,2024-10-18_10h36.21.024,exp1,2023.1.0,59.98444007139262,
,,,,,,,,,,,,,,,,5,8.2,9.1,10,10.9,11.8,0.9,0.35,0.55,4.15,10,initial,36.05,296,328,361,393,425,9,9,9,9,9,,,,,,,4,0,4,0,0,34,34,26,,,,,,,,,,,,num_4,0.8116904000053182,num_4,0.55,0.7,0.55,1.2,21.01303,45.8466,return,6.058749200077727,,,,,,,,,,,,,,,,,907,20,female,up_down_width,2024-10-18_10h36.21.024,exp1,2023.1.0,59.98444007139262,
,,,,,,,,,,,,,,,,4,8.65,9.55,10.45,11.35,0,0.9,0.35,0.55,3.25,10,initial,36.05,312,344,377,409,0,9,9,9,9,0,,,,,,,4,0,4,0,0,35,35,43,,,,,,,,,,,,num_4,0.832700900034979,num_4,0.5,0.8,0.5,1.0,19.10275,38.2055,return,0.7945092000300065,,,,,,,,,,,,,,,,,907,20,female,up_down_width,2024-10-18_10h36.21.024,exp1,2023.1.0,59.98444007139262,
,,,,,,,,,,,,,,,,3,9.1,10,10.9,0,0,0.9,0.35,0.55,2.35,10,initial,36.05,328,361,393,0,0,9,9,9,0,0,,,,,,,4,0,4,0,0,36,36,30,,,,,,,,,,,,num_3,0.6777007000055164,num_3,0.2,0.7,0.35,0.75,13.37193,28.65413,return,1.2212343999417499,,,,,,,,,,,,,,,,,907,20,female,up_down_width,2024-10-18_10h36.21.024,exp1,2023.1.0,59.98444007139262,
,,,,,,,,,,,,,,,,5,8.2,9.1,10,10.9,11.8,0.9,0.35,0.55,4.15,10,initial,36.05,296,328,361,393,425,9,9,9,9,9,,,,,,,4,0,4,0,0,37,37,51,,,,,,,,,,,,num_4,0.6583450000034645,num_4,0.35,0.6,0.39999999999999997,0.9,15.2822,34.38495,return,2.0222107999725267,,,,,,,,,,,,,,,,,907,20,female,up_down_width,2024-10-18_10h36.21.024,exp1,2023.1.0,59.98444007139262,
,,,,,,,,,,,,,,,,5,8.2,9.1,10,10.9,11.8,0.9,0.35,0.55,4.15,10,initial,36.05,296,328,361,393,425,9,9,9,9,9,,,,,,,4,0,4,0,0,38,38,46,,,,,,,,,,,,num_4,0.6719387000193819,num_4,0.3,0.5,0.39999999999999997,0.8,15.2822,30.5644,return,1.7160525999497622,,,,,,,,,,,,,,,,,907,20,female,up_down_width,2024-10-18_10h36.21.024,exp1,2023.1.0,59.98444007139262,
,,,,,,,,,,,,,,,,5,8.2,9.1,10,10.9,11.8,0.9,0.35,0.55,4.15,10,initial,36.05,296,328,361,393,425,9,9,9,9,9,,,,,,,4,0,4,0,0,39,39,53,,,,,,,,,,,,num_5,0.9718549000099301,num_5,0.35,1.1,0.65,1.05,24.83358,40.11578,return,2.607015399960801,,,,,,,,,,,,,,,,,907,20,female,up_down_width,2024-10-18_10h36.21.024,exp1,2023.1.0,59.98444007139262,
,,,,,,,,,,,,,,,,4,8.65,9.55,10.45,11.35,0,0.9,0.35,0.55,3.25,10,initial,36.05,312,344,377,409,0,9,9,9,9,0,,,,,,,4,0,4,0,0,40,40,41,,,,,,,,,,,,num_4,0.765484599978663,num_4,0.4,1.1,0.45,0.9,17.19248,34.38495,return,1.9290241000708193,,,,,,,,,,,,,,,,,907,20,female,up_down_width,2024-10-18_10h36.21.024,exp1,2023.1.0,59.98444007139262,
,,,,,,,,,,,,,,,,4,8.65,9.55,10.45,11.35,0,0.9,0.35,0.55,3.25,10,initial,36.05,312,344,377,409,0,9,9,9,9,0,,,,,,,4,0,4,0,0,41,41,37,,,,,,,,,,,,num_4,0.8513902999693528,num_4,0.45,0.6,0.45,0.8,17.19248,30.5644,return,1.4236230000387877,,,,,,,,,,,,,,,,,907,20,female,up_down_width,2024-10-18_10h36.21.024,exp1,2023.1.0,59.98444007139262,
,,,,,,,,,,,,,,,,5,8.2,9.1,10,10.9,11.8,0.9,0.35,0.55,4.15,10,initial,36.05,296,328,361,393,425,9,9,9,9,9,,,,,,,4,0,4,0,0,42,42,19,,,,,,,,,,,,num_5,1.161740900017321,num_5,0.45,0.7,0.45,0.75,17.19248,28.65413,return,0.803959299926646,,,,,,,,,,,,,,,,,907,20,female,up_down_width,2024-10-18_10h36.21.024,exp1,2023.1.0,59.98444007139262,
,,,,,,,,,,,,,,,,5,8.2,9.1,10,10.9,11.8,0.9,0.35,0.55,4.15,10,initial,36.05,296,328,361,393,425,9,9,9,9,9,,,,,,,4,0,4,0,0,43,43,45,,,,,,,,,,,,num_5,0.7329746999312192,num_5,0.2,0.4,0.39999999999999997,0.65,15.2822,24.83358,return,2.207382300053723,,,,,,,,,,,,,,,,,907,20,female,up_down_width,2024-10-18_10h36.21.024,exp1,2023.1.0,59.98444007139262,
,,,,,,,,,,,,,,,,5,8.2,9.1,10,10.9,11.8,0.9,0.35,0.55,4.15,10,initial,36.05,296,328,361,393,425,9,9,9,9,9,,,,,,,4,0,4,0,0,44,44,50,,,,,,,,,,,,num_5,0.5798132000491023,num_5,0.4,1.3,0.4,0.95,15.2822,36.29523,return,2.791928800055757,,,,,,,,,,,,,,,,,907,20,female,up_down_width,2024-10-18_10h36.21.024,exp1,2023.1.0,59.98444007139262,
,,,,,,,,,,,,,,,,4,8.65,9.55,10.45,11.35,0,0.9,0.35,0.55,3.25,10,initial,36.05,312,344,377,409,0,9,9,9,9,0,,,,,,,4,0,4,0,0,45,45,10,,,,,,,,,,,,num_4,0.8640127000398934,num_4,0.35,0.9,0.44999999999999996,1.0,17.19248,38.2055,return,1.2738121000584215,,,,,,,,,,,,,,,,,907,20,female,up_down_width,2024-10-18_10h36.21.024,exp1,2023.1.0,59.98444007139262,
,,,,,,,,,,,,,,,,5,8.2,9.1,10,10.9,11.8,0.9,0.35,0.55,4.15,10,initial,36.05,296,328,361,393,425,9,9,9,9,9,,,,,,,4,0,4,0,0,46,46,20,,,,,,,,,,,,num_5,0.57849260000512,num_5,0.55,0.6,0.45,0.75,17.19248,28.65413,return,2.5178212999599054,,,,,,,,,,,,,,,,,907,20,female,up_down_width,2024-10-18_10h36.21.024,exp1,2023.1.0,59.98444007139262,
,,,,,,,,,,,,,,,,5,8.2,9.1,10,10.9,11.8,0.9,0.35,0.55,4.15,10,initial,36.05,296,328,361,393,425,9,9,9,9,9,,,,,,,4,0,4,0,0,47,47,18,,,,,,,,,,,,num_5,0.8600517000304535,num_5,0.4,1.1,0.45,0.9,17.19248,34.38495,return,2.215722900000401,,,,,,,,,,,,,,,,,907,20,female,up_down_width,2024-10-18_10h36.21.024,exp1,2023.1.0,59.98444007139262,
,,,,,,,,,,,,,,,,5,8.2,9.1,10,10.9,11.8,0.9,0.35,0.55,4.15,10,initial,36.05,296,328,361,393,425,9,9,9,9,9,,,,,,,4,0,4,0,0,48,48,21,,,,,,,,,,,,num_5,1.4013624000363052,num_5,0.25,0.6,0.39999999999999997,0.6,15.2822,22.9233,return,1.3552749000955373,,,,,,,,,,,,,,,,,907,20,female,up_down_width,2024-10-18_10h36.21.024,exp1,2023.1.0,59.98444007139262,
,,,,,,,,,,,,,,,,3,9.1,10,10.9,0,0,0.9,0.35,0.55,2.35,10,initial,36.05,328,361,393,0,0,9,9,9,0,0,,,,,,,4,0,4,0,0,49,49,34,,,,,,,,,,,,num_3,0.6946415000129491,num_3,0.3,1,0.49999999999999994,1.0,19.10275,38.2055,return,2.089503299910575,,,,,,,,,,,,,,,,,907,20,female,up_down_width,2024-10-18_10h36.21.024,exp1,2023.1.0,59.98444007139262,
,,,,,,,,,,,,,,,,3,9.1,10,10.9,0,0,0.9,0.35,0.55,2.35,10,initial,36.05,328,361,393,0,0,9,9,9,0,0,,,,,,,4,0,4,0,0,50,50,31,,,,,,,,,,,,num_2,0.6864073999458924,num_2,0.45,1.2,0.5,1.1,19.10275,42.02605,return,1.5662087000673637,,,,,,,,,,,,,,,,,907,20,female,up_down_width,2024-10-18_10h36.21.024,exp1,2023.1.0,59.98444007139262,
,,,,,,,,,,,,,,,,5,8.2,9.1,10,10.9,11.8,0.9,0.35,0.55,4.15,10,initial,36.05,296,328,361,393,425,9,9,9,9,9,,,,,,,4,0,4,0,0,51,51,52,,,,,,,,,,,,num_5,0.7155008999397978,num_5,0.3,1.1,0.44999999999999996,0.95,17.19248,36.29523,return,3.7884638000978157,,,,,,,,,,,,,,,,,907,20,female,up_down_width,2024-10-18_10h36.21.024,exp1,2023.1.0,59.98444007139262,
,,,,,,,,,,,,,,,,4,8.65,9.55,10.45,11.35,0,0.9,0.35,0.55,3.25,10,initial,36.05,312,344,377,409,0,9,9,9,9,0,,,,,,,4,0,4,0,0,52,52,17,,,,,,,,,,,,num_4,0.7966103000799194,num_4,0.35,0.5,0.39999999999999997,0.8,15.2822,30.5644,return,2.0598345000762492,,,,,,,,,,,,,,,,,907,20,female,up_down_width,2024-10-18_10h36.21.024,exp1,2023.1.0,59.98444007139262,
,,,,,,,,,,,,,,,,3,9.1,10,10.9,0,0,0.9,0.35,0.55,2.35,10,initial,36.05,328,361,393,0,0,9,9,9,0,0,,,,,,,4,0,4,0,0,53,53,33,,,,,,,,,,,,num_2,1.0017032999312505,num_2,0.4,1.2,0.45,1.2,17.19248,45.8466,return,0.6699901000829414,,,,,,,,,,,,,,,,,907,20,female,up_down_width,2024-10-18_10h36.21.024,exp1,2023.1.0,59.98444007139262,
,,,,,,,,,,,,,,,,,,,,,,,,,,,,,,,,,,,,,,,,,,,,,4,0,4,0,,,,,,,,,,,,,,,,,,,,,,,,,,,,,1584.462539799977,1584.462539799977,1584.462539799977,,,,,,,,,,,,907,20,female,up_down_width,2024-10-18_10h36.21.024,exp1,2023.1.0,59.98444007139262,
,,,,,,,,,,,,,,,,3,9.5,10,10.5,0,0,0.5,0.25,0.25,1.25,10,initial,36.05,342,361,379,0,0,9,9,9,0,0,,,,,,,5,0,5,0,0,0,0,3,,,,,,,,,,,,num_2,0.798214599955827,num_2,0.45,1.2,0.15000000000000008,0.9,5.73083,34.38495,return,2.5899357000598684,,,,,,,,,,,,,,,,,907,20,female,up_down_width,2024-10-18_10h36.21.024,exp1,2023.1.0,59.98444007139262,
,,,,,,,,,,,,,,,,5,9,9.5,10,10.5,11,0.5,0.25,0.25,2.25,10,initial,36.05,324,342,361,379,397,9,9,9,9,9,,,,,,,5,0,5,0,0,1,1,25,,,,,,,,,,,,num_4,0.7292256000218913,num_4,0.4,1.1,0.20000000000000007,1.1,7.6411,42.02605,return,1.2692066000308841,,,,,,,,,,,,,,,,,907,20,female,up_down_width,2024-10-18_10h36.21.024,exp1,2023.1.0,59.98444007139262,
,,,,,,,,,,,,,,,,5,9,9.5,10,10.5,11,0.5,0.25,0.25,2.25,10,initial,36.05,324,342,361,379,397,9,9,9,9,9,,,,,,,5,0,5,0,0,2,2,50,,,,,,,,,,,,num_4,0.8812595000490546,num_4,0.45,0.6,0.15000000000000008,0.5,5.73083,19.10275,return,1.3967031000647694,,,,,,,,,,,,,,,,,907,20,female,up_down_width,2024-10-18_10h36.21.024,exp1,2023.1.0,59.98444007139262,
,,,,,,,,,,,,,,,,5,9,9.5,10,10.5,11,0.5,0.25,0.25,2.25,10,initial,36.05,324,342,361,379,397,9,9,9,9,9,,,,,,,5,0,5,0,0,3,3,46,,,,,,,,,,,,num_5,1.1974719999125227,num_5,0.2,0.8,0.3,0.55,11.46165,21.01303,return,3.723644500016235,,,,,,,,,,,,,,,,,907,20,female,up_down_width,2024-10-18_10h36.21.024,exp1,2023.1.0,59.98444007139262,
,,,,,,,,,,,,,,,,5,9,9.5,10,10.5,11,0.5,0.25,0.25,2.25,10,initial,36.05,324,342,361,379,397,9,9,9,9,9,,,,,,,5,0,5,0,0,4,4,51,,,,,,,,,,,,num_4,0.8591557000763714,num_4,0.3,0.5,0.2,0.5,7.6411,19.10275,return,1.3961694999597967,,,,,,,,,,,,,,,,,907,20,female,up_down_width,2024-10-18_10h36.21.024,exp1,2023.1.0,59.98444007139262,
,,,,,,,,,,,,,,,,4,9.25,9.75,10.25,10.75,0,0.5,0.25,0.25,1.75,10,initial,36.05,333,351,370,388,0,9,9,9,9,0,,,,,,,5,0,5,0,0,5,5,11,,,,,,,,,,,,num_3,1.000791099970229,num_3,0.3,0.6,0.2,0.6,7.6411,22.9233,return,1.1153617999516428,,,,,,,,,,,,,,,,,907,20,female,up_down_width,2024-10-18_10h36.21.024,exp1,2023.1.0,59.98444007139262,
,,,,,,,,,,,,,,,,3,9.5,10,10.5,0,0,0.5,0.25,0.25,1.25,10,initial,36.05,342,361,379,0,0,9,9,9,0,0,,,,,,,5,0,5,0,0,6,6,30,,,,,,,,,,,,num_2,0.6494403999531642,num_2,0.55,0.8,0.15000000000000008,0.8,5.73083,30.5644,return,1.694940899964422,,,,,,,,,,,,,,,,,907,20,female,up_down_width,2024-10-18_10h36.21.024,exp1,2023.1.0,59.98444007139262,
,,,,,,,,,,,,,,,,4,9.25,9.75,10.25,10.75,0,0.5,0.25,0.25,1.75,10,initial,36.05,333,351,370,388,0,9,9,9,9,0,,,,,,,5,0,5,0,0,7,7,43,,,,,,,,,,,,num_4,0.877862700028345,num_4,0.55,0.9,0.25000000000000006,0.7,9.55138,26.74385,return,2.0357306000078097,,,,,,,,,,,,,,,,,907,20,female,up_down_width,2024-10-18_10h36.21.024,exp1,2023.1.0,59.98444007139262,
,,,,,,,,,,,,,,,,5,9,9.5,10,10.5,11,0.5,0.25,0.25,2.25,10,initial,36.05,324,342,361,379,397,9,9,9,9,9,,,,,,,5,0,5,0,0,8,8,47,,,,,,,,,,,,num_4,0.7159812001045793,num_4,0.55,0.6,0.20000000000000007,0.3,7.6411,11.46165,return,2.4425308000063524,,,,,,,,,,,,,,,,,907,20,female,up_down_width,2024-10-18_10h36.21.024,exp1,2023.1.0,59.98444007139262,
,,,,,,,,,,,,,,,,4,9.25,9.75,10.25,10.75,0,0.5,0.25,0.25,1.75,10,initial,36.05,333,351,370,388,0,9,9,9,9,0,,,,,,,5,0,5,0,0,9,9,9,,,,,,,,,,,,num_3,0.6777544000651687,num_3,0.45,1.1,0.15000000000000008,0.6,5.73083,22.9233,return,3.4611471999669448,,,,,,,,,,,,,,,,,907,20,female,up_down_width,2024-10-18_10h36.21.024,exp1,2023.1.0,59.98444007139262,
,,,,,,,,,,,,,,,,5,9,9.5,10,10.5,11,0.5,0.25,0.25,2.25,10,initial,36.05,324,342,361,379,397,9,9,9,9,9,,,,,,,5,0,5,0,0,10,10,20,,,,,,,,,,,,num_4,0.9362262999638915,num_4,0.2,0.5,0.25,0.4,9.55138,15.2822,return,1.9664434000151232,,,,,,,,,,,,,,,,,907,20,female,up_down_width,2024-10-18_10h36.21.024,exp1,2023.1.0,59.98444007139262,
,,,,,,,,,,,,,,,,3,9.5,10,10.5,0,0,0.5,0.25,0.25,1.25,10,initial,36.05,342,361,379,0,0,9,9,9,0,0,,,,,,,5,0,5,0,0,11,11,2,,,,,,,,,,,,num_2,0.7655033000046387,num_2,0.45,0.8,0.20000000000000007,0.4,7.6411,15.2822,return,4.316355500021018,,,,,,,,,,,,,,,,,907,20,female,up_down_width,2024-10-18_10h36.21.024,exp1,2023.1.0,59.98444007139262,
