amount_p,posx1_p,posx2_p,posx3_p,posx4_p,posx5_p,center_to_center_p,edge_to_edge_p,w_p,stim_length_p,eccentricity_p,line1_p,line2_p,line3_p,line4_p,line5_p,amount,posx1,posx2,posx3,posx4,posx5,center_to_center,edge_to_edge,w,stim_length,eccentricity,trial_type,deg_to_pix_index,posx1_in_pix,posx2_in_pix,posx3_in_pix,posx4_in_pix,posx5_in_pix,line1,line2,line3,line4,line5,posx,setsize_cobdi,trials.thisRepN,trials.thisTrialN,trials.thisN,trials.thisIndex,blocks.thisRepN,blocks.thisTrialN,blocks.thisN,blocks.thisIndex,loop.thisRepN,loop.thisTrialN,loop.thisN,loop.thisIndex,first.thisRepN,first.thisTrialN,first.thisN,first.thisIndex,second.thisRepN,second.thisTrialN,second.thisN,second.thisIndex,key_resp_3.started,key_resp_3.keys,key_resp_3.rt,key_resp.keys,key_resp.rt,response,starting_width_deg,starting_space_deg,response_width_degree,response_spacing_degree,response_width_pixel,response_spacing_pixel,next_5.keys,next_5.rt,key_resp_4.keys,key_resp_4.rt,text_3.started,text_4.started,key_resp_2.started,text_2.started,key_resp_2.keys,key_resp_2.rt,adjusting.started,next.keys,next.rt,text_control2.started,key_resp.started,key_resp.corr,text_bye.started,text_bye.stopped,participant,age,gender,resp_group,date,expName,psychopyVersion,frameRate,
,,,,,,,,,,,,,,,,,,,,,,,,,,,,,,,,,,,,,,,,,,,,,,,,,,,,,,,,,,,,,68.06822090002242,c,115.48494499991648,,,,,,,,,,,,,,,,,,,,,,,,,,,,98,18,female,up_down_width,2024-10-18_11h35.29.755,exp1,2023.1.0,59.98242512734008,
5,9,9.5,10,10.5,11,0.5,0.1,0.4,2.4,10,9,9,9,9,9,,,,,,,,,,,,,,,,,,,,,,,,,,0,0,0,5,,,,,,,,,,,,,,,,,,,,num_3,4.3118919000262395,num_3,0.45,0.5,0.45,0.7,17.19248,26.74385,return,17.02958780003246,,,,,,,,,,,,,,,,,98,18,female,up_down_width,2024-10-18_11h35.29.755,exp1,2023.1.0,59.98242512734008,
5,8.2,9.1,10,10.9,11.8,0.9,0.35,0.55,4.15,10,9,9,9,9,9,,,,,,,,,,,,,,,,,,,,,,,,,,0,1,1,2,,,,,,,,,,,,,,,,,,,,num_4,3.078393999952823,num_4,0.25,0.8,0.39999999999999997,0.9,15.2822,34.38495,return,9.55687680002302,,,,,,,,,,,,,,,,,98,18,female,up_down_width,2024-10-18_11h35.29.755,exp1,2023.1.0,59.98242512734008,
3,9.1,10,10.9,0,0,0.9,0.35,0.55,2.35,10,9,9,9,0,0,,,,,,,,,,,,,,,,,,,,,,,,,,0,2,2,3,,,,,,,,,,,,,,,,,,,,num_3,3.1965392999118194,num_3,0.3,0.5,0.49999999999999994,0.9,19.10275,34.38495,return,5.499577200040221,,,,,,,,,,,,,,,,,98,18,female,up_down_width,2024-10-18_11h35.29.755,exp1,2023.1.0,59.98242512734008,
4,9.25,9.75,10.25,10.75,0,0.5,0.1,0.4,1.9000000000000001,10,9,9,9,9,0,,,,,,,,,,,,,,,,,,,,,,,,,,0,3,3,4,,,,,,,,,,,,,,,,,,,,num_4,4.425542899989523,num_4,0.55,0.8,0.45,0.9,17.19248,34.38495,return,5.815518800052814,,,,,,,,,,,,,,,,,98,18,female,up_down_width,2024-10-18_11h35.29.755,exp1,2023.1.0,59.98242512734008,
3,9.5,10,10.5,0,0,0.5,0.25,0.25,1.25,10,9,9,9,0,0,,,,,,,,,,,,,,,,,,,,,,,,,,0,4,4,0,,,,,,,,,,,,,,,,,,,,num_4,3.3774641000200063,num_4,0.55,0.9,0.35000000000000003,0.8,13.37193,30.5644,return,6.8409054999938235,,,,,,,,,,,,,,,,,98,18,female,up_down_width,2024-10-18_11h35.29.755,exp1,2023.1.0,59.98242512734008,
4,9.25,9.75,10.25,10.75,0,0.5,0.25,0.25,1.75,10,9,9,9,9,0,,,,,,,,,,,,,,,,,,,,,,,,,,0,5,5,1,,,,,,,,,,,,,,,,,,,,num_4,1.952989500015974,num_4,0.25,1.1,0.25,0.6,9.55138,22.9233,return,6.25190119992476,,,,,,,,,,,,,,,,,98,18,female,up_down_width,2024-10-18_11h35.29.755,exp1,2023.1.0,59.98242512734008,
,,,,,,,,,,,,,,,,,,,,,,,,,,,,,,,,,,,,,,,,,,,,,,,,,,,,,,,,,,,,,,,,,,,,,,,,,,,c,55.541410200065,,,,,,,,,,,,,,,98,18,female,up_down_width,2024-10-18_11h35.29.755,exp1,2023.1.0,59.98242512734008,
,,,,,,,,,,,,,,,,3,9.1,10,10.9,0,0,0.9,0.35,0.55,2.35,10,initial,36.05,328,361,393,0,0,9,9,9,0,0,,,,,,,0,0,0,0,0,0,0,2,,,,,,,,,,,,num_3,1.3323267999803647,num_3,0.2,0.4,0.49999999999999994,0.95,19.10275,36.29523,return,6.313418600009754,,,,,,,,,,,,,,,,,98,18,female,up_down_width,2024-10-18_11h35.29.755,exp1,2023.1.0,59.98242512734008,
,,,,,,,,,,,,,,,,5,8.2,9.1,10,10.9,11.8,0.9,0.35,0.55,4.15,10,initial,36.05,296,328,361,393,425,9,9,9,9,9,,,,,,,0,0,0,0,0,1,1,47,,,,,,,,,,,,num_4,1.9556299999821931,num_4,0.55,0.8,0.5,1.0,19.10275,38.2055,return,5.910047699930146,,,,,,,,,,,,,,,,,98,18,female,up_down_width,2024-10-18_11h35.29.755,exp1,2023.1.0,59.98242512734008,
,,,,,,,,,,,,,,,,3,9.1,10,10.9,0,0,0.9,0.35,0.55,2.35,10,initial,36.05,328,361,393,0,0,9,9,9,0,0,,,,,,,0,0,0,0,0,2,2,34,,,,,,,,,,,,num_3,1.8386597000062466,num_3,0.3,0.6,0.6,1.15,22.9233,43.93633,return,6.4212861999403685,,,,,,,,,,,,,,,,,98,18,female,up_down_width,2024-10-18_11h35.29.755,exp1,2023.1.0,59.98242512734008,
,,,,,,,,,,,,,,,,4,8.65,9.55,10.45,11.35,0,0.9,0.35,0.55,3.25,10,initial,36.05,312,344,377,409,0,9,9,9,9,0,,,,,,,0,0,0,0,0,3,3,38,,,,,,,,,,,,num_4,1.644730499945581,num_4,0.2,0.5,0.5499999999999999,1.0,21.01303,38.2055,return,6.34053489996586,,,,,,,,,,,,,,,,,98,18,female,up_down_width,2024-10-18_11h35.29.755,exp1,2023.1.0,59.98242512734008,
,,,,,,,,,,,,,,,,4,8.65,9.55,10.45,11.35,0,0.9,0.35,0.55,3.25,10,initial,36.05,312,344,377,409,0,9,9,9,9,0,,,,,,,0,0,0,0,0,4,4,42,,,,,,,,,,,,num_4,1.4388517999323085,num_4,0.4,0.7,0.7000000000000002,1.1,26.74385,42.02605,return,5.585838000057265,,,,,,,,,,,,,,,,,98,18,female,up_down_width,2024-10-18_11h35.29.755,exp1,2023.1.0,59.98242512734008,
,,,,,,,,,,,,,,,,5,8.2,9.1,10,10.9,11.8,0.9,0.35,0.55,4.15,10,initial,36.05,296,328,361,393,425,9,9,9,9,9,,,,,,,0,0,0,0,0,5,5,26,,,,,,,,,,,,num_4,1.438416099990718,num_4,0.3,0.3,0.5499999999999999,0.9,21.01303,34.38495,return,8.383761700009927,,,,,,,,,,,,,,,,,98,18,female,up_down_width,2024-10-18_11h35.29.755,exp1,2023.1.0,59.98242512734008,
,,,,,,,,,,,,,,,,5,8.2,9.1,10,10.9,11.8,0.9,0.35,0.55,4.15,10,initial,36.05,296,328,361,393,425,9,9,9,9,9,,,,,,,0,0,0,0,0,6,6,48,,,,,,,,,,,,num_4,1.7322867999318987,num_4,0.2,0.9,0.5499999999999999,0.9,21.01303,34.38495,return,7.6955277000088245,,,,,,,,,,,,,,,,,98,18,female,up_down_width,2024-10-18_11h35.29.755,exp1,2023.1.0,59.98242512734008,
,,,,,,,,,,,,,,,,3,9.1,10,10.9,0,0,0.9,0.35,0.55,2.35,10,initial,36.05,328,361,393,0,0,9,9,9,0,0,,,,,,,0,0,0,0,0,7,7,3,,,,,,,,,,,,num_4,5.3423559999791905,num_4,0.45,0.5,0.55,1.0,21.01303,38.2055,return,5.282702299999073,,,,,,,,,,,,,,,,,98,18,female,up_down_width,2024-10-18_11h35.29.755,exp1,2023.1.0,59.98242512734008,
,,,,,,,,,,,,,,,,4,8.65,9.55,10.45,11.35,0,0.9,0.35,0.55,3.25,10,initial,36.05,312,344,377,409,0,9,9,9,9,0,,,,,,,0,0,0,0,0,8,8,13,,,,,,,,,,,,num_4,1.691459699999541,num_4,0.3,1.0,0.6,0.9,22.9233,34.38495,return,6.911539699998684,,,,,,,,,,,,,,,,,98,18,female,up_down_width,2024-10-18_11h35.29.755,exp1,2023.1.0,59.98242512734008,
,,,,,,,,,,,,,,,,4,8.65,9.55,10.45,11.35,0,0.9,0.35,0.55,3.25,10,initial,36.05,312,344,377,409,0,9,9,9,9,0,,,,,,,0,0,0,0,0,9,9,11,,,,,,,,,,,,num_3,3.049264599918388,num_3,0.25,0.9,0.6,0.95,22.9233,36.29523,return,5.486191499978304,,,,,,,,,,,,,,,,,98,18,female,up_down_width,2024-10-18_11h35.29.755,exp1,2023.1.0,59.98242512734008,
,,,,,,,,,,,,,,,,5,8.2,9.1,10,10.9,11.8,0.9,0.35,0.55,4.15,10,initial,36.05,296,328,361,393,425,9,9,9,9,9,,,,,,,0,0,0,0,0,10,10,46,,,,,,,,,,,,num_4,2.090446999995038,num_4,0.35,1.0,0.6,1.1,22.9233,42.02605,return,6.929670199984685,,,,,,,,,,,,,,,,,98,18,female,up_down_width,2024-10-18_11h35.29.755,exp1,2023.1.0,59.98242512734008,
,,,,,,,,,,,,,,,,3,9.1,10,10.9,0,0,0.9,0.35,0.55,2.35,10,initial,36.05,328,361,393,0,0,9,9,9,0,0,,,,,,,0,0,0,0,0,11,11,31,,,,,,,,,,,,num_3,1.271705099963583,num_3,0.4,0.8,0.55,0.95,21.01303,36.29523,return,2.9437760999426246,,,,,,,,,,,,,,,,,98,18,female,up_down_width,2024-10-18_11h35.29.755,exp1,2023.1.0,59.98242512734008,
,,,,,,,,,,,,,,,,5,8.2,9.1,10,10.9,11.8,0.9,0.35,0.55,4.15,10,initial,36.05,296,328,361,393,425,9,9,9,9,9,,,,,,,0,0,0,0,0,12,12,51,,,,,,,,,,,,num_5,1.588201400008984,num_5,0.25,0.9,0.6,1.1,22.9233,42.02605,return,7.619810699950904,,,,,,,,,,,,,,,,,98,18,female,up_down_width,2024-10-18_11h35.29.755,exp1,2023.1.0,59.98242512734008,
,,,,,,,,,,,,,,,,5,8.2,9.1,10,10.9,11.8,0.9,0.35,0.55,4.15,10,initial,36.05,296,328,361,393,425,9,9,9,9,9,,,,,,,0,0,0,0,0,13,13,52,,,,,,,,,,,,num_4,1.7328519000438973,num_4,0.25,0.7,0.6,1.3,22.9233,49.66716,return,9.38399370003026,,,,,,,,,,,,,,,,,98,18,female,up_down_width,2024-10-18_11h35.29.755,exp1,2023.1.0,59.98242512734008,
,,,,,,,,,,,,,,,,5,8.2,9.1,10,10.9,11.8,0.9,0.35,0.55,4.15,10,initial,36.05,296,328,361,393,425,9,9,9,9,9,,,,,,,0,0,0,0,0,14,14,19,,,,,,,,,,,,num_5,1.524840799975209,num_5,0.25,1.3,0.49999999999999994,1.3,19.10275,49.66716,return,4.243396999896504,,,,,,,,,,,,,,,,,98,18,female,up_down_width,2024-10-18_11h35.29.755,exp1,2023.1.0,59.98242512734008,
,,,,,,,,,,,,,,,,4,8.65,9.55,10.45,11.35,0,0.9,0.35,0.55,3.25,10,initial,36.05,312,344,377,409,0,9,9,9,9,0,,,,,,,0,0,0,0,0,15,15,43,,,,,,,,,,,,num_4,1.2326131999725476,num_4,0.35,1.3,0.49999999999999994,1.1,19.10275,42.02605,return,5.354110000072978,,,,,,,,,,,,,,,,,98,18,female,up_down_width,2024-10-18_11h35.29.755,exp1,2023.1.0,59.98242512734008,
,,,,,,,,,,,,,,,,4,8.65,9.55,10.45,11.35,0,0.9,0.35,0.55,3.25,10,initial,36.05,312,344,377,409,0,9,9,9,9,0,,,,,,,0,0,0,0,0,16,16,36,,,,,,,,,,,,num_4,1.3121620999881998,num_4,0.55,1.1,0.6000000000000001,1.1,22.9233,42.02605,return,1.7977230000542477,,,,,,,,,,,,,,,,,98,18,female,up_down_width,2024-10-18_11h35.29.755,exp1,2023.1.0,59.98242512734008,
,,,,,,,,,,,,,,,,3,9.1,10,10.9,0,0,0.9,0.35,0.55,2.35,10,initial,36.05,328,361,393,0,0,9,9,9,0,0,,,,,,,0,0,0,0,0,17,17,30,,,,,,,,,,,,num_3,1.757073299959302,num_3,0.3,0.4,0.6,1.0,22.9233,38.2055,return,7.0563824999844655,,,,,,,,,,,,,,,,,98,18,female,up_down_width,2024-10-18_11h35.29.755,exp1,2023.1.0,59.98242512734008,
,,,,,,,,,,,,,,,,4,8.65,9.55,10.45,11.35,0,0.9,0.35,0.55,3.25,10,initial,36.05,312,344,377,409,0,9,9,9,9,0,,,,,,,0,0,0,0,0,18,18,39,,,,,,,,,,,,num_4,1.1528429000172764,num_4,0.35,1.3,0.6,1.2,22.9233,45.8466,return,4.861322100041434,,,,,,,,,,,,,,,,,98,18,female,up_down_width,2024-10-18_11h35.29.755,exp1,2023.1.0,59.98242512734008,
,,,,,,,,,,,,,,,,4,8.65,9.55,10.45,11.35,0,0.9,0.35,0.55,3.25,10,initial,36.05,312,344,377,409,0,9,9,9,9,0,,,,,,,0,0,0,0,0,19,19,15,,,,,,,,,,,,num_4,2.9609525999985635,num_4,0.55,1.0,0.45,1.0,17.19248,38.2055,return,7.241341999964789,,,,,,,,,,,,,,,,,98,18,female,up_down_width,2024-10-18_11h35.29.755,exp1,2023.1.0,59.98242512734008,
,,,,,,,,,,,,,,,,3,9.1,10,10.9,0,0,0.9,0.35,0.55,2.35,10,initial,36.05,328,361,393,0,0,9,9,9,0,0,,,,,,,0,0,0,0,0,20,20,29,,,,,,,,,,,,num_3,1.3133247999940068,num_3,0.25,0.9,0.6,1.05,22.9233,40.11578,return,4.152637100080028,,,,,,,,,,,,,,,,,98,18,female,up_down_width,2024-10-18_11h35.29.755,exp1,2023.1.0,59.98242512734008,
,,,,,,,,,,,,,,,,4,8.65,9.55,10.45,11.35,0,0.9,0.35,0.55,3.25,10,initial,36.05,312,344,377,409,0,9,9,9,9,0,,,,,,,0,0,0,0,0,21,21,17,,,,,,,,,,,,num_4,1.9753783999476582,num_4,0.2,0.8,0.44999999999999996,0.8,17.19248,30.5644,return,2.9479141000192612,,,,,,,,,,,,,,,,,98,18,female,up_down_width,2024-10-18_11h35.29.755,exp1,2023.1.0,59.98242512734008,
,,,,,,,,,,,,,,,,3,9.1,10,10.9,0,0,0.9,0.35,0.55,2.35,10,initial,36.05,328,361,393,0,0,9,9,9,0,0,,,,,,,0,0,0,0,0,22,22,35,,,,,,,,,,,,num_3,1.2695518999826163,num_3,0.5,1.3,0.7000000000000002,1.3,26.74385,49.66716,return,3.3457770000677556,,,,,,,,,,,,,,,,,98,18,female,up_down_width,2024-10-18_11h35.29.755,exp1,2023.1.0,59.98242512734008,
,,,,,,,,,,,,,,,,4,8.65,9.55,10.45,11.35,0,0.9,0.35,0.55,3.25,10,initial,36.05,312,344,377,409,0,9,9,9,9,0,,,,,,,0,0,0,0,0,23,23,9,,,,,,,,,,,,num_4,1.1873921999940649,num_4,0.5,0.8,0.55,0.9,21.01303,34.38495,return,5.613349699997343,,,,,,,,,,,,,,,,,98,18,female,up_down_width,2024-10-18_11h35.29.755,exp1,2023.1.0,59.98242512734008,
,,,,,,,,,,,,,,,,3,9.1,10,10.9,0,0,0.9,0.35,0.55,2.35,10,initial,36.05,328,361,393,0,0,9,9,9,0,0,,,,,,,0,0,0,0,0,24,24,32,,,,,,,,,,,,num_2,4.6297102000098675,num_2,0.3,1.4,0.49999999999999994,1.4,19.10275,53.48771,return,3.863193300087005,,,,,,,,,,,,,,,,,98,18,female,up_down_width,2024-10-18_11h35.29.755,exp1,2023.1.0,59.98242512734008,
,,,,,,,,,,,,,,,,5,8.2,9.1,10,10.9,11.8,0.9,0.35,0.55,4.15,10,initial,36.05,296,328,361,393,425,9,9,9,9,9,,,,,,,0,0,0,0,0,25,25,18,,,,,,,,,,,,num_5,1.6102060000412166,num_5,0.45,0.7,0.55,1.1,21.01303,42.02605,return,4.672800199943595,,,,,,,,,,,,,,,,,98,18,female,up_down_width,2024-10-18_11h35.29.755,exp1,2023.1.0,59.98242512734008,
,,,,,,,,,,,,,,,,5,8.2,9.1,10,10.9,11.8,0.9,0.35,0.55,4.15,10,initial,36.05,296,328,361,393,425,9,9,9,9,9,,,,,,,0,0,0,0,0,26,26,20,,,,,,,,,,,,num_5,1.8184915999881923,num_5,0.35,1.2,0.6,1.1,22.9233,42.02605,return,5.001654400024563,,,,,,,,,,,,,,,,,98,18,female,up_down_width,2024-10-18_11h35.29.755,exp1,2023.1.0,59.98242512734008,
,,,,,,,,,,,,,,,,3,9.1,10,10.9,0,0,0.9,0.35,0.55,2.35,10,initial,36.05,328,361,393,0,0,9,9,9,0,0,,,,,,,0,0,0,0,0,27,27,0,,,,,,,,,,,,num_3,1.4442107999930158,num_3,0.4,1.1,0.6000000000000001,1.15,22.9233,43.93633,return,3.446390900062397,,,,,,,,,,,,,,,,,98,18,female,up_down_width,2024-10-18_11h35.29.755,exp1,2023.1.0,59.98242512734008,
,,,,,,,,,,,,,,,,5,8.2,9.1,10,10.9,11.8,0.9,0.35,0.55,4.15,10,initial,36.05,296,328,361,393,425,9,9,9,9,9,,,,,,,0,0,0,0,0,28,28,49,,,,,,,,,,,,num_5,2.653370900079608,num_5,0.25,1.3,0.7000000000000001,1.25,26.74385,47.75688,return,6.751407900010236,,,,,,,,,,,,,,,,,98,18,female,up_down_width,2024-10-18_11h35.29.755,exp1,2023.1.0,59.98242512734008,
,,,,,,,,,,,,,,,,4,8.65,9.55,10.45,11.35,0,0.9,0.35,0.55,3.25,10,initial,36.05,312,344,377,409,0,9,9,9,9,0,,,,,,,0,0,0,0,0,29,29,14,,,,,,,,,,,,num_4,2.1561103999847546,num_4,0.55,0.7,0.6500000000000001,1.2,24.83358,45.8466,return,10.720092499977909,,,,,,,,,,,,,,,,,98,18,female,up_down_width,2024-10-18_11h35.29.755,exp1,2023.1.0,59.98242512734008,
,,,,,,,,,,,,,,,,3,9.1,10,10.9,0,0,0.9,0.35,0.55,2.35,10,initial,36.05,328,361,393,0,0,9,9,9,0,0,,,,,,,0,0,0,0,0,30,30,7,,,,,,,,,,,,num_3,1.0059858999447897,num_3,0.25,1.1,0.65,1.15,24.83358,43.93633,return,4.899971499922685,,,,,,,,,,,,,,,,,98,18,female,up_down_width,2024-10-18_11h35.29.755,exp1,2023.1.0,59.98242512734008,
,,,,,,,,,,,,,,,,3,9.1,10,10.9,0,0,0.9,0.35,0.55,2.35,10,initial,36.05,328,361,393,0,0,9,9,9,0,0,,,,,,,0,0,0,0,0,31,31,27,,,,,,,,,,,,num_3,1.4595365000423044,num_3,0.3,1,0.6,1.1,22.9233,42.02605,return,3.7005477000493556,,,,,,,,,,,,,,,,,98,18,female,up_down_width,2024-10-18_11h35.29.755,exp1,2023.1.0,59.98242512734008,
,,,,,,,,,,,,,,,,4,8.65,9.55,10.45,11.35,0,0.9,0.35,0.55,3.25,10,initial,36.05,312,344,377,409,0,9,9,9,9,0,,,,,,,0,0,0,0,0,32,32,40,,,,,,,,,,,,num_4,2.4382312999805436,num_4,0.5,1.1,0.6000000000000001,1.0,22.9233,38.2055,return,4.1466546999290586,,,,,,,,,,,,,,,,,98,18,female,up_down_width,2024-10-18_11h35.29.755,exp1,2023.1.0,59.98242512734008,
,,,,,,,,,,,,,,,,5,8.2,9.1,10,10.9,11.8,0.9,0.35,0.55,4.15,10,initial,36.05,296,328,361,393,425,9,9,9,9,9,,,,,,,0,0,0,0,0,33,33,45,,,,,,,,,,,,num_5,1.5482026999816298,num_5,0.2,1.1,0.65,1.1,24.83358,42.02605,return,5.8685372999170795,,,,,,,,,,,,,,,,,98,18,female,up_down_width,2024-10-18_11h35.29.755,exp1,2023.1.0,59.98242512734008,
,,,,,,,,,,,,,,,,5,8.2,9.1,10,10.9,11.8,0.9,0.35,0.55,4.15,10,initial,36.05,296,328,361,393,425,9,9,9,9,9,,,,,,,0,0,0,0,0,34,34,53,,,,,,,,,,,,num_5,1.3487974000163376,num_5,0.2,0.4,0.6,1.1,22.9233,42.02605,return,9.263420599978417,,,,,,,,,,,,,,,,,98,18,female,up_down_width,2024-10-18_11h35.29.755,exp1,2023.1.0,59.98242512734008,
,,,,,,,,,,,,,,,,3,9.1,10,10.9,0,0,0.9,0.35,0.55,2.35,10,initial,36.05,328,361,393,0,0,9,9,9,0,0,,,,,,,0,0,0,0,0,35,35,5,,,,,,,,,,,,num_3,1.1895496000070125,num_3,0.55,1.1,0.5,1.05,19.10275,40.11578,return,3.3268591000232846,,,,,,,,,,,,,,,,,98,18,female,up_down_width,2024-10-18_11h35.29.755,exp1,2023.1.0,59.98242512734008,
,,,,,,,,,,,,,,,,3,9.1,10,10.9,0,0,0.9,0.35,0.55,2.35,10,initial,36.05,328,361,393,0,0,9,9,9,0,0,,,,,,,0,0,0,0,0,36,36,1,,,,,,,,,,,,num_3,4.001554399961606,num_3,0.45,0.6,0.45,0.65,17.19248,24.83358,return,2.794108900008723,,,,,,,,,,,,,,,,,98,18,female,up_down_width,2024-10-18_11h35.29.755,exp1,2023.1.0,59.98242512734008,
,,,,,,,,,,,,,,,,5,8.2,9.1,10,10.9,11.8,0.9,0.35,0.55,4.15,10,initial,36.05,296,328,361,393,425,9,9,9,9,9,,,,,,,0,0,0,0,0,37,37,25,,,,,,,,,,,,num_5,2.457285099895671,num_5,0.2,0.3,0.44999999999999996,1.1,17.19248,42.02605,return,6.287737999926321,,,,,,,,,,,,,,,,,98,18,female,up_down_width,2024-10-18_11h35.29.755,exp1,2023.1.0,59.98242512734008,
,,,,,,,,,,,,,,,,4,8.65,9.55,10.45,11.35,0,0.9,0.35,0.55,3.25,10,initial,36.05,312,344,377,409,0,9,9,9,9,0,,,,,,,0,0,0,0,0,38,38,37,,,,,,,,,,,,num_4,1.1845633999910206,num_4,0.25,1.0,0.5499999999999999,0.8,21.01303,30.5644,return,6.128422799985856,,,,,,,,,,,,,,,,,98,18,female,up_down_width,2024-10-18_11h35.29.755,exp1,2023.1.0,59.98242512734008,
,,,,,,,,,,,,,,,,3,9.1,10,10.9,0,0,0.9,0.35,0.55,2.35,10,initial,36.05,328,361,393,0,0,9,9,9,0,0,,,,,,,0,0,0,0,0,39,39,4,,,,,,,,,,,,num_2,3.0855966999661177,num_2,0.4,1.2,0.5,0.8,19.10275,30.5644,return,4.073143700021319,,,,,,,,,,,,,,,,,98,18,female,up_down_width,2024-10-18_11h35.29.755,exp1,2023.1.0,59.98242512734008,
,,,,,,,,,,,,,,,,4,8.65,9.55,10.45,11.35,0,0.9,0.35,0.55,3.25,10,initial,36.05,312,344,377,409,0,9,9,9,9,0,,,,,,,0,0,0,0,0,40,40,44,,,,,,,,,,,,num_4,1.096344199962914,num_4,0.3,0.6,0.49999999999999994,1.0,19.10275,38.2055,return,4.8752534000668675,,,,,,,,,,,,,,,,,98,18,female,up_down_width,2024-10-18_11h35.29.755,exp1,2023.1.0,59.98242512734008,
,,,,,,,,,,,,,,,,5,8.2,9.1,10,10.9,11.8,0.9,0.35,0.55,4.15,10,initial,36.05,296,328,361,393,425,9,9,9,9,9,,,,,,,0,0,0,0,0,41,41,21,,,,,,,,,,,,num_5,1.8388508000643924,num_5,0.5,1.2,0.45,1.1,17.19248,42.02605,return,4.335164500051178,,,,,,,,,,,,,,,,,98,18,female,up_down_width,2024-10-18_11h35.29.755,exp1,2023.1.0,59.98242512734008,
,,,,,,,,,,,,,,,,3,9.1,10,10.9,0,0,0.9,0.35,0.55,2.35,10,initial,36.05,328,361,393,0,0,9,9,9,0,0,,,,,,,0,0,0,0,0,42,42,8,,,,,,,,,,,,num_3,1.0245005999458954,num_3,0.4,1.1,0.6000000000000001,1.05,22.9233,40.11578,return,4.7041451000841334,,,,,,,,,,,,,,,,,98,18,female,up_down_width,2024-10-18_11h35.29.755,exp1,2023.1.0,59.98242512734008,
,,,,,,,,,,,,,,,,4,8.65,9.55,10.45,11.35,0,0.9,0.35,0.55,3.25,10,initial,36.05,312,344,377,409,0,9,9,9,9,0,,,,,,,0,0,0,0,0,43,43,12,,,,,,,,,,,,num_4,1.5149404000258073,num_4,0.45,1.1,0.6000000000000001,1.0,22.9233,38.2055,return,3.5157102999510244,,,,,,,,,,,,,,,,,98,18,female,up_down_width,2024-10-18_11h35.29.755,exp1,2023.1.0,59.98242512734008,
,,,,,,,,,,,,,,,,4,8.65,9.55,10.45,11.35,0,0.9,0.35,0.55,3.25,10,initial,36.05,312,344,377,409,0,9,9,9,9,0,,,,,,,0,0,0,0,0,44,44,10,,,,,,,,,,,,num_4,0.9515705000376329,num_4,0.35,0.9,0.5499999999999999,0.9,21.01303,34.38495,return,8.88097109994851,,,,,,,,,,,,,,,,,98,18,female,up_down_width,2024-10-18_11h35.29.755,exp1,2023.1.0,59.98242512734008,
,,,,,,,,,,,,,,,,5,8.2,9.1,10,10.9,11.8,0.9,0.35,0.55,4.15,10,initial,36.05,296,328,361,393,425,9,9,9,9,9,,,,,,,0,0,0,0,0,45,45,24,,,,,,,,,,,,num_5,1.3964135999558493,num_5,0.5,1.1,0.5,1.0,19.10275,38.2055,return,4.408345500007272,,,,,,,,,,,,,,,,,98,18,female,up_down_width,2024-10-18_11h35.29.755,exp1,2023.1.0,59.98242512734008,
,,,,,,,,,,,,,,,,4,8.65,9.55,10.45,11.35,0,0.9,0.35,0.55,3.25,10,initial,36.05,312,344,377,409,0,9,9,9,9,0,,,,,,,0,0,0,0,0,46,46,41,,,,,,,,,,,,num_4,1.1825581999728456,num_4,0.25,1.2,0.44999999999999996,0.8,17.19248,30.5644,return,6.509772000019439,,,,,,,,,,,,,,,,,98,18,female,up_down_width,2024-10-18_11h35.29.755,exp1,2023.1.0,59.98242512734008,
,,,,,,,,,,,,,,,,3,9.1,10,10.9,0,0,0.9,0.35,0.55,2.35,10,initial,36.05,328,361,393,0,0,9,9,9,0,0,,,,,,,0,0,0,0,0,47,47,28,,,,,,,,,,,,num_3,1.5757189999567345,num_3,0.35,1.3,0.39999999999999997,0.85,15.2822,32.47468,return,5.828181399963796,,,,,,,,,,,,,,,,,98,18,female,up_down_width,2024-10-18_11h35.29.755,exp1,2023.1.0,59.98242512734008,
,,,,,,,,,,,,,,,,5,8.2,9.1,10,10.9,11.8,0.9,0.35,0.55,4.15,10,initial,36.05,296,328,361,393,425,9,9,9,9,9,,,,,,,0,0,0,0,0,48,48,50,,,,,,,,,,,,num_5,1.4795745000010356,num_5,0.5,1.0,0.4,0.9,15.2822,34.38495,return,4.423389699892141,,,,,,,,,,,,,,,,,98,18,female,up_down_width,2024-10-18_11h35.29.755,exp1,2023.1.0,59.98242512734008,
,,,,,,,,,,,,,,,,5,8.2,9.1,10,10.9,11.8,0.9,0.35,0.55,4.15,10,initial,36.05,296,328,361,393,425,9,9,9,9,9,,,,,,,0,0,0,0,0,49,49,23,,,,,,,,,,,,num_5,1.2069378000451252,num_5,0.4,0.6,0.4,0.85,15.2822,32.47468,return,3.650392399984412,,,,,,,,,,,,,,,,,98,18,female,up_down_width,2024-10-18_11h35.29.755,exp1,2023.1.0,59.98242512734008,
,,,,,,,,,,,,,,,,4,8.65,9.55,10.45,11.35,0,0.9,0.35,0.55,3.25,10,initial,36.05,312,344,377,409,0,9,9,9,9,0,,,,,,,0,0,0,0,0,50,50,16,,,,,,,,,,,,num_4,2.0747709999559447,num_4,0.45,1.2,0.45,0.8,17.19248,30.5644,return,3.1050404000561684,,,,,,,,,,,,,,,,,98,18,female,up_down_width,2024-10-18_11h35.29.755,exp1,2023.1.0,59.98242512734008,
,,,,,,,,,,,,,,,,3,9.1,10,10.9,0,0,0.9,0.35,0.55,2.35,10,initial,36.05,328,361,393,0,0,9,9,9,0,0,,,,,,,0,0,0,0,0,51,51,6,,,,,,,,,,,,num_2,1.4642096000025049,num_2,0.2,1.6,0.5499999999999999,0.9,21.01303,34.38495,return,6.440500999917276,,,,,,,,,,,,,,,,,98,18,female,up_down_width,2024-10-18_11h35.29.755,exp1,2023.1.0,59.98242512734008,
,,,,,,,,,,,,,,,,5,8.2,9.1,10,10.9,11.8,0.9,0.35,0.55,4.15,10,initial,36.05,296,328,361,393,425,9,9,9,9,9,,,,,,,0,0,0,0,0,52,52,22,,,,,,,,,,,,num_5,1.6874532999936491,num_5,0.2,1.3,0.39999999999999997,0.9,15.2822,34.38495,return,6.655363700003363,,,,,,,,,,,,,,,,,98,18,female,up_down_width,2024-10-18_11h35.29.755,exp1,2023.1.0,59.98242512734008,
,,,,,,,,,,,,,,,,3,9.1,10,10.9,0,0,0.9,0.35,0.55,2.35,10,initial,36.05,328,361,393,0,0,9,9,9,0,0,,,,,,,0,0,0,0,0,53,53,33,,,,,,,,,,,,num_3,1.3686636000638828,num_3,0.4,0.9,0.45,0.95,17.19248,36.29523,return,3.0510163999861106,,,,,,,,,,,,,,,,,98,18,female,up_down_width,2024-10-18_11h35.29.755,exp1,2023.1.0,59.98242512734008,
,,,,,,,,,,,,,,,,,,,,,,,,,,,,,,,,,,,,,,,,,,,,,0,0,0,0,,,,,,,,,,,,,,,,,,,,,,,,,,,,,805.9617692000465,805.9617692000465,805.9617692000465,,,,,,,,,,,,98,18,female,up_down_width,2024-10-18_11h35.29.755,exp1,2023.1.0,59.98242512734008,
,,,,,,,,,,,,,,,,3,9.5,10,10.5,0,0,0.5,0.1,0.4,1.4000000000000001,10,initial,36.05,342,361,379,0,0,9,9,9,0,0,,,,,,,1,0,1,0,0,0,0,29,,,,,,,,,,,,num_3,1.1857376999687403,num_3,0.3,0.9,0.35,0.55,13.37193,21.01303,return,5.371396699920297,,,,,,,,,,,,,,,,,98,18,female,up_down_width,2024-10-18_11h35.29.755,exp1,2023.1.0,59.98242512734008,
,,,,,,,,,,,,,,,,5,9,9.5,10,10.5,11,0.5,0.1,0.4,2.4,10,initial,36.05,324,342,361,379,397,9,9,9,9,9,,,,,,,1,0,1,0,0,1,1,49,,,,,,,,,,,,num_4,1.2227883000159636,num_4,0.5,0.8,0.4,0.6,15.2822,22.9233,return,3.348991599981673,,,,,,,,,,,,,,,,,98,18,female,up_down_width,2024-10-18_11h35.29.755,exp1,2023.1.0,59.98242512734008,
,,,,,,,,,,,,,,,,5,9,9.5,10,10.5,11,0.5,0.1,0.4,2.4,10,initial,36.05,324,342,361,379,397,9,9,9,9,9,,,,,,,1,0,1,0,0,2,2,25,,,,,,,,,,,,num_4,1.315343499998562,num_4,0.4,1.2,0.35000000000000003,0.6,13.37193,22.9233,return,5.0816776000428945,,,,,,,,,,,,,,,,,98,18,female,up_down_width,2024-10-18_11h35.29.755,exp1,2023.1.0,59.98242512734008,
,,,,,,,,,,,,,,,,3,9.5,10,10.5,0,0,0.5,0.1,0.4,1.4000000000000001,10,initial,36.05,342,361,379,0,0,9,9,9,0,0,,,,,,,1,0,1,0,0,3,3,33,,,,,,,,,,,,num_3,2.57227659993805,num_3,0.3,0.6,0.3,0.45,11.46165,17.19248,return,4.285853500012308,,,,,,,,,,,,,,,,,98,18,female,up_down_width,2024-10-18_11h35.29.755,exp1,2023.1.0,59.98242512734008,
,,,,,,,,,,,,,,,,5,9,9.5,10,10.5,11,0.5,0.1,0.4,2.4,10,initial,36.05,324,342,361,379,397,9,9,9,9,9,,,,,,,1,0,1,0,0,4,4,48,,,,,,,,,,,,num_4,1.3113105000229552,num_4,0.2,1.0,0.3,0.5,11.46165,19.10275,return,6.785583999939263,,,,,,,,,,,,,,,,,98,18,female,up_down_width,2024-10-18_11h35.29.755,exp1,2023.1.0,59.98242512734008,
,,,,,,,,,,,,,,,,3,9.5,10,10.5,0,0,0.5,0.1,0.4,1.4000000000000001,10,initial,36.05,342,361,379,0,0,9,9,9,0,0,,,,,,,1,0,1,0,0,5,5,6,,,,,,,,,,,,num_3,1.121236199978739,num_3,0.4,0.9,0.35000000000000003,0.6,13.37193,22.9233,return,3.022784400032833,,,,,,,,,,,,,,,,,98,18,female,up_down_width,2024-10-18_11h35.29.755,exp1,2023.1.0,59.98242512734008,
,,,,,,,,,,,,,,,,4,9.25,9.75,10.25,10.75,0,0.5,0.1,0.4,1.9000000000000001,10,initial,36.05,333,351,370,388,0,9,9,9,9,0,,,,,,,1,0,1,0,0,6,6,40,,,,,,,,,,,,num_3,2.450946900062263,num_3,0.35,0.6,0.3,0.5,11.46165,19.10275,return,4.942848699982278,,,,,,,,,,,,,,,,,98,18,female,up_down_width,2024-10-18_11h35.29.755,exp1,2023.1.0,59.98242512734008,
,,,,,,,,,,,,,,,,4,9.25,9.75,10.25,10.75,0,0.5,0.1,0.4,1.9000000000000001,10,initial,36.05,333,351,370,388,0,9,9,9,9,0,,,,,,,1,0,1,0,0,7,7,16,,,,,,,,,,,,num_3,2.2349206999642774,num_3,0.45,0.8,0.30000000000000004,0.6,11.46165,22.9233,return,2.832951799966395,,,,,,,,,,,,,,,,,98,18,female,up_down_width,2024-10-18_11h35.29.755,exp1,2023.1.0,59.98242512734008,
,,,,,,,,,,,,,,,,3,9.5,10,10.5,0,0,0.5,0.1,0.4,1.4000000000000001,10,initial,36.05,342,361,379,0,0,9,9,9,0,0,,,,,,,1,0,1,0,0,8,8,30,,,,,,,,,,,,num_3,1.5035580999683589,num_3,0.2,0.8,0.2,0.4,7.6411,15.2822,return,4.242138200090267,,,,,,,,,,,,,,,,,98,18,female,up_down_width,2024-10-18_11h35.29.755,exp1,2023.1.0,59.98242512734008,
,,,,,,,,,,,,,,,,5,9,9.5,10,10.5,11,0.5,0.1,0.4,2.4,10,initial,36.05,324,342,361,379,397,9,9,9,9,9,,,,,,,1,0,1,0,0,9,9,26,,,,,,,,,,,,num_4,2.6091794000240043,num_4,0.35,0.5,0.25,0.4,9.55138,15.2822,return,6.868264099932276,,,,,,,,,,,,,,,,,98,18,female,up_down_width,2024-10-18_11h35.29.755,exp1,2023.1.0,59.98242512734008,
,,,,,,,,,,,,,,,,5,9,9.5,10,10.5,11,0.5,0.1,0.4,2.4,10,initial,36.05,324,342,361,379,397,9,9,9,9,9,,,,,,,1,0,1,0,0,10,10,51,,,,,,,,,,,,num_5,1.3075273999711499,num_5,0.4,1.0,0.20000000000000007,0.45,7.6411,17.19248,return,6.166263099992648,,,,,,,,,,,,,,,,,98,18,female,up_down_width,2024-10-18_11h35.29.755,exp1,2023.1.0,59.98242512734008,
,,,,,,,,,,,,,,,,4,9.25,9.75,10.25,10.75,0,0.5,0.1,0.4,1.9000000000000001,10,initial,36.05,333,351,370,388,0,9,9,9,9,0,,,,,,,1,0,1,0,0,11,11,13,,,,,,,,,,,,num_4,1.8040321000153199,num_4,0.5,0.8,0.30000000000000004,0.5,11.46165,19.10275,return,4.815012100036256,,,,,,,,,,,,,,,,,98,18,female,up_down_width,2024-10-18_11h35.29.755,exp1,2023.1.0,59.98242512734008,
,,,,,,,,,,,,,,,,4,9.25,9.75,10.25,10.75,0,0.5,0.1,0.4,1.9000000000000001,10,initial,36.05,333,351,370,388,0,9,9,9,9,0,,,,,,,1,0,1,0,0,12,12,36,,,,,,,,,,,,num_4,1.1041892999783158,num_4,0.45,0.7,0.4,0.5,15.2822,19.10275,return,3.0652009999612346,,,,,,,,,,,,,,,,,98,18,female,up_down_width,2024-10-18_11h35.29.755,exp1,2023.1.0,59.98242512734008,
,,,,,,,,,,,,,,,,5,9,9.5,10,10.5,11,0.5,0.1,0.4,2.4,10,initial,36.05,324,342,361,379,397,9,9,9,9,9,,,,,,,1,0,1,0,0,13,13,50,,,,,,,,,,,,num_4,1.3109245999949053,num_4,0.5,1.1,0.35000000000000003,0.5,13.37193,19.10275,return,5.272997800027952,,,,,,,,,,,,,,,,,98,18,female,up_down_width,2024-10-18_11h35.29.755,exp1,2023.1.0,59.98242512734008,
,,,,,,,,,,,,,,,,3,9.5,10,10.5,0,0,0.5,0.1,0.4,1.4000000000000001,10,initial,36.05,342,361,379,0,0,9,9,9,0,0,,,,,,,1,0,1,0,0,14,14,1,,,,,,,,,,,,num_3,1.2148264000425115,num_3,0.2,0.7,0.39999999999999997,0.6,15.2822,22.9233,return,4.362850100034848,,,,,,,,,,,,,,,,,98,18,female,up_down_width,2024-10-18_11h35.29.755,exp1,2023.1.0,59.98242512734008,
,,,,,,,,,,,,,,,,4,9.25,9.75,10.25,10.75,0,0.5,0.1,0.4,1.9000000000000001,10,initial,36.05,333,351,370,388,0,9,9,9,9,0,,,,,,,1,0,1,0,0,15,15,14,,,,,,,,,,,,num_4,1.3679465999593958,num_4,0.45,1.3,0.35000000000000003,0.7,13.37193,26.74385,return,5.868676399928518,,,,,,,,,,,,,,,,,98,18,female,up_down_width,2024-10-18_11h35.29.755,exp1,2023.1.0,59.98242512734008,
,,,,,,,,,,,,,,,,5,9,9.5,10,10.5,11,0.5,0.1,0.4,2.4,10,initial,36.05,324,342,361,379,397,9,9,9,9,9,,,,,,,1,0,1,0,0,16,16,23,,,,,,,,,,,,num_5,1.8681495999917388,num_5,0.2,0.8,0.3,0.55,11.46165,21.01303,return,5.066897799959406,,,,,,,,,,,,,,,,,98,18,female,up_down_width,2024-10-18_11h35.29.755,exp1,2023.1.0,59.98242512734008,
,,,,,,,,,,,,,,,,5,9,9.5,10,10.5,11,0.5,0.1,0.4,2.4,10,initial,36.05,324,342,361,379,397,9,9,9,9,9,,,,,,,1,0,1,0,0,17,17,20,,,,,,,,,,,,num_5,2.0433458000188693,num_5,0.35,0.6,0.39999999999999997,0.6,15.2822,22.9233,return,7.009517700062133,,,,,,,,,,,,,,,,,98,18,female,up_down_width,2024-10-18_11h35.29.755,exp1,2023.1.0,59.98242512734008,
,,,,,,,,,,,,,,,,4,9.25,9.75,10.25,10.75,0,0.5,0.1,0.4,1.9000000000000001,10,initial,36.05,333,351,370,388,0,9,9,9,9,0,,,,,,,1,0,1,0,0,18,18,41,,,,,,,,,,,,num_4,1.0534797000000253,num_4,0.45,0.8,0.45,0.6,17.19248,22.9233,return,3.5385441000107676,,,,,,,,,,,,,,,,,98,18,female,up_down_width,2024-10-18_11h35.29.755,exp1,2023.1.0,59.98242512734008,
,,,,,,,,,,,,,,,,3,9.5,10,10.5,0,0,0.5,0.1,0.4,1.4000000000000001,10,initial,36.05,342,361,379,0,0,9,9,9,0,0,,,,,,,1,0,1,0,0,19,19,28,,,,,,,,,,,,num_2,1.1921968000242487,num_2,0.45,0.6,0.45,0.6,17.19248,22.9233,return,2.3204760000808164,,,,,,,,,,,,,,,,,98,18,female,up_down_width,2024-10-18_11h35.29.755,exp1,2023.1.0,59.98242512734008,
,,,,,,,,,,,,,,,,4,9.25,9.75,10.25,10.75,0,0.5,0.1,0.4,1.9000000000000001,10,initial,36.05,333,351,370,388,0,9,9,9,9,0,,,,,,,1,0,1,0,0,20,20,44,,,,,,,,,,,,num_4,2.717289200052619,num_4,0.25,0.6,0.44999999999999996,0.6,17.19248,22.9233,return,3.0040925999637693,,,,,,,,,,,,,,,,,98,18,female,up_down_width,2024-10-18_11h35.29.755,exp1,2023.1.0,59.98242512734008,
,,,,,,,,,,,,,,,,5,9,9.5,10,10.5,11,0.5,0.1,0.4,2.4,10,initial,36.05,324,342,361,379,397,9,9,9,9,9,,,,,,,1,0,1,0,0,21,21,18,,,,,,,,,,,,num_5,1.256303200032562,num_5,0.3,1.0,0.39999999999999997,0.55,15.2822,21.01303,return,10.366589199984446,,,,,,,,,,,,,,,,,98,18,female,up_down_width,2024-10-18_11h35.29.755,exp1,2023.1.0,59.98242512734008,
,,,,,,,,,,,,,,,,3,9.5,10,10.5,0,0,0.5,0.1,0.4,1.4000000000000001,10,initial,36.05,342,361,379,0,0,9,9,9,0,0,,,,,,,1,0,1,0,0,22,22,2,,,,,,,,,,,,num_2,1.3512244999874383,num_2,0.4,1.0,0.45,0.6,17.19248,22.9233,return,8.491979500046,,,,,,,,,,,,,,,,,98,18,female,up_down_width,2024-10-18_11h35.29.755,exp1,2023.1.0,59.98242512734008,
,,,,,,,,,,,,,,,,4,9.25,9.75,10.25,10.75,0,0.5,0.1,0.4,1.9000000000000001,10,initial,36.05,333,351,370,388,0,9,9,9,9,0,,,,,,,1,0,1,0,0,23,23,39,,,,,,,,,,,,num_3,1.101804899983108,num_3,0.45,0.5,0.45,0.75,17.19248,28.65413,return,3.9938865998992696,,,,,,,,,,,,,,,,,98,18,female,up_down_width,2024-10-18_11h35.29.755,exp1,2023.1.0,59.98242512734008,
,,,,,,,,,,,,,,,,4,9.25,9.75,10.25,10.75,0,0.5,0.1,0.4,1.9000000000000001,10,initial,36.05,333,351,370,388,0,9,9,9,9,0,,,,,,,1,0,1,0,0,24,24,12,,,,,,,,,,,,num_3,1.6133483999874443,num_3,0.25,0.3,0.39999999999999997,0.65,15.2822,24.83358,return,4.443347199936397,,,,,,,,,,,,,,,,,98,18,female,up_down_width,2024-10-18_11h35.29.755,exp1,2023.1.0,59.98242512734008,
,,,,,,,,,,,,,,,,3,9.5,10,10.5,0,0,0.5,0.1,0.4,1.4000000000000001,10,initial,36.05,342,361,379,0,0,9,9,9,0,0,,,,,,,1,0,1,0,0,25,25,3,,,,,,,,,,,,num_2,1.4256004999624565,num_2,0.45,1.4,0.5,0.7,19.10275,26.74385,return,11.186827099998482,,,,,,,,,,,,,,,,,98,18,female,up_down_width,2024-10-18_11h35.29.755,exp1,2023.1.0,59.98242512734008,
,,,,,,,,,,,,,,,,3,9.5,10,10.5,0,0,0.5,0.1,0.4,1.4000000000000001,10,initial,36.05,342,361,379,0,0,9,9,9,0,0,,,,,,,1,0,1,0,0,26,26,34,,,,,,,,,,,,num_2,1.1934666999150068,num_2,0.4,1.0,0.45,0.6,17.19248,22.9233,return,2.485244099982083,,,,,,,,,,,,,,,,,98,18,female,up_down_width,2024-10-18_11h35.29.755,exp1,2023.1.0,59.98242512734008,
,,,,,,,,,,,,,,,,5,9,9.5,10,10.5,11,0.5,0.1,0.4,2.4,10,initial,36.05,324,342,361,379,397,9,9,9,9,9,,,,,,,1,0,1,0,0,27,27,19,,,,,,,,,,,,num_4,1.1343647999456152,num_4,0.45,0.7,0.5,0.7,19.10275,26.74385,return,3.864785399986431,,,,,,,,,,,,,,,,,98,18,female,up_down_width,2024-10-18_11h35.29.755,exp1,2023.1.0,59.98242512734008,
,,,,,,,,,,,,,,,,5,9,9.5,10,10.5,11,0.5,0.1,0.4,2.4,10,initial,36.05,324,342,361,379,397,9,9,9,9,9,,,,,,,1,0,1,0,0,28,28,52,,,,,,,,,,,,num_4,3.3996988999424502,num_4,0.3,1.0,0.39999999999999997,0.5,15.2822,19.10275,return,6.877580199972726,,,,,,,,,,,,,,,,,98,18,female,up_down_width,2024-10-18_11h35.29.755,exp1,2023.1.0,59.98242512734008,
,,,,,,,,,,,,,,,,4,9.25,9.75,10.25,10.75,0,0.5,0.1,0.4,1.9000000000000001,10,initial,36.05,333,351,370,388,0,9,9,9,9,0,,,,,,,1,0,1,0,0,29,29,15,,,,,,,,,,,,num_4,1.7096539000049233,num_4,0.4,1.3,0.5,0.7,19.10275,26.74385,return,3.730966700008139,,,,,,,,,,,,,,,,,98,18,female,up_down_width,2024-10-18_11h35.29.755,exp1,2023.1.0,59.98242512734008,
,,,,,,,,,,,,,,,,4,9.25,9.75,10.25,10.75,0,0.5,0.1,0.4,1.9000000000000001,10,initial,36.05,333,351,370,388,0,9,9,9,9,0,,,,,,,1,0,1,0,0,30,30,9,,,,,,,,,,,,num_4,1.0286300999578089,num_4,0.2,0.5,0.44999999999999996,0.6,17.19248,22.9233,return,5.2854591000359505,,,,,,,,,,,,,,,,,98,18,female,up_down_width,2024-10-18_11h35.29.755,exp1,2023.1.0,59.98242512734008,
,,,,,,,,,,,,,,,,4,9.25,9.75,10.25,10.75,0,0.5,0.1,0.4,1.9000000000000001,10,initial,36.05,333,351,370,388,0,9,9,9,9,0,,,,,,,1,0,1,0,0,31,31,42,,,,,,,,,,,,num_4,1.127747500082478,num_4,0.45,0.5,0.45,0.8,17.19248,30.5644,return,5.22207839996554,,,,,,,,,,,,,,,,,98,18,female,up_down_width,2024-10-18_11h35.29.755,exp1,2023.1.0,59.98242512734008,
,,,,,,,,,,,,,,,,3,9.5,10,10.5,0,0,0.5,0.1,0.4,1.4000000000000001,10,initial,36.05,342,361,379,0,0,9,9,9,0,0,,,,,,,1,0,1,0,0,32,32,5,,,,,,,,,,,,num_2,1.2221557000884786,num_2,0.4,1.4,0.5,0.7,19.10275,26.74385,return,7.955011600046419,,,,,,,,,,,,,,,,,98,18,female,up_down_width,2024-10-18_11h35.29.755,exp1,2023.1.0,59.98242512734008,
,,,,,,,,,,,,,,,,3,9.5,10,10.5,0,0,0.5,0.1,0.4,1.4000000000000001,10,initial,36.05,342,361,379,0,0,9,9,9,0,0,,,,,,,1,0,1,0,0,33,33,32,,,,,,,,,,,,num_2,1.1422601999947801,num_2,0.4,1.0,0.45,0.6,17.19248,22.9233,return,3.927044899901375,,,,,,,,,,,,,,,,,98,18,female,up_down_width,2024-10-18_11h35.29.755,exp1,2023.1.0,59.98242512734008,
,,,,,,,,,,,,,,,,3,9.5,10,10.5,0,0,0.5,0.1,0.4,1.4000000000000001,10,initial,36.05,342,361,379,0,0,9,9,9,0,0,,,,,,,1,0,1,0,0,34,34,35,,,,,,,,,,,,num_2,1.2269290999975055,num_2,0.2,0.6,0.44999999999999996,0.7,17.19248,26.74385,return,6.23324039997533,,,,,,,,,,,,,,,,,98,18,female,up_down_width,2024-10-18_11h35.29.755,exp1,2023.1.0,59.98242512734008,
,,,,,,,,,,,,,,,,4,9.25,9.75,10.25,10.75,0,0.5,0.1,0.4,1.9000000000000001,10,initial,36.05,333,351,370,388,0,9,9,9,9,0,,,,,,,1,0,1,0,0,35,35,37,,,,,,,,,,,,num_3,1.1495706000132486,num_3,0.45,0.6,0.4,0.55,15.2822,21.01303,return,3.6632126000477,,,,,,,,,,,,,,,,,98,18,female,up_down_width,2024-10-18_11h35.29.755,exp1,2023.1.0,59.98242512734008,
,,,,,,,,,,,,,,,,3,9.5,10,10.5,0,0,0.5,0.1,0.4,1.4000000000000001,10,initial,36.05,342,361,379,0,0,9,9,9,0,0,,,,,,,1,0,1,0,0,36,36,31,,,,,,,,,,,,num_2,1.162243300001137,num_2,0.25,1.4,0.44999999999999996,0.6,17.19248,22.9233,return,4.0687782999593765,,,,,,,,,,,,,,,,,98,18,female,up_down_width,2024-10-18_11h35.29.755,exp1,2023.1.0,59.98242512734008,
,,,,,,,,,,,,,,,,5,9,9.5,10,10.5,11,0.5,0.1,0.4,2.4,10,initial,36.05,324,342,361,379,397,9,9,9,9,9,,,,,,,1,0,1,0,0,37,37,53,,,,,,,,,,,,num_4,1.2406995999626815,num_4,0.55,0.9,0.45,0.6,17.19248,22.9233,return,5.505178400082514,,,,,,,,,,,,,,,,,98,18,female,up_down_width,2024-10-18_11h35.29.755,exp1,2023.1.0,59.98242512734008,
,,,,,,,,,,,,,,,,5,9,9.5,10,10.5,11,0.5,0.1,0.4,2.4,10,initial,36.05,324,342,361,379,397,9,9,9,9,9,,,,,,,1,0,1,0,0,38,38,22,,,,,,,,,,,,num_5,0.9695969999302179,num_5,0.3,0.9,0.44999999999999996,0.7,17.19248,26.74385,return,3.487200799980201,,,,,,,,,,,,,,,,,98,18,female,up_down_width,2024-10-18_11h35.29.755,exp1,2023.1.0,59.98242512734008,
,,,,,,,,,,,,,,,,5,9,9.5,10,10.5,11,0.5,0.1,0.4,2.4,10,initial,36.05,324,342,361,379,397,9,9,9,9,9,,,,,,,1,0,1,0,0,39,39,45,,,,,,,,,,,,num_5,1.1604221999878064,num_5,0.2,0.7,0.44999999999999996,0.65,17.19248,24.83358,return,3.8091344999847934,,,,,,,,,,,,,,,,,98,18,female,up_down_width,2024-10-18_11h35.29.755,exp1,2023.1.0,59.98242512734008,
,,,,,,,,,,,,,,,,3,9.5,10,10.5,0,0,0.5,0.1,0.4,1.4000000000000001,10,initial,36.05,342,361,379,0,0,9,9,9,0,0,,,,,,,1,0,1,0,0,40,40,0,,,,,,,,,,,,num_2,1.1288686000043526,num_2,0.3,1.0,0.39999999999999997,0.6,15.2822,22.9233,return,3.526337300078012,,,,,,,,,,,,,,,,,98,18,female,up_down_width,2024-10-18_11h35.29.755,exp1,2023.1.0,59.98242512734008,
,,,,,,,,,,,,,,,,4,9.25,9.75,10.25,10.75,0,0.5,0.1,0.4,1.9000000000000001,10,initial,36.05,333,351,370,388,0,9,9,9,9,0,,,,,,,1,0,1,0,0,41,41,11,,,,,,,,,,,,num_4,1.2112515999469906,num_4,0.55,1.1,0.45,0.6,17.19248,22.9233,return,3.082661099964753,,,,,,,,,,,,,,,,,98,18,female,up_down_width,2024-10-18_11h35.29.755,exp1,2023.1.0,59.98242512734008,
,,,,,,,,,,,,,,,,4,9.25,9.75,10.25,10.75,0,0.5,0.1,0.4,1.9000000000000001,10,initial,36.05,333,351,370,388,0,9,9,9,9,0,,,,,,,1,0,1,0,0,42,42,10,,,,,,,,,,,,num_3,1.0828934999881312,num_3,0.45,0.8,0.4,0.65,15.2822,24.83358,return,4.123042599996552,,,,,,,,,,,,,,,,,98,18,female,up_down_width,2024-10-18_11h35.29.755,exp1,2023.1.0,59.98242512734008,
,,,,,,,,,,,,,,,,4,9.25,9.75,10.25,10.75,0,0.5,0.1,0.4,1.9000000000000001,10,initial,36.05,333,351,370,388,0,9,9,9,9,0,,,,,,,1,0,1,0,0,43,43,17,,,,,,,,,,,,num_3,1.0844863000093028,num_3,0.2,1.2,0.49999999999999994,0.7,19.10275,26.74385,return,7.052185899927281,,,,,,,,,,,,,,,,,98,18,female,up_down_width,2024-10-18_11h35.29.755,exp1,2023.1.0,59.98242512734008,
,,,,,,,,,,,,,,,,4,9.25,9.75,10.25,10.75,0,0.5,0.1,0.4,1.9000000000000001,10,initial,36.05,333,351,370,388,0,9,9,9,9,0,,,,,,,1,0,1,0,0,44,44,43,,,,,,,,,,,,num_3,1.1340628999751061,num_3,0.45,0.8,0.5,0.65,19.10275,24.83358,return,4.667862900067121,,,,,,,,,,,,,,,,,98,18,female,up_down_width,2024-10-18_11h35.29.755,exp1,2023.1.0,59.98242512734008,
,,,,,,,,,,,,,,,,5,9,9.5,10,10.5,11,0.5,0.1,0.4,2.4,10,initial,36.05,324,342,361,379,397,9,9,9,9,9,,,,,,,1,0,1,0,0,45,45,47,,,,,,,,,,,,num_4,1.1434203999815509,num_4,0.35,1.3,0.39999999999999997,0.6,15.2822,22.9233,return,7.087993200053461,,,,,,,,,,,,,,,,,98,18,female,up_down_width,2024-10-18_11h35.29.755,exp1,2023.1.0,59.98242512734008,
,,,,,,,,,,,,,,,,3,9.5,10,10.5,0,0,0.5,0.1,0.4,1.4000000000000001,10,initial,36.05,342,361,379,0,0,9,9,9,0,0,,,,,,,1,0,1,0,0,46,46,27,,,,,,,,,,,,num_3,1.1978597999550402,num_3,0.35,0.4,0.44999999999999996,0.7,17.19248,26.74385,return,4.716187100042589,,,,,,,,,,,,,,,,,98,18,female,up_down_width,2024-10-18_11h35.29.755,exp1,2023.1.0,59.98242512734008,
,,,,,,,,,,,,,,,,4,9.25,9.75,10.25,10.75,0,0.5,0.1,0.4,1.9000000000000001,10,initial,36.05,333,351,370,388,0,9,9,9,9,0,,,,,,,1,0,1,0,0,47,47,38,,,,,,,,,,,,num_3,1.2460384999867529,num_3,0.25,0.5,0.49999999999999994,0.7,19.10275,26.74385,return,3.621347599895671,,,,,,,,,,,,,,,,,98,18,female,up_down_width,2024-10-18_11h35.29.755,exp1,2023.1.0,59.98242512734008,
,,,,,,,,,,,,,,,,5,9,9.5,10,10.5,11,0.5,0.1,0.4,2.4,10,initial,36.05,324,342,361,379,397,9,9,9,9,9,,,,,,,1,0,1,0,0,48,48,46,,,,,,,,,,,,num_4,1.1110506999539211,num_4,0.5,1.0,0.45,0.6,17.19248,22.9233,return,10.310498800012283,,,,,,,,,,,,,,,,,98,18,female,up_down_width,2024-10-18_11h35.29.755,exp1,2023.1.0,59.98242512734008,
,,,,,,,,,,,,,,,,5,9,9.5,10,10.5,11,0.5,0.1,0.4,2.4,10,initial,36.05,324,342,361,379,397,9,9,9,9,9,,,,,,,1,0,1,0,0,49,49,21,,,,,,,,,,,,num_4,1.2494378999108449,num_4,0.2,0.4,0.44999999999999996,0.6,17.19248,22.9233,return,3.70938179991208,,,,,,,,,,,,,,,,,98,18,female,up_down_width,2024-10-18_11h35.29.755,exp1,2023.1.0,59.98242512734008,
,,,,,,,,,,,,,,,,3,9.5,10,10.5,0,0,0.5,0.1,0.4,1.4000000000000001,10,initial,36.05,342,361,379,0,0,9,9,9,0,0,,,,,,,1,0,1,0,0,50,50,7,,,,,,,,,,,,num_2,1.2984122999478132,num_2,0.25,1.2,0.39999999999999997,0.6,15.2822,22.9233,return,3.5491182999685407,,,,,,,,,,,,,,,,,98,18,female,up_down_width,2024-10-18_11h35.29.755,exp1,2023.1.0,59.98242512734008,
,,,,,,,,,,,,,,,,5,9,9.5,10,10.5,11,0.5,0.1,0.4,2.4,10,initial,36.05,324,342,361,379,397,9,9,9,9,9,,,,,,,1,0,1,0,0,51,51,24,,,,,,,,,,,,num_5,1.9075995000312105,num_5,0.4,1.3,0.35000000000000003,0.55,13.37193,21.01303,return,9.605057699955069,,,,,,,,,,,,,,,,,98,18,female,up_down_width,2024-10-18_11h35.29.755,exp1,2023.1.0,59.98242512734008,
,,,,,,,,,,,,,,,,3,9.5,10,10.5,0,0,0.5,0.1,0.4,1.4000000000000001,10,initial,36.05,342,361,379,0,0,9,9,9,0,0,,,,,,,1,0,1,0,0,52,52,8,,,,,,,,,,,,num_2,1.0942513999762014,num_2,0.5,0.8,0.5,0.7,19.10275,26.74385,return,3.317221299977973,,,,,,,,,,,,,,,,,98,18,female,up_down_width,2024-10-18_11h35.29.755,exp1,2023.1.0,59.98242512734008,
,,,,,,,,,,,,,,,,3,9.5,10,10.5,0,0,0.5,0.1,0.4,1.4000000000000001,10,initial,36.05,342,361,379,0,0,9,9,9,0,0,,,,,,,1,0,1,0,0,53,53,4,,,,,,,,,,,,num_2,1.0897180999163538,num_2,0.25,0.8,0.35,0.7,13.37193,26.74385,return,7.648618199978955,,,,,,,,,,,,,,,,,98,18,female,up_down_width,2024-10-18_11h35.29.755,exp1,2023.1.0,59.98242512734008,
,,,,,,,,,,,,,,,,,,,,,,,,,,,,,,,,,,,,,,,,,,,,,1,0,1,0,,,,,,,,,,,,,,,,,,,,,,,,,,,,,1278.460793400067,1278.460793400067,1278.460793400067,,,,,,,,,,,,98,18,female,up_down_width,2024-10-18_11h35.29.755,exp1,2023.1.0,59.98242512734008,
,,,,,,,,,,,,,,,,5,9,9.5,10,10.5,11,0.5,0.25,0.25,2.25,10,initial,36.05,324,342,361,379,397,9,9,9,9,9,,,,,,,2,0,2,0,0,0,0,46,,,,,,,,,,,,num_4,1.3136646000202745,num_4,0.5,0.6,0.30000000000000004,0.6,11.46165,22.9233,return,5.291692099999636,,,,,,,,,,,,,,,,,98,18,female,up_down_width,2024-10-18_11h35.29.755,exp1,2023.1.0,59.98242512734008,
,,,,,,,,,,,,,,,,5,9,9.5,10,10.5,11,0.5,0.25,0.25,2.25,10,initial,36.05,324,342,361,379,397,9,9,9,9,9,,,,,,,2,0,2,0,0,1,1,25,,,,,,,,,,,,num_5,2.2622297999914736,num_5,0.4,1.1,0.30000000000000004,0.65,11.46165,24.83358,return,4.739704999956302,,,,,,,,,,,,,,,,,98,18,female,up_down_width,2024-10-18_11h35.29.755,exp1,2023.1.0,59.98242512734008,
,,,,,,,,,,,,,,,,3,9.5,10,10.5,0,0,0.5,0.25,0.25,1.25,10,initial,36.05,342,361,379,0,0,9,9,9,0,0,,,,,,,2,0,2,0,0,2,2,27,,,,,,,,,,,,num_2,1.1028803999070078,num_2,0.4,1.4,0.30000000000000004,0.7,11.46165,26.74385,return,3.937454400002025,,,,,,,,,,,,,,,,,98,18,female,up_down_width,2024-10-18_11h35.29.755,exp1,2023.1.0,59.98242512734008,
,,,,,,,,,,,,,,,,4,9.25,9.75,10.25,10.75,0,0.5,0.25,0.25,1.75,10,initial,36.05,333,351,370,388,0,9,9,9,9,0,,,,,,,2,0,2,0,0,3,3,39,,,,,,,,,,,,num_4,0.9778296999866143,num_4,0.5,1.3,0.35000000000000003,0.7,13.37193,26.74385,return,4.969012100016698,,,,,,,,,,,,,,,,,98,18,female,up_down_width,2024-10-18_11h35.29.755,exp1,2023.1.0,59.98242512734008,
,,,,,,,,,,,,,,,,3,9.5,10,10.5,0,0,0.5,0.25,0.25,1.25,10,initial,36.05,342,361,379,0,0,9,9,9,0,0,,,,,,,2,0,2,0,0,4,4,6,,,,,,,,,,,,num_3,1.1614739000797272,num_3,0.25,0.6,0.25,0.65,9.55138,24.83358,return,3.2749135999474674,,,,,,,,,,,,,,,,,98,18,female,up_down_width,2024-10-18_11h35.29.755,exp1,2023.1.0,59.98242512734008,
,,,,,,,,,,,,,,,,3,9.5,10,10.5,0,0,0.5,0.25,0.25,1.25,10,initial,36.05,342,361,379,0,0,9,9,9,0,0,,,,,,,2,0,2,0,0,5,5,31,,,,,,,,,,,,num_2,0.9688058999599889,num_2,0.55,1.0,0.30000000000000004,0.7,11.46165,26.74385,return,5.57703120005317,,,,,,,,,,,,,,,,,98,18,female,up_down_width,2024-10-18_11h35.29.755,exp1,2023.1.0,59.98242512734008,
,,,,,,,,,,,,,,,,5,9,9.5,10,10.5,11,0.5,0.25,0.25,2.25,10,initial,36.05,324,342,361,379,397,9,9,9,9,9,,,,,,,2,0,2,0,0,6,6,53,,,,,,,,,,,,num_5,1.2203113000141457,num_5,0.25,1.3,0.25,0.65,9.55138,24.83358,return,5.772208700072952,,,,,,,,,,,,,,,,,98,18,female,up_down_width,2024-10-18_11h35.29.755,exp1,2023.1.0,59.98242512734008,
,,,,,,,,,,,,,,,,5,9,9.5,10,10.5,11,0.5,0.25,0.25,2.25,10,initial,36.05,324,342,361,379,397,9,9,9,9,9,,,,,,,2,0,2,0,0,7,7,24,,,,,,,,,,,,num_5,1.5388458999805152,num_5,0.2,0.8,0.2,0.6,7.6411,22.9233,return,2.737068700022064,,,,,,,,,,,,,,,,,98,18,female,up_down_width,2024-10-18_11h35.29.755,exp1,2023.1.0,59.98242512734008,
,,,,,,,,,,,,,,,,5,9,9.5,10,10.5,11,0.5,0.25,0.25,2.25,10,initial,36.05,324,342,361,379,397,9,9,9,9,9,,,,,,,2,0,2,0,0,8,8,48,,,,,,,,,,,,num_5,1.2370359000051394,num_5,0.35,1.0,0.25,0.65,9.55138,24.83358,return,3.5685975000960752,,,,,,,,,,,,,,,,,98,18,female,up_down_width,2024-10-18_11h35.29.755,exp1,2023.1.0,59.98242512734008,
,,,,,,,,,,,,,,,,4,9.25,9.75,10.25,10.75,0,0.5,0.25,0.25,1.75,10,initial,36.05,333,351,370,388,0,9,9,9,9,0,,,,,,,2,0,2,0,0,9,9,17,,,,,,,,,,,,num_4,1.2282221999485046,num_4,0.45,0.7,0.20000000000000007,0.8,7.6411,30.5644,return,6.2924888000125065,,,,,,,,,,,,,,,,,98,18,female,up_down_width,2024-10-18_11h35.29.755,exp1,2023.1.0,59.98242512734008,
,,,,,,,,,,,,,,,,4,9.25,9.75,10.25,10.75,0,0.5,0.25,0.25,1.75,10,initial,36.05,333,351,370,388,0,9,9,9,9,0,,,,,,,2,0,2,0,0,10,10,10,,,,,,,,,,,,num_4,1.056017900002189,num_4,0.4,1.2,0.20000000000000007,0.8,7.6411,30.5644,return,3.1044818999944255,,,,,,,,,,,,,,,,,98,18,female,up_down_width,2024-10-18_11h35.29.755,exp1,2023.1.0,59.98242512734008,
,,,,,,,,,,,,,,,,3,9.5,10,10.5,0,0,0.5,0.25,0.25,1.25,10,initial,36.05,342,361,379,0,0,9,9,9,0,0,,,,,,,2,0,2,0,0,11,11,32,,,,,,,,,,,,num_2,1.2746762000024319,num_2,0.3,0.6,0.2,0.8,7.6411,30.5644,return,3.3499596000183374,,,,,,,,,,,,,,,,,98,18,female,up_down_width,2024-10-18_11h35.29.755,exp1,2023.1.0,59.98242512734008,
,,,,,,,,,,,,,,,,4,9.25,9.75,10.25,10.75,0,0.5,0.25,0.25,1.75,10,initial,36.05,333,351,370,388,0,9,9,9,9,0,,,,,,,2,0,2,0,0,12,12,12,,,,,,,,,,,,num_4,1.0090041999937966,num_4,0.2,1.0,0.2,0.8,7.6411,30.5644,return,2.745212299982086,,,,,,,,,,,,,,,,,98,18,female,up_down_width,2024-10-18_11h35.29.755,exp1,2023.1.0,59.98242512734008,
,,,,,,,,,,,,,,,,4,9.25,9.75,10.25,10.75,0,0.5,0.25,0.25,1.75,10,initial,36.05,333,351,370,388,0,9,9,9,9,0,,,,,,,2,0,2,0,0,13,13,13,,,,,,,,,,,,num_4,1.7725470999721438,num_4,0.45,1.1,0.30000000000000004,0.8,11.46165,30.5644,return,3.008545899996534,,,,,,,,,,,,,,,,,98,18,female,up_down_width,2024-10-18_11h35.29.755,exp1,2023.1.0,59.98242512734008,
,,,,,,,,,,,,,,,,4,9.25,9.75,10.25,10.75,0,0.5,0.25,0.25,1.75,10,initial,36.05,333,351,370,388,0,9,9,9,9,0,,,,,,,2,0,2,0,0,14,14,15,,,,,,,,,,,,num_5,1.3644233000231907,num_5,0.45,1.0,0.25000000000000006,0.85,9.55138,32.47468,return,3.5460627999855205,,,,,,,,,,,,,,,,,98,18,female,up_down_width,2024-10-18_11h35.29.755,exp1,2023.1.0,59.98242512734008,
,,,,,,,,,,,,,,,,3,9.5,10,10.5,0,0,0.5,0.25,0.25,1.25,10,initial,36.05,342,361,379,0,0,9,9,9,0,0,,,,,,,2,0,2,0,0,15,15,2,,,,,,,,,,,,num_2,1.212523699970916,num_2,0.55,0.8,0.30000000000000004,0.8,11.46165,30.5644,return,3.5107514000264928,,,,,,,,,,,,,,,,,98,18,female,up_down_width,2024-10-18_11h35.29.755,exp1,2023.1.0,59.98242512734008,
,,,,,,,,,,,,,,,,4,9.25,9.75,10.25,10.75,0,0.5,0.25,0.25,1.75,10,initial,36.05,333,351,370,388,0,9,9,9,9,0,,,,,,,2,0,2,0,0,16,16,42,,,,,,,,,,,,num_4,0.9600684000179172,num_4,0.5,1.2,0.25000000000000006,0.8,9.55138,30.5644,return,3.9574396000243723,,,,,,,,,,,,,,,,,98,18,female,up_down_width,2024-10-18_11h35.29.755,exp1,2023.1.0,59.98242512734008,
,,,,,,,,,,,,,,,,4,9.25,9.75,10.25,10.75,0,0.5,0.25,0.25,1.75,10,initial,36.05,333,351,370,388,0,9,9,9,9,0,,,,,,,2,0,2,0,0,17,17,41,,,,,,,,,,,,num_4,0.8915730000007898,num_4,0.45,0.8,0.25000000000000006,0.8,9.55138,30.5644,return,2.6776090000057593,,,,,,,,,,,,,,,,,98,18,female,up_down_width,2024-10-18_11h35.29.755,exp1,2023.1.0,59.98242512734008,
,,,,,,,,,,,,,,,,5,9,9.5,10,10.5,11,0.5,0.25,0.25,2.25,10,initial,36.05,324,342,361,379,397,9,9,9,9,9,,,,,,,2,0,2,0,0,18,18,18,,,,,,,,,,,,num_6,2.3730286000063643,num_6,0.55,1.2,0.20000000000000007,0.8,7.6411,30.5644,return,7.444278399925679,,,,,,,,,,,,,,,,,98,18,female,up_down_width,2024-10-18_11h35.29.755,exp1,2023.1.0,59.98242512734008,
,,,,,,,,,,,,,,,,5,9,9.5,10,10.5,11,0.5,0.25,0.25,2.25,10,initial,36.05,324,342,361,379,397,9,9,9,9,9,,,,,,,2,0,2,0,0,19,19,49,,,,,,,,,,,,num_5,1.4060084999073297,num_5,0.35,0.5,0.2,0.6,7.6411,22.9233,return,6.737318100058474,,,,,,,,,,,,,,,,,98,18,female,up_down_width,2024-10-18_11h35.29.755,exp1,2023.1.0,59.98242512734008,
,,,,,,,,,,,,,,,,3,9.5,10,10.5,0,0,0.5,0.25,0.25,1.25,10,initial,36.05,342,361,379,0,0,9,9,9,0,0,,,,,,,2,0,2,0,0,20,20,33,,,,,,,,,,,,num_2,1.456085699959658,num_2,0.45,0.8,0.25000000000000006,0.8,9.55138,30.5644,return,3.2464129999279976,,,,,,,,,,,,,,,,,98,18,female,up_down_width,2024-10-18_11h35.29.755,exp1,2023.1.0,59.98242512734008,
,,,,,,,,,,,,,,,,5,9,9.5,10,10.5,11,0.5,0.25,0.25,2.25,10,initial,36.05,324,342,361,379,397,9,9,9,9,9,,,,,,,2,0,2,0,0,21,21,23,,,,,,,,,,,,num_5,1.403453999897465,num_5,0.25,0.6,0.2,0.6,7.6411,22.9233,return,2.012832200038247,,,,,,,,,,,,,,,,,98,18,female,up_down_width,2024-10-18_11h35.29.755,exp1,2023.1.0,59.98242512734008,
,,,,,,,,,,,,,,,,4,9.25,9.75,10.25,10.75,0,0.5,0.25,0.25,1.75,10,initial,36.05,333,351,370,388,0,9,9,9,9,0,,,,,,,2,0,2,0,0,22,22,11,,,,,,,,,,,,num_4,1.1453905999660492,num_4,0.35,0.5,0.25,0.7,9.55138,26.74385,return,3.3384108999744058,,,,,,,,,,,,,,,,,98,18,female,up_down_width,2024-10-18_11h35.29.755,exp1,2023.1.0,59.98242512734008,
,,,,,,,,,,,,,,,,3,9.5,10,10.5,0,0,0.5,0.25,0.25,1.25,10,initial,36.05,342,361,379,0,0,9,9,9,0,0,,,,,,,2,0,2,0,0,23,23,34,,,,,,,,,,,,num_2,1.0622386999893934,num_2,0.2,1.6,0.25,0.8,9.55138,30.5644,return,4.402613600017503,,,,,,,,,,,,,,,,,98,18,female,up_down_width,2024-10-18_11h35.29.755,exp1,2023.1.0,59.98242512734008,
,,,,,,,,,,,,,,,,5,9,9.5,10,10.5,11,0.5,0.25,0.25,2.25,10,initial,36.05,324,342,361,379,397,9,9,9,9,9,,,,,,,2,0,2,0,0,24,24,52,,,,,,,,,,,,num_5,1.1633817999390885,num_5,0.3,1.3,0.25,0.85,9.55138,32.47468,return,4.613235200056806,,,,,,,,,,,,,,,,,98,18,female,up_down_width,2024-10-18_11h35.29.755,exp1,2023.1.0,59.98242512734008,
,,,,,,,,,,,,,,,,5,9,9.5,10,10.5,11,0.5,0.25,0.25,2.25,10,initial,36.05,324,342,361,379,397,9,9,9,9,9,,,,,,,2,0,2,0,0,25,25,50,,,,,,,,,,,,num_5,3.421172200003639,num_5,0.25,0.6,0.25,0.55,9.55138,21.01303,return,3.0235914000077173,,,,,,,,,,,,,,,,,98,18,female,up_down_width,2024-10-18_11h35.29.755,exp1,2023.1.0,59.98242512734008,
,,,,,,,,,,,,,,,,4,9.25,9.75,10.25,10.75,0,0.5,0.25,0.25,1.75,10,initial,36.05,333,351,370,388,0,9,9,9,9,0,,,,,,,2,0,2,0,0,26,26,44,,,,,,,,,,,,num_4,1.0742769999196753,num_4,0.45,0.7,0.25000000000000006,0.6,9.55138,22.9233,return,3.805134500027634,,,,,,,,,,,,,,,,,98,18,female,up_down_width,2024-10-18_11h35.29.755,exp1,2023.1.0,59.98242512734008,
,,,,,,,,,,,,,,,,4,9.25,9.75,10.25,10.75,0,0.5,0.25,0.25,1.75,10,initial,36.05,333,351,370,388,0,9,9,9,9,0,,,,,,,2,0,2,0,0,27,27,37,,,,,,,,,,,,num_4,1.0732088000513613,num_4,0.45,0.9,0.30000000000000004,0.7,11.46165,26.74385,return,3.76563019992318,,,,,,,,,,,,,,,,,98,18,female,up_down_width,2024-10-18_11h35.29.755,exp1,2023.1.0,59.98242512734008,
,,,,,,,,,,,,,,,,5,9,9.5,10,10.5,11,0.5,0.25,0.25,2.25,10,initial,36.05,324,342,361,379,397,9,9,9,9,9,,,,,,,2,0,2,0,0,28,28,26,,,,,,,,,,,,num_5,2.3352781999856234,num_5,0.3,0.8,0.25,0.7,9.55138,26.74385,return,2.8755346999969333,,,,,,,,,,,,,,,,,98,18,female,up_down_width,2024-10-18_11h35.29.755,exp1,2023.1.0,59.98242512734008,
,,,,,,,,,,,,,,,,3,9.5,10,10.5,0,0,0.5,0.25,0.25,1.25,10,initial,36.05,342,361,379,0,0,9,9,9,0,0,,,,,,,2,0,2,0,0,29,29,3,,,,,,,,,,,,num_2,1.0994780000764877,num_2,0.2,0.6,0.2,0.6,7.6411,22.9233,return,1.7201830999692902,,,,,,,,,,,,,,,,,98,18,female,up_down_width,2024-10-18_11h35.29.755,exp1,2023.1.0,59.98242512734008,
,,,,,,,,,,,,,,,,3,9.5,10,10.5,0,0,0.5,0.25,0.25,1.25,10,initial,36.05,342,361,379,0,0,9,9,9,0,0,,,,,,,2,0,2,0,0,30,30,35,,,,,,,,,,,,num_2,1.1548891998827457,num_2,0.45,1.0,0.25000000000000006,0.8,9.55138,30.5644,return,4.147436899947934,,,,,,,,,,,,,,,,,98,18,female,up_down_width,2024-10-18_11h35.29.755,exp1,2023.1.0,59.98242512734008,
,,,,,,,,,,,,,,,,4,9.25,9.75,10.25,10.75,0,0.5,0.25,0.25,1.75,10,initial,36.05,333,351,370,388,0,9,9,9,9,0,,,,,,,2,0,2,0,0,31,31,36,,,,,,,,,,,,num_4,1.5494747000047937,num_4,0.3,1.1,0.2,0.6,7.6411,22.9233,return,3.8800430999835953,,,,,,,,,,,,,,,,,98,18,female,up_down_width,2024-10-18_11h35.29.755,exp1,2023.1.0,59.98242512734008,
,,,,,,,,,,,,,,,,5,9,9.5,10,10.5,11,0.5,0.25,0.25,2.25,10,initial,36.05,324,342,361,379,397,9,9,9,9,9,,,,,,,2,0,2,0,0,32,32,22,,,,,,,,,,,,num_6,1.2173137000063434,num_6,0.4,1.2,0.20000000000000007,0.6,7.6411,22.9233,return,5.565886899945326,,,,,,,,,,,,,,,,,98,18,female,up_down_width,2024-10-18_11h35.29.755,exp1,2023.1.0,59.98242512734008,
,,,,,,,,,,,,,,,,3,9.5,10,10.5,0,0,0.5,0.25,0.25,1.25,10,initial,36.05,342,361,379,0,0,9,9,9,0,0,,,,,,,2,0,2,0,0,33,33,5,,,,,,,,,,,,num_2,1.0266891999635845,num_2,0.3,1.6,0.25,0.8,9.55138,30.5644,return,2.9648783000884578,,,,,,,,,,,,,,,,,98,18,female,up_down_width,2024-10-18_11h35.29.755,exp1,2023.1.0,59.98242512734008,
,,,,,,,,,,,,,,,,4,9.25,9.75,10.25,10.75,0,0.5,0.25,0.25,1.75,10,initial,36.05,333,351,370,388,0,9,9,9,9,0,,,,,,,2,0,2,0,0,34,34,16,,,,,,,,,,,,num_4,1.3786322000669315,num_4,0.5,0.8,0.25000000000000006,0.7,9.55138,26.74385,return,3.600926600047387,,,,,,,,,,,,,,,,,98,18,female,up_down_width,2024-10-18_11h35.29.755,exp1,2023.1.0,59.98242512734008,
,,,,,,,,,,,,,,,,3,9.5,10,10.5,0,0,0.5,0.25,0.25,1.25,10,initial,36.05,342,361,379,0,0,9,9,9,0,0,,,,,,,2,0,2,0,0,35,35,29,,,,,,,,,,,,num_2,0.9661972000030801,num_2,0.3,1.6,0.25,0.7,9.55138,26.74385,return,4.270972200087272,,,,,,,,,,,,,,,,,98,18,female,up_down_width,2024-10-18_11h35.29.755,exp1,2023.1.0,59.98242512734008,
,,,,,,,,,,,,,,,,3,9.5,10,10.5,0,0,0.5,0.25,0.25,1.25,10,initial,36.05,342,361,379,0,0,9,9,9,0,0,,,,,,,2,0,2,0,0,36,36,28,,,,,,,,,,,,num_2,1.0056188999442384,num_2,0.2,0.8,0.25,0.7,9.55138,26.74385,return,2.7566474999766797,,,,,,,,,,,,,,,,,98,18,female,up_down_width,2024-10-18_11h35.29.755,exp1,2023.1.0,59.98242512734008,
,,,,,,,,,,,,,,,,5,9,9.5,10,10.5,11,0.5,0.25,0.25,2.25,10,initial,36.05,324,342,361,379,397,9,9,9,9,9,,,,,,,2,0,2,0,0,37,37,19,,,,,,,,,,,,num_6,1.977697999915108,num_6,0.4,1.2,0.20000000000000007,0.7,7.6411,26.74385,return,4.258216799935326,,,,,,,,,,,,,,,,,98,18,female,up_down_width,2024-10-18_11h35.29.755,exp1,2023.1.0,59.98242512734008,
,,,,,,,,,,,,,,,,3,9.5,10,10.5,0,0,0.5,0.25,0.25,1.25,10,initial,36.05,342,361,379,0,0,9,9,9,0,0,,,,,,,2,0,2,0,0,38,38,8,,,,,,,,,,,,num_2,0.8850187999196351,num_2,0.35,1.2,0.25,1.0,9.55138,38.2055,return,2.126006199978292,,,,,,,,,,,,,,,,,98,18,female,up_down_width,2024-10-18_11h35.29.755,exp1,2023.1.0,59.98242512734008,
,,,,,,,,,,,,,,,,3,9.5,10,10.5,0,0,0.5,0.25,0.25,1.25,10,initial,36.05,342,361,379,0,0,9,9,9,0,0,,,,,,,2,0,2,0,0,39,39,30,,,,,,,,,,,,num_2,1.2473317999392748,num_2,0.4,1.4,0.25000000000000006,0.9,9.55138,34.38495,return,2.4928785000229254,,,,,,,,,,,,,,,,,98,18,female,up_down_width,2024-10-18_11h35.29.755,exp1,2023.1.0,59.98242512734008,
,,,,,,,,,,,,,,,,5,9,9.5,10,10.5,11,0.5,0.25,0.25,2.25,10,initial,36.05,324,342,361,379,397,9,9,9,9,9,,,,,,,2,0,2,0,0,40,40,20,,,,,,,,,,,,num_5,1.8559975000098348,num_5,0.5,1.2,0.30000000000000004,0.9,11.46165,34.38495,return,3.566499999957159,,,,,,,,,,,,,,,,,98,18,female,up_down_width,2024-10-18_11h35.29.755,exp1,2023.1.0,59.98242512734008,
,,,,,,,,,,,,,,,,3,9.5,10,10.5,0,0,0.5,0.25,0.25,1.25,10,initial,36.05,342,361,379,0,0,9,9,9,0,0,,,,,,,2,0,2,0,0,41,41,1,,,,,,,,,,,,num_2,1.0326879000058398,num_2,0.25,1.6,0.3,0.7,11.46165,26.74385,return,3.3058710999321193,,,,,,,,,,,,,,,,,98,18,female,up_down_width,2024-10-18_11h35.29.755,exp1,2023.1.0,59.98242512734008,
,,,,,,,,,,,,,,,,5,9,9.5,10,10.5,11,0.5,0.25,0.25,2.25,10,initial,36.05,324,342,361,379,397,9,9,9,9,9,,,,,,,2,0,2,0,0,42,42,51,,,,,,,,,,,,num_5,1.3827839000150561,num_5,0.35,0.4,0.3,0.7,11.46165,26.74385,return,4.426883400068618,,,,,,,,,,,,,,,,,98,18,female,up_down_width,2024-10-18_11h35.29.755,exp1,2023.1.0,59.98242512734008,
,,,,,,,,,,,,,,,,3,9.5,10,10.5,0,0,0.5,0.25,0.25,1.25,10,initial,36.05,342,361,379,0,0,9,9,9,0,0,,,,,,,2,0,2,0,0,43,43,4,,,,,,,,,,,,num_2,0.8363767999690026,num_2,0.2,0.6,0.25,0.6,9.55138,22.9233,return,2.435226000030525,,,,,,,,,,,,,,,,,98,18,female,up_down_width,2024-10-18_11h35.29.755,exp1,2023.1.0,59.98242512734008,
,,,,,,,,,,,,,,,,3,9.5,10,10.5,0,0,0.5,0.25,0.25,1.25,10,initial,36.05,342,361,379,0,0,9,9,9,0,0,,,,,,,2,0,2,0,0,44,44,0,,,,,,,,,,,,num_2,0.9324803999625146,num_2,0.5,0.8,0.30000000000000004,0.7,11.46165,26.74385,return,3.176819199929014,,,,,,,,,,,,,,,,,98,18,female,up_down_width,2024-10-18_11h35.29.755,exp1,2023.1.0,59.98242512734008,
,,,,,,,,,,,,,,,,4,9.25,9.75,10.25,10.75,0,0.5,0.25,0.25,1.75,10,initial,36.05,333,351,370,388,0,9,9,9,9,0,,,,,,,2,0,2,0,0,45,45,38,,,,,,,,,,,,num_5,1.528836999903433,num_5,0.3,0.9,0.25,0.6,9.55138,22.9233,return,3.7311955000041053,,,,,,,,,,,,,,,,,98,18,female,up_down_width,2024-10-18_11h35.29.755,exp1,2023.1.0,59.98242512734008,
,,,,,,,,,,,,,,,,5,9,9.5,10,10.5,11,0.5,0.25,0.25,2.25,10,initial,36.05,324,342,361,379,397,9,9,9,9,9,,,,,,,2,0,2,0,0,46,46,45,,,,,,,,,,,,num_6,1.2084706999594346,num_6,0.3,0.9,0.2,0.6,7.6411,22.9233,return,3.4391010999679565,,,,,,,,,,,,,,,,,98,18,female,up_down_width,2024-10-18_11h35.29.755,exp1,2023.1.0,59.98242512734008,
,,,,,,,,,,,,,,,,5,9,9.5,10,10.5,11,0.5,0.25,0.25,2.25,10,initial,36.05,324,342,361,379,397,9,9,9,9,9,,,,,,,2,0,2,0,0,47,47,21,,,,,,,,,,,,num_6,1.7265890999697149,num_6,0.55,1.1,0.25000000000000006,0.7,9.55138,26.74385,return,7.784328700043261,,,,,,,,,,,,,,,,,98,18,female,up_down_width,2024-10-18_11h35.29.755,exp1,2023.1.0,59.98242512734008,
,,,,,,,,,,,,,,,,4,9.25,9.75,10.25,10.75,0,0.5,0.25,0.25,1.75,10,initial,36.05,333,351,370,388,0,9,9,9,9,0,,,,,,,2,0,2,0,0,48,48,14,,,,,,,,,,,,num_4,1.4491103999316692,num_4,0.55,1.3,0.4,0.8,15.2822,30.5644,return,3.5818960000760853,,,,,,,,,,,,,,,,,98,18,female,up_down_width,2024-10-18_11h35.29.755,exp1,2023.1.0,59.98242512734008,
,,,,,,,,,,,,,,,,4,9.25,9.75,10.25,10.75,0,0.5,0.25,0.25,1.75,10,initial,36.05,333,351,370,388,0,9,9,9,9,0,,,,,,,2,0,2,0,0,49,49,40,,,,,,,,,,,,num_4,1.1974480000790209,num_4,0.45,1.3,0.35000000000000003,0.8,13.37193,30.5644,return,2.5853314999258146,,,,,,,,,,,,,,,,,98,18,female,up_down_width,2024-10-18_11h35.29.755,exp1,2023.1.0,59.98242512734008,
,,,,,,,,,,,,,,,,5,9,9.5,10,10.5,11,0.5,0.25,0.25,2.25,10,initial,36.05,324,342,361,379,397,9,9,9,9,9,,,,,,,2,0,2,0,0,50,50,47,,,,,,,,,,,,num_6,1.3260334000224248,num_6,0.5,0.7,0.25000000000000006,0.5,9.55138,19.10275,return,3.6960786998970434,,,,,,,,,,,,,,,,,98,18,female,up_down_width,2024-10-18_11h35.29.755,exp1,2023.1.0,59.98242512734008,
,,,,,,,,,,,,,,,,4,9.25,9.75,10.25,10.75,0,0.5,0.25,0.25,1.75,10,initial,36.05,333,351,370,388,0,9,9,9,9,0,,,,,,,2,0,2,0,0,51,51,43,,,,,,,,,,,,num_4,1.0611889999127015,num_4,0.45,1.3,0.35000000000000003,0.8,13.37193,30.5644,return,4.709396699909121,,,,,,,,,,,,,,,,,98,18,female,up_down_width,2024-10-18_11h35.29.755,exp1,2023.1.0,59.98242512734008,
,,,,,,,,,,,,,,,,4,9.25,9.75,10.25,10.75,0,0.5,0.25,0.25,1.75,10,initial,36.05,333,351,370,388,0,9,9,9,9,0,,,,,,,2,0,2,0,0,52,52,9,,,,,,,,,,,,num_4,1.2942174000199884,num_4,0.2,0.9,0.3,0.6,11.46165,22.9233,return,2.761036599986255,,,,,,,,,,,,,,,,,98,18,female,up_down_width,2024-10-18_11h35.29.755,exp1,2023.1.0,59.98242512734008,
,,,,,,,,,,,,,,,,3,9.5,10,10.5,0,0,0.5,0.25,0.25,1.25,10,initial,36.05,342,361,379,0,0,9,9,9,0,0,,,,,,,2,0,2,0,0,53,53,7,,,,,,,,,,,,num_2,1.030945000005886,num_2,0.3,1.2,0.3,0.7,11.46165,26.74385,return,4.534285399946384,,,,,,,,,,,,,,,,,98,18,female,up_down_width,2024-10-18_11h35.29.755,exp1,2023.1.0,59.98242512734008,
,,,,,,,,,,,,,,,,,,,,,,,,,,,,,,,,,,,,,,,,,,,,,2,0,2,0,,,,,,,,,,,,,,,,,,,,,,,,,,,,,1694.7432459000265,1694.7432459000265,1694.7432459000265,,,,,,,,,,,,98,18,female,up_down_width,2024-10-18_11h35.29.755,exp1,2023.1.0,59.98242512734008,
,,,,,,,,,,,,,,,,3,9.1,10,10.9,0,0,0.9,0.35,0.55,2.35,10,initial,36.05,328,361,393,0,0,9,9,9,0,0,,,,,,,3,0,3,0,0,0,0,32,,,,,,,,,,,,num_2,0.9719159000087529,num_2,0.45,0.6,0.6000000000000001,1.1,22.9233,42.02605,return,4.643746899906546,,,,,,,,,,,,,,,,,98,18,female,up_down_width,2024-10-18_11h35.29.755,exp1,2023.1.0,59.98242512734008,
,,,,,,,,,,,,,,,,5,8.2,9.1,10,10.9,11.8,0.9,0.35,0.55,4.15,10,initial,36.05,296,328,361,393,425,9,9,9,9,9,,,,,,,3,0,3,0,0,1,1,51,,,,,,,,,,,,num_5,3.3394976999843493,num_5,0.3,1.1,0.6,1.15,22.9233,43.93633,return,4.545676799956709,,,,,,,,,,,,,,,,,98,18,female,up_down_width,2024-10-18_11h35.29.755,exp1,2023.1.0,59.98242512734008,
,,,,,,,,,,,,,,,,3,9.1,10,10.9,0,0,0.9,0.35,0.55,2.35,10,initial,36.05,328,361,393,0,0,9,9,9,0,0,,,,,,,3,0,3,0,0,2,2,29,,,,,,,,,,,,num_2,0.9885221000295132,num_2,0.25,1.2,0.5499999999999999,1.2,21.01303,45.8466,return,3.387035300023854,,,,,,,,,,,,,,,,,98,18,female,up_down_width,2024-10-18_11h35.29.755,exp1,2023.1.0,59.98242512734008,
,,,,,,,,,,,,,,,,5,8.2,9.1,10,10.9,11.8,0.9,0.35,0.55,4.15,10,initial,36.05,296,328,361,393,425,9,9,9,9,9,,,,,,,3,0,3,0,0,3,3,25,,,,,,,,,,,,num_5,1.332976600038819,num_5,0.2,0.4,0.5499999999999999,1.1,21.01303,42.02605,return,7.325709400000051,,,,,,,,,,,,,,,,,98,18,female,up_down_width,2024-10-18_11h35.29.755,exp1,2023.1.0,59.98242512734008,
,,,,,,,,,,,,,,,,4,8.65,9.55,10.45,11.35,0,0.9,0.35,0.55,3.25,10,initial,36.05,312,344,377,409,0,9,9,9,9,0,,,,,,,3,0,3,0,0,4,4,36,,,,,,,,,,,,num_4,0.9630242000566795,num_4,0.25,1.0,0.6,1.1,22.9233,42.02605,return,2.987991299945861,,,,,,,,,,,,,,,,,98,18,female,up_down_width,2024-10-18_11h35.29.755,exp1,2023.1.0,59.98242512734008,
,,,,,,,,,,,,,,,,5,8.2,9.1,10,10.9,11.8,0.9,0.35,0.55,4.15,10,initial,36.05,296,328,361,393,425,9,9,9,9,9,,,,,,,3,0,3,0,0,5,5,20,,,,,,,,,,,,num_5,2.0849457000149414,num_5,0.25,1.3,0.6,1.25,22.9233,47.75688,return,4.011335000046529,,,,,,,,,,,,,,,,,98,18,female,up_down_width,2024-10-18_11h35.29.755,exp1,2023.1.0,59.98242512734008,
,,,,,,,,,,,,,,,,5,8.2,9.1,10,10.9,11.8,0.9,0.35,0.55,4.15,10,initial,36.05,296,328,361,393,425,9,9,9,9,9,,,,,,,3,0,3,0,0,6,6,49,,,,,,,,,,,,num_6,1.7728145000291988,num_6,0.5,1.2,0.6500000000000001,1.2,24.83358,45.8466,return,2.3362685000756755,,,,,,,,,,,,,,,,,98,18,female,up_down_width,2024-10-18_11h35.29.755,exp1,2023.1.0,59.98242512734008,
,,,,,,,,,,,,,,,,4,8.65,9.55,10.45,11.35,0,0.9,0.35,0.55,3.25,10,initial,36.05,312,344,377,409,0,9,9,9,9,0,,,,,,,3,0,3,0,0,7,7,41,,,,,,,,,,,,num_4,1.0330620999448001,num_4,0.25,0.7,0.6,1.1,22.9233,42.02605,return,4.022025000071153,,,,,,,,,,,,,,,,,98,18,female,up_down_width,2024-10-18_11h35.29.755,exp1,2023.1.0,59.98242512734008,
,,,,,,,,,,,,,,,,3,9.1,10,10.9,0,0,0.9,0.35,0.55,2.35,10,initial,36.05,328,361,393,0,0,9,9,9,0,0,,,,,,,3,0,3,0,0,8,8,0,,,,,,,,,,,,num_2,0.9709176000906155,num_2,0.25,1.4,0.65,1.4,24.83358,53.48771,return,2.605788200045936,,,,,,,,,,,,,,,,,98,18,female,up_down_width,2024-10-18_11h35.29.755,exp1,2023.1.0,59.98242512734008,
,,,,,,,,,,,,,,,,4,8.65,9.55,10.45,11.35,0,0.9,0.35,0.55,3.25,10,initial,36.05,312,344,377,409,0,9,9,9,9,0,,,,,,,3,0,3,0,0,9,9,42,,,,,,,,,,,,num_4,1.0928765999851748,num_4,0.35,1.1,0.65,1.2,24.83358,45.8466,return,3.4958093999885023,,,,,,,,,,,,,,,,,98,18,female,up_down_width,2024-10-18_11h35.29.755,exp1,2023.1.0,59.98242512734008,
,,,,,,,,,,,,,,,,5,8.2,9.1,10,10.9,11.8,0.9,0.35,0.55,4.15,10,initial,36.05,296,328,361,393,425,9,9,9,9,9,,,,,,,3,0,3,0,0,10,10,46,,,,,,,,,,,,num_5,1.2295734999934211,num_5,0.4,0.7,0.6000000000000001,1.3,22.9233,49.66716,return,3.9276101000141352,,,,,,,,,,,,,,,,,98,18,female,up_down_width,2024-10-18_11h35.29.755,exp1,2023.1.0,59.98242512734008,
,,,,,,,,,,,,,,,,3,9.1,10,10.9,0,0,0.9,0.35,0.55,2.35,10,initial,36.05,328,361,393,0,0,9,9,9,0,0,,,,,,,3,0,3,0,0,11,11,28,,,,,,,,,,,,num_2,0.9676064000232145,num_2,0.2,1.0,0.6,1.3,22.9233,49.66716,return,5.576853699982166,,,,,,,,,,,,,,,,,98,18,female,up_down_width,2024-10-18_11h35.29.755,exp1,2023.1.0,59.98242512734008,
,,,,,,,,,,,,,,,,4,8.65,9.55,10.45,11.35,0,0.9,0.35,0.55,3.25,10,initial,36.05,312,344,377,409,0,9,9,9,9,0,,,,,,,3,0,3,0,0,12,12,12,,,,,,,,,,,,num_4,0.9829087998950854,num_4,0.5,1.2,0.6500000000000001,1.4,24.83358,53.48771,return,2.143529799999669,,,,,,,,,,,,,,,,,98,18,female,up_down_width,2024-10-18_11h35.29.755,exp1,2023.1.0,59.98242512734008,
,,,,,,,,,,,,,,,,3,9.1,10,10.9,0,0,0.9,0.35,0.55,2.35,10,initial,36.05,328,361,393,0,0,9,9,9,0,0,,,,,,,3,0,3,0,0,13,13,27,,,,,,,,,,,,num_2,0.9288337000180036,num_2,0.35,1.4,0.6,1.4,22.9233,53.48771,return,2.533195399912074,,,,,,,,,,,,,,,,,98,18,female,up_down_width,2024-10-18_11h35.29.755,exp1,2023.1.0,59.98242512734008,
,,,,,,,,,,,,,,,,5,8.2,9.1,10,10.9,11.8,0.9,0.35,0.55,4.15,10,initial,36.05,296,328,361,393,425,9,9,9,9,9,,,,,,,3,0,3,0,0,14,14,26,,,,,,,,,,,,num_5,1.0892917000455782,num_5,0.25,0.4,0.5499999999999999,1.05,21.01303,40.11578,return,6.227161099901423,,,,,,,,,,,,,,,,,98,18,female,up_down_width,2024-10-18_11h35.29.755,exp1,2023.1.0,59.98242512734008,
,,,,,,,,,,,,,,,,4,8.65,9.55,10.45,11.35,0,0.9,0.35,0.55,3.25,10,initial,36.05,312,344,377,409,0,9,9,9,9,0,,,,,,,3,0,3,0,0,15,15,38,,,,,,,,,,,,num_4,1.0327023999998346,num_4,0.2,1.3,0.7500000000000001,1.4,28.65413,53.48771,return,11.368115899967961,,,,,,,,,,,,,,,,,98,18,female,up_down_width,2024-10-18_11h35.29.755,exp1,2023.1.0,59.98242512734008,
,,,,,,,,,,,,,,,,5,8.2,9.1,10,10.9,11.8,0.9,0.35,0.55,4.15,10,initial,36.05,296,328,361,393,425,9,9,9,9,9,,,,,,,3,0,3,0,0,16,16,21,,,,,,,,,,,,num_5,1.141993899946101,num_5,0.35,0.4,0.6,1.35,22.9233,51.57743,return,6.038201599963941,,,,,,,,,,,,,,,,,98,18,female,up_down_width,2024-10-18_11h35.29.755,exp1,2023.1.0,59.98242512734008,
,,,,,,,,,,,,,,,,4,8.65,9.55,10.45,11.35,0,0.9,0.35,0.55,3.25,10,initial,36.05,312,344,377,409,0,9,9,9,9,0,,,,,,,3,0,3,0,0,17,17,11,,,,,,,,,,,,num_4,1.2777841000352055,num_4,0.55,1.2,0.7000000000000002,1.3,26.74385,49.66716,return,2.7275206999620423,,,,,,,,,,,,,,,,,98,18,female,up_down_width,2024-10-18_11h35.29.755,exp1,2023.1.0,59.98242512734008,
,,,,,,,,,,,,,,,,5,8.2,9.1,10,10.9,11.8,0.9,0.35,0.55,4.15,10,initial,36.05,296,328,361,393,425,9,9,9,9,9,,,,,,,3,0,3,0,0,18,18,50,,,,,,,,,,,,num_5,1.18201229989063,num_5,0.55,1.3,0.7000000000000002,1.35,26.74385,51.57743,return,2.6639226999832317,,,,,,,,,,,,,,,,,98,18,female,up_down_width,2024-10-18_11h35.29.755,exp1,2023.1.0,59.98242512734008,
,,,,,,,,,,,,,,,,5,8.2,9.1,10,10.9,11.8,0.9,0.35,0.55,4.15,10,initial,36.05,296,328,361,393,425,9,9,9,9,9,,,,,,,3,0,3,0,0,19,19,18,,,,,,,,,,,,num_5,2.2357262999285012,num_5,0.4,1.0,0.6500000000000001,1.4,24.83358,53.48771,return,4.108222699956968,,,,,,,,,,,,,,,,,98,18,female,up_down_width,2024-10-18_11h35.29.755,exp1,2023.1.0,59.98242512734008,
,,,,,,,,,,,,,,,,5,8.2,9.1,10,10.9,11.8,0.9,0.35,0.55,4.15,10,initial,36.05,296,328,361,393,425,9,9,9,9,9,,,,,,,3,0,3,0,0,20,20,47,,,,,,,,,,,,num_5,1.3579507999820635,num_5,0.2,1.0,0.7000000000000001,1.15,26.74385,43.93633,return,4.723794199991971,,,,,,,,,,,,,,,,,98,18,female,up_down_width,2024-10-18_11h35.29.755,exp1,2023.1.0,59.98242512734008,
,,,,,,,,,,,,,,,,4,8.65,9.55,10.45,11.35,0,0.9,0.35,0.55,3.25,10,initial,36.05,312,344,377,409,0,9,9,9,9,0,,,,,,,3,0,3,0,0,21,21,39,,,,,,,,,,,,num_4,0.9779853000072762,num_4,0.45,0.8,0.7000000000000002,1.4,26.74385,53.48771,return,3.875992099987343,,,,,,,,,,,,,,,,,98,18,female,up_down_width,2024-10-18_11h35.29.755,exp1,2023.1.0,59.98242512734008,
,,,,,,,,,,,,,,,,5,8.2,9.1,10,10.9,11.8,0.9,0.35,0.55,4.15,10,initial,36.05,296,328,361,393,425,9,9,9,9,9,,,,,,,3,0,3,0,0,22,22,45,,,,,,,,,,,,num_5,1.0869759001070634,num_5,0.5,1.0,0.6500000000000001,1.3,24.83358,49.66716,return,2.705874099978246,,,,,,,,,,,,,,,,,98,18,female,up_down_width,2024-10-18_11h35.29.755,exp1,2023.1.0,59.98242512734008,
,,,,,,,,,,,,,,,,3,9.1,10,10.9,0,0,0.9,0.35,0.55,2.35,10,initial,36.05,328,361,393,0,0,9,9,9,0,0,,,,,,,3,0,3,0,0,23,23,34,,,,,,,,,,,,num_2,0.8257548999972641,num_2,0.4,1.4,0.6500000000000001,1.5,24.83358,57.30826,return,3.199149399995804,,,,,,,,,,,,,,,,,98,18,female,up_down_width,2024-10-18_11h35.29.755,exp1,2023.1.0,59.98242512734008,
,,,,,,,,,,,,,,,,4,8.65,9.55,10.45,11.35,0,0.9,0.35,0.55,3.25,10,initial,36.05,312,344,377,409,0,9,9,9,9,0,,,,,,,3,0,3,0,0,24,24,15,,,,,,,,,,,,num_4,1.1912444999907166,num_4,0.25,0.8,0.5499999999999999,1.1,21.01303,42.02605,return,3.494581599952653,,,,,,,,,,,,,,,,,98,18,female,up_down_width,2024-10-18_11h35.29.755,exp1,2023.1.0,59.98242512734008,
,,,,,,,,,,,,,,,,3,9.1,10,10.9,0,0,0.9,0.35,0.55,2.35,10,initial,36.05,328,361,393,0,0,9,9,9,0,0,,,,,,,3,0,3,0,0,25,25,31,,,,,,,,,,,,num_2,0.9492977999616414,num_2,0.25,1.4,0.65,1.3,24.83358,49.66716,return,4.3507502999855205,,,,,,,,,,,,,,,,,98,18,female,up_down_width,2024-10-18_11h35.29.755,exp1,2023.1.0,59.98242512734008,
,,,,,,,,,,,,,,,,3,9.1,10,10.9,0,0,0.9,0.35,0.55,2.35,10,initial,36.05,328,361,393,0,0,9,9,9,0,0,,,,,,,3,0,3,0,0,26,26,8,,,,,,,,,,,,num_2,0.9849208999658003,num_2,0.35,0.4,0.6,1.3,22.9233,49.66716,return,4.97576060006395,,,,,,,,,,,,,,,,,98,18,female,up_down_width,2024-10-18_11h35.29.755,exp1,2023.1.0,59.98242512734008,
,,,,,,,,,,,,,,,,5,8.2,9.1,10,10.9,11.8,0.9,0.35,0.55,4.15,10,initial,36.05,296,328,361,393,425,9,9,9,9,9,,,,,,,3,0,3,0,0,27,27,23,,,,,,,,,,,,num_5,1.376793000032194,num_5,0.4,0.6,0.6000000000000001,1.2,22.9233,45.8466,return,4.598155600018799,,,,,,,,,,,,,,,,,98,18,female,up_down_width,2024-10-18_11h35.29.755,exp1,2023.1.0,59.98242512734008,
,,,,,,,,,,,,,,,,3,9.1,10,10.9,0,0,0.9,0.35,0.55,2.35,10,initial,36.05,328,361,393,0,0,9,9,9,0,0,,,,,,,3,0,3,0,0,28,28,5,,,,,,,,,,,,num_2,1.1081688000122085,num_2,0.35,0.4,0.65,1.2,24.83358,45.8466,return,4.6882829000242054,,,,,,,,,,,,,,,,,98,18,female,up_down_width,2024-10-18_11h35.29.755,exp1,2023.1.0,59.98242512734008,
,,,,,,,,,,,,,,,,3,9.1,10,10.9,0,0,0.9,0.35,0.55,2.35,10,initial,36.05,328,361,393,0,0,9,9,9,0,0,,,,,,,3,0,3,0,0,29,29,2,,,,,,,,,,,,num_2,0.9481567000038922,num_2,0.3,1.6,0.7000000000000001,1.1,26.74385,42.02605,return,4.156259199953638,,,,,,,,,,,,,,,,,98,18,female,up_down_width,2024-10-18_11h35.29.755,exp1,2023.1.0,59.98242512734008,
,,,,,,,,,,,,,,,,4,8.65,9.55,10.45,11.35,0,0.9,0.35,0.55,3.25,10,initial,36.05,312,344,377,409,0,9,9,9,9,0,,,,,,,3,0,3,0,0,30,30,13,,,,,,,,,,,,num_3,1.3926068999571726,num_3,0.25,0.9,0.65,1.1,24.83358,42.02605,return,4.583250900031999,,,,,,,,,,,,,,,,,98,18,female,up_down_width,2024-10-18_11h35.29.755,exp1,2023.1.0,59.98242512734008,
,,,,,,,,,,,,,,,,3,9.1,10,10.9,0,0,0.9,0.35,0.55,2.35,10,initial,36.05,328,361,393,0,0,9,9,9,0,0,,,,,,,3,0,3,0,0,31,31,35,,,,,,,,,,,,num_2,1.1815688000060618,num_2,0.4,0.8,0.6500000000000001,1.2,24.83358,45.8466,return,3.918278899975121,,,,,,,,,,,,,,,,,98,18,female,up_down_width,2024-10-18_11h35.29.755,exp1,2023.1.0,59.98242512734008,
,,,,,,,,,,,,,,,,5,8.2,9.1,10,10.9,11.8,0.9,0.35,0.55,4.15,10,initial,36.05,296,328,361,393,425,9,9,9,9,9,,,,,,,3,0,3,0,0,32,32,19,,,,,,,,,,,,num_5,1.9285721000051126,num_5,0.4,0.9,0.55,1.2,21.01303,45.8466,return,4.249269500025548,,,,,,,,,,,,,,,,,98,18,female,up_down_width,2024-10-18_11h35.29.755,exp1,2023.1.0,59.98242512734008,
,,,,,,,,,,,,,,,,3,9.1,10,10.9,0,0,0.9,0.35,0.55,2.35,10,initial,36.05,328,361,393,0,0,9,9,9,0,0,,,,,,,3,0,3,0,0,33,33,7,,,,,,,,,,,,num_2,0.9798095000442117,num_2,0.3,1.0,0.8000000000000002,1.6,30.5644,61.12881,return,5.621793400030583,,,,,,,,,,,,,,,,,98,18,female,up_down_width,2024-10-18_11h35.29.755,exp1,2023.1.0,59.98242512734008,
,,,,,,,,,,,,,,,,4,8.65,9.55,10.45,11.35,0,0.9,0.35,0.55,3.25,10,initial,36.05,312,344,377,409,0,9,9,9,9,0,,,,,,,3,0,3,0,0,34,34,16,,,,,,,,,,,,num_4,1.393391599995084,num_4,0.45,0.9,0.6000000000000001,1.6,22.9233,61.12881,return,3.7815187999513,,,,,,,,,,,,,,,,,98,18,female,up_down_width,2024-10-18_11h35.29.755,exp1,2023.1.0,59.98242512734008,
,,,,,,,,,,,,,,,,4,8.65,9.55,10.45,11.35,0,0.9,0.35,0.55,3.25,10,initial,36.05,312,344,377,409,0,9,9,9,9,0,,,,,,,3,0,3,0,0,35,35,43,,,,,,,,,,,,num_4,1.1892967999447137,num_4,0.3,0.4,0.6,1.3,22.9233,49.66716,return,4.465360699919984,,,,,,,,,,,,,,,,,98,18,female,up_down_width,2024-10-18_11h35.29.755,exp1,2023.1.0,59.98242512734008,
,,,,,,,,,,,,,,,,5,8.2,9.1,10,10.9,11.8,0.9,0.35,0.55,4.15,10,initial,36.05,296,328,361,393,425,9,9,9,9,9,,,,,,,3,0,3,0,0,36,36,48,,,,,,,,,,,,num_5,1.1563302000286058,num_5,0.2,1.3,0.65,1.35,24.83358,51.57743,return,3.759106299956329,,,,,,,,,,,,,,,,,98,18,female,up_down_width,2024-10-18_11h35.29.755,exp1,2023.1.0,59.98242512734008,
,,,,,,,,,,,,,,,,5,8.2,9.1,10,10.9,11.8,0.9,0.35,0.55,4.15,10,initial,36.05,296,328,361,393,425,9,9,9,9,9,,,,,,,3,0,3,0,0,37,37,24,,,,,,,,,,,,num_5,1.1256758999079466,num_5,0.2,0.9,0.5499999999999999,0.85,21.01303,32.47468,return,3.9882384000811726,,,,,,,,,,,,,,,,,98,18,female,up_down_width,2024-10-18_11h35.29.755,exp1,2023.1.0,59.98242512734008,
,,,,,,,,,,,,,,,,3,9.1,10,10.9,0,0,0.9,0.35,0.55,2.35,10,initial,36.05,328,361,393,0,0,9,9,9,0,0,,,,,,,3,0,3,0,0,38,38,4,,,,,,,,,,,,num_2,0.8484140000073239,num_2,0.5,0.8,0.7500000000000002,1.4,28.65413,53.48771,return,3.800239500007592,,,,,,,,,,,,,,,,,98,18,female,up_down_width,2024-10-18_11h35.29.755,exp1,2023.1.0,59.98242512734008,
,,,,,,,,,,,,,,,,3,9.1,10,10.9,0,0,0.9,0.35,0.55,2.35,10,initial,36.05,328,361,393,0,0,9,9,9,0,0,,,,,,,3,0,3,0,0,39,39,3,,,,,,,,,,,,num_2,1.0954467999981716,num_2,0.45,1.4,0.7000000000000002,1.4,26.74385,53.48771,return,2.6122347000055015,,,,,,,,,,,,,,,,,98,18,female,up_down_width,2024-10-18_11h35.29.755,exp1,2023.1.0,59.98242512734008,
,,,,,,,,,,,,,,,,4,8.65,9.55,10.45,11.35,0,0.9,0.35,0.55,3.25,10,initial,36.05,312,344,377,409,0,9,9,9,9,0,,,,,,,3,0,3,0,0,40,40,9,,,,,,,,,,,,num_4,1.167400199919939,num_4,0.35,0.4,0.6,1.0,22.9233,38.2055,return,4.060683299903758,,,,,,,,,,,,,,,,,98,18,female,up_down_width,2024-10-18_11h35.29.755,exp1,2023.1.0,59.98242512734008,
,,,,,,,,,,,,,,,,3,9.1,10,10.9,0,0,0.9,0.35,0.55,2.35,10,initial,36.05,328,361,393,0,0,9,9,9,0,0,,,,,,,3,0,3,0,0,41,41,6,,,,,,,,,,,,num_2,0.9821726001100615,num_2,0.55,1.6,0.6500000000000001,1.4,24.83358,53.48771,return,2.5182362000923604,,,,,,,,,,,,,,,,,98,18,female,up_down_width,2024-10-18_11h35.29.755,exp1,2023.1.0,59.98242512734008,
,,,,,,,,,,,,,,,,4,8.65,9.55,10.45,11.35,0,0.9,0.35,0.55,3.25,10,initial,36.05,312,344,377,409,0,9,9,9,9,0,,,,,,,3,0,3,0,0,42,42,37,,,,,,,,,,,,num_3,1.2416530000045896,num_3,0.3,1.3,0.65,1.25,24.83358,47.75688,return,3.159662800026126,,,,,,,,,,,,,,,,,98,18,female,up_down_width,2024-10-18_11h35.29.755,exp1,2023.1.0,59.98242512734008,
,,,,,,,,,,,,,,,,5,8.2,9.1,10,10.9,11.8,0.9,0.35,0.55,4.15,10,initial,36.05,296,328,361,393,425,9,9,9,9,9,,,,,,,3,0,3,0,0,43,43,22,,,,,,,,,,,,num_5,1.4897445000242442,num_5,0.3,0.5,0.49999999999999994,1.0,19.10275,38.2055,return,4.309580000001006,,,,,,,,,,,,,,,,,98,18,female,up_down_width,2024-10-18_11h35.29.755,exp1,2023.1.0,59.98242512734008,
,,,,,,,,,,,,,,,,4,8.65,9.55,10.45,11.35,0,0.9,0.35,0.55,3.25,10,initial,36.05,312,344,377,409,0,9,9,9,9,0,,,,,,,3,0,3,0,0,44,44,17,,,,,,,,,,,,num_4,1.327961100032553,num_4,0.35,0.8,0.5499999999999999,1.1,21.01303,42.02605,return,26.185505699948408,,,,,,,,,,,,,,,,,98,18,female,up_down_width,2024-10-18_11h35.29.755,exp1,2023.1.0,59.98242512734008,
,,,,,,,,,,,,,,,,3,9.1,10,10.9,0,0,0.9,0.35,0.55,2.35,10,initial,36.05,328,361,393,0,0,9,9,9,0,0,,,,,,,3,0,3,0,0,45,45,1,,,,,,,,,,,,num_2,1.0035553000634536,num_2,0.35,0.8,0.65,1.2,24.83358,45.8466,return,3.596922800061293,,,,,,,,,,,,,,,,,98,18,female,up_down_width,2024-10-18_11h35.29.755,exp1,2023.1.0,59.98242512734008,
,,,,,,,,,,,,,,,,5,8.2,9.1,10,10.9,11.8,0.9,0.35,0.55,4.15,10,initial,36.05,296,328,361,393,425,9,9,9,9,9,,,,,,,3,0,3,0,0,46,46,53,,,,,,,,,,,,num_5,1.119753499981016,num_5,0.3,0.9,0.5499999999999999,0.95,21.01303,36.29523,return,2.3528838000493124,,,,,,,,,,,,,,,,,98,18,female,up_down_width,2024-10-18_11h35.29.755,exp1,2023.1.0,59.98242512734008,
,,,,,,,,,,,,,,,,4,8.65,9.55,10.45,11.35,0,0.9,0.35,0.55,3.25,10,initial,36.05,312,344,377,409,0,9,9,9,9,0,,,,,,,3,0,3,0,0,47,47,44,,,,,,,,,,,,num_4,0.9071989000076428,num_4,0.3,0.9,0.5499999999999999,1.0,21.01303,38.2055,return,2.4058724999194965,,,,,,,,,,,,,,,,,98,18,female,up_down_width,2024-10-18_11h35.29.755,exp1,2023.1.0,59.98242512734008,
,,,,,,,,,,,,,,,,3,9.1,10,10.9,0,0,0.9,0.35,0.55,2.35,10,initial,36.05,328,361,393,0,0,9,9,9,0,0,,,,,,,3,0,3,0,0,48,48,33,,,,,,,,,,,,num_2,0.7994461000198498,num_2,0.2,1.6,0.49999999999999994,1.2,19.10275,45.8466,return,3.654191199922934,,,,,,,,,,,,,,,,,98,18,female,up_down_width,2024-10-18_11h35.29.755,exp1,2023.1.0,59.98242512734008,
,,,,,,,,,,,,,,,,4,8.65,9.55,10.45,11.35,0,0.9,0.35,0.55,3.25,10,initial,36.05,312,344,377,409,0,9,9,9,9,0,,,,,,,3,0,3,0,0,49,49,10,,,,,,,,,,,,num_4,1.6312898000469431,num_4,0.55,0.7,0.6000000000000001,1.1,22.9233,42.02605,return,2.422886800020933,,,,,,,,,,,,,,,,,98,18,female,up_down_width,2024-10-18_11h35.29.755,exp1,2023.1.0,59.98242512734008,
,,,,,,,,,,,,,,,,4,8.65,9.55,10.45,11.35,0,0.9,0.35,0.55,3.25,10,initial,36.05,312,344,377,409,0,9,9,9,9,0,,,,,,,3,0,3,0,0,50,50,40,,,,,,,,,,,,num_4,1.8106572999386117,num_4,0.3,1.3,0.49999999999999994,0.9,19.10275,34.38495,return,3.332331800018437,,,,,,,,,,,,,,,,,98,18,female,up_down_width,2024-10-18_11h35.29.755,exp1,2023.1.0,59.98242512734008,
,,,,,,,,,,,,,,,,5,8.2,9.1,10,10.9,11.8,0.9,0.35,0.55,4.15,10,initial,36.05,296,328,361,393,425,9,9,9,9,9,,,,,,,3,0,3,0,0,51,51,52,,,,,,,,,,,,num_5,1.018538200063631,num_5,0.35,0.4,0.49999999999999994,0.9,19.10275,34.38495,return,9.468338900012895,,,,,,,,,,,,,,,,,98,18,female,up_down_width,2024-10-18_11h35.29.755,exp1,2023.1.0,59.98242512734008,
,,,,,,,,,,,,,,,,4,8.65,9.55,10.45,11.35,0,0.9,0.35,0.55,3.25,10,initial,36.05,312,344,377,409,0,9,9,9,9,0,,,,,,,3,0,3,0,0,52,52,14,,,,,,,,,,,,num_4,1.4747861000942066,num_4,0.25,0.9,0.49999999999999994,0.9,19.10275,34.38495,return,3.474999100086279,,,,,,,,,,,,,,,,,98,18,female,up_down_width,2024-10-18_11h35.29.755,exp1,2023.1.0,59.98242512734008,
,,,,,,,,,,,,,,,,3,9.1,10,10.9,0,0,0.9,0.35,0.55,2.35,10,initial,36.05,328,361,393,0,0,9,9,9,0,0,,,,,,,3,0,3,0,0,53,53,30,,,,,,,,,,,,num_2,1.0043797999387607,num_2,0.3,0.8,0.5499999999999999,1.0,21.01303,38.2055,return,2.830140499980189,,,,,,,,,,,,,,,,,98,18,female,up_down_width,2024-10-18_11h35.29.755,exp1,2023.1.0,59.98242512734008,
,,,,,,,,,,,,,,,,,,,,,,,,,,,,,,,,,,,,,,,,,,,,,3,0,3,0,,,,,,,,,,,,,,,,,,,,,,,,,,,,,2184.8923793000868,2184.8923793000868,2184.8923793000868,,,,,,,,,,,,98,18,female,up_down_width,2024-10-18_11h35.29.755,exp1,2023.1.0,59.98242512734008,
,,,,,,,,,,,,,,,,4,9.25,9.75,10.25,10.75,0,0.5,0.1,0.4,1.9000000000000001,10,initial,36.05,333,351,370,388,0,9,9,9,9,0,,,,,,,4,0,4,0,0,0,0,42,,,,,,,,,,,,num_3,1.6411728999810293,num_3,0.35,0.4,0.35,0.45,13.37193,17.19248,return,2.37144390004687,,,,,,,,,,,,,,,,,98,18,female,up_down_width,2024-10-18_11h35.29.755,exp1,2023.1.0,59.98242512734008,
,,,,,,,,,,,,,,,,4,9.25,9.75,10.25,10.75,0,0.5,0.1,0.4,1.9000000000000001,10,initial,36.05,333,351,370,388,0,9,9,9,9,0,,,,,,,4,0,4,0,0,1,1,37,,,,,,,,,,,,num_3,1.2139438999583945,num_3,0.3,0.5,0.35,0.45,13.37193,17.19248,return,3.25695499998983,,,,,,,,,,,,,,,,,98,18,female,up_down_width,2024-10-18_11h35.29.755,exp1,2023.1.0,59.98242512734008,
,,,,,,,,,,,,,,,,4,9.25,9.75,10.25,10.75,0,0.5,0.1,0.4,1.9000000000000001,10,initial,36.05,333,351,370,388,0,9,9,9,9,0,,,,,,,4,0,4,0,0,2,2,41,,,,,,,,,,,,num_4,1.6673680000239983,num_4,0.45,0.6,0.4,0.5,15.2822,19.10275,return,3.516957900021225,,,,,,,,,,,,,,,,,98,18,female,up_down_width,2024-10-18_11h35.29.755,exp1,2023.1.0,59.98242512734008,
,,,,,,,,,,,,,,,,3,9.5,10,10.5,0,0,0.5,0.1,0.4,1.4000000000000001,10,initial,36.05,342,361,379,0,0,9,9,9,0,0,,,,,,,4,0,4,0,0,3,3,7,,,,,,,,,,,,num_2,0.9956903000129387,num_2,0.45,1.6,0.45,0.6,17.19248,22.9233,return,5.362917199963704,,,,,,,,,,,,,,,,,98,18,female,up_down_width,2024-10-18_11h35.29.755,exp1,2023.1.0,59.98242512734008,
,,,,,,,,,,,,,,,,4,9.25,9.75,10.25,10.75,0,0.5,0.1,0.4,1.9000000000000001,10,initial,36.05,333,351,370,388,0,9,9,9,9,0,,,,,,,4,0,4,0,0,4,4,17,,,,,,,,,,,,num_3,1.4828649999108166,num_3,0.45,0.6,0.45,0.5,17.19248,19.10275,return,2.089805700001307,,,,,,,,,,,,,,,,,98,18,female,up_down_width,2024-10-18_11h35.29.755,exp1,2023.1.0,59.98242512734008,
,,,,,,,,,,,,,,,,3,9.5,10,10.5,0,0,0.5,0.1,0.4,1.4000000000000001,10,initial,36.05,342,361,379,0,0,9,9,9,0,0,,,,,,,4,0,4,0,0,5,5,32,,,,,,,,,,,,num_2,1.0159533999394625,num_2,0.45,1.6,0.4,0.5,15.2822,19.10275,return,3.8040076999459416,,,,,,,,,,,,,,,,,98,18,female,up_down_width,2024-10-18_11h35.29.755,exp1,2023.1.0,59.98242512734008,
,,,,,,,,,,,,,,,,4,9.25,9.75,10.25,10.75,0,0.5,0.1,0.4,1.9000000000000001,10,initial,36.05,333,351,370,388,0,9,9,9,9,0,,,,,,,4,0,4,0,0,6,6,13,,,,,,,,,,,,num_3,1.1080024000257254,num_3,0.3,0.5,0.39999999999999997,0.5,15.2822,19.10275,return,2.5473877999465913,,,,,,,,,,,,,,,,,98,18,female,up_down_width,2024-10-18_11h35.29.755,exp1,2023.1.0,59.98242512734008,
,,,,,,,,,,,,,,,,4,9.25,9.75,10.25,10.75,0,0.5,0.1,0.4,1.9000000000000001,10,initial,36.05,333,351,370,388,0,9,9,9,9,0,,,,,,,4,0,4,0,0,7,7,36,,,,,,,,,,,,num_3,2.0744381000986323,num_3,0.55,0.6,0.45,0.55,17.19248,21.01303,return,2.9491920999716967,,,,,,,,,,,,,,,,,98,18,female,up_down_width,2024-10-18_11h35.29.755,exp1,2023.1.0,59.98242512734008,
,,,,,,,,,,,,,,,,5,9,9.5,10,10.5,11,0.5,0.1,0.4,2.4,10,initial,36.05,324,342,361,379,397,9,9,9,9,9,,,,,,,4,0,4,0,0,8,8,18,,,,,,,,,,,,num_5,1.9868956999853253,num_5,0.4,1.0,0.30000000000000004,0.4,11.46165,15.2822,return,7.519912700052373,,,,,,,,,,,,,,,,,98,18,female,up_down_width,2024-10-18_11h35.29.755,exp1,2023.1.0,59.98242512734008,
,,,,,,,,,,,,,,,,3,9.5,10,10.5,0,0,0.5,0.1,0.4,1.4000000000000001,10,initial,36.05,342,361,379,0,0,9,9,9,0,0,,,,,,,4,0,4,0,0,9,9,30,,,,,,,,,,,,num_2,1.03284200001508,num_2,0.3,0.6,0.39999999999999997,0.5,15.2822,19.10275,return,2.671100700041279,,,,,,,,,,,,,,,,,98,18,female,up_down_width,2024-10-18_11h35.29.755,exp1,2023.1.0,59.98242512734008,
,,,,,,,,,,,,,,,,5,9,9.5,10,10.5,11,0.5,0.1,0.4,2.4,10,initial,36.05,324,342,361,379,397,9,9,9,9,9,,,,,,,4,0,4,0,0,10,10,52,,,,,,,,,,,,num_5,1.444530799984932,num_5,0.4,1.1,0.35000000000000003,0.45,13.37193,17.19248,return,4.613483300083317,,,,,,,,,,,,,,,,,98,18,female,up_down_width,2024-10-18_11h35.29.755,exp1,2023.1.0,59.98242512734008,
,,,,,,,,,,,,,,,,4,9.25,9.75,10.25,10.75,0,0.5,0.1,0.4,1.9000000000000001,10,initial,36.05,333,351,370,388,0,9,9,9,9,0,,,,,,,4,0,4,0,0,11,11,11,,,,,,,,,,,,num_3,1.0763841000152752,num_3,0.35,0.4,0.39999999999999997,0.5,15.2822,19.10275,return,2.5469562999205664,,,,,,,,,,,,,,,,,98,18,female,up_down_width,2024-10-18_11h35.29.755,exp1,2023.1.0,59.98242512734008,
,,,,,,,,,,,,,,,,3,9.5,10,10.5,0,0,0.5,0.1,0.4,1.4000000000000001,10,initial,36.05,342,361,379,0,0,9,9,9,0,0,,,,,,,4,0,4,0,0,12,12,8,,,,,,,,,,,,num_2,0.8806067999685183,num_2,0.45,1.6,0.45,0.6,17.19248,22.9233,return,4.0233166998950765,,,,,,,,,,,,,,,,,98,18,female,up_down_width,2024-10-18_11h35.29.755,exp1,2023.1.0,59.98242512734008,
,,,,,,,,,,,,,,,,5,9,9.5,10,10.5,11,0.5,0.1,0.4,2.4,10,initial,36.05,324,342,361,379,397,9,9,9,9,9,,,,,,,4,0,4,0,0,13,13,19,,,,,,,,,,,,num_4,1.0851892998907715,num_4,0.2,1.0,0.39999999999999997,0.5,15.2822,19.10275,return,3.5494476000312716,,,,,,,,,,,,,,,,,98,18,female,up_down_width,2024-10-18_11h35.29.755,exp1,2023.1.0,59.98242512734008,
,,,,,,,,,,,,,,,,3,9.5,10,10.5,0,0,0.5,0.1,0.4,1.4000000000000001,10,initial,36.05,342,361,379,0,0,9,9,9,0,0,,,,,,,4,0,4,0,0,14,14,34,,,,,,,,,,,,num_2,1.284406799939461,num_2,0.25,1.0,0.39999999999999997,0.5,15.2822,19.10275,return,3.8813174000242725,,,,,,,,,,,,,,,,,98,18,female,up_down_width,2024-10-18_11h35.29.755,exp1,2023.1.0,59.98242512734008,
,,,,,,,,,,,,,,,,5,9,9.5,10,10.5,11,0.5,0.1,0.4,2.4,10,initial,36.05,324,342,361,379,397,9,9,9,9,9,,,,,,,4,0,4,0,0,15,15,20,,,,,,,,,,,,num_4,1.0936385000823066,num_4,0.35,0.6,0.39999999999999997,0.5,15.2822,19.10275,return,2.868413900025189,,,,,,,,,,,,,,,,,98,18,female,up_down_width,2024-10-18_11h35.29.755,exp1,2023.1.0,59.98242512734008,
,,,,,,,,,,,,,,,,3,9.5,10,10.5,0,0,0.5,0.1,0.4,1.4000000000000001,10,initial,36.05,342,361,379,0,0,9,9,9,0,0,,,,,,,4,0,4,0,0,16,16,6,,,,,,,,,,,,num_2,0.8604652000358328,num_2,0.25,0.8,0.39999999999999997,0.5,15.2822,19.10275,return,2.6326647999230772,,,,,,,,,,,,,,,,,98,18,female,up_down_width,2024-10-18_11h35.29.755,exp1,2023.1.0,59.98242512734008,
,,,,,,,,,,,,,,,,4,9.25,9.75,10.25,10.75,0,0.5,0.1,0.4,1.9000000000000001,10,initial,36.05,333,351,370,388,0,9,9,9,9,0,,,,,,,4,0,4,0,0,17,17,16,,,,,,,,,,,,num_3,1.0405882999766618,num_3,0.55,1.2,0.5,0.65,19.10275,24.83358,return,3.6344435999635607,,,,,,,,,,,,,,,,,98,18,female,up_down_width,2024-10-18_11h35.29.755,exp1,2023.1.0,59.98242512734008,
,,,,,,,,,,,,,,,,4,9.25,9.75,10.25,10.75,0,0.5,0.1,0.4,1.9000000000000001,10,initial,36.05,333,351,370,388,0,9,9,9,9,0,,,,,,,4,0,4,0,0,18,18,38,,,,,,,,,,,,num_3,1.3299896999960765,num_3,0.5,1.1,0.45,0.6,17.19248,22.9233,return,3.067541400087066,,,,,,,,,,,,,,,,,98,18,female,up_down_width,2024-10-18_11h35.29.755,exp1,2023.1.0,59.98242512734008,
,,,,,,,,,,,,,,,,5,9,9.5,10,10.5,11,0.5,0.1,0.4,2.4,10,initial,36.05,324,342,361,379,397,9,9,9,9,9,,,,,,,4,0,4,0,0,19,19,26,,,,,,,,,,,,num_5,1.6182151000248268,num_5,0.55,1.3,0.5,0.6,19.10275,22.9233,return,4.464637099998072,,,,,,,,,,,,,,,,,98,18,female,up_down_width,2024-10-18_11h35.29.755,exp1,2023.1.0,59.98242512734008,
,,,,,,,,,,,,,,,,5,9,9.5,10,10.5,11,0.5,0.1,0.4,2.4,10,initial,36.05,324,342,361,379,397,9,9,9,9,9,,,,,,,4,0,4,0,0,20,20,50,,,,,,,,,,,,num_4,1.0824917000718415,num_4,0.4,1.3,0.35000000000000003,0.5,13.37193,19.10275,return,3.068324699997902,,,,,,,,,,,,,,,,,98,18,female,up_down_width,2024-10-18_11h35.29.755,exp1,2023.1.0,59.98242512734008,
,,,,,,,,,,,,,,,,4,9.25,9.75,10.25,10.75,0,0.5,0.1,0.4,1.9000000000000001,10,initial,36.05,333,351,370,388,0,9,9,9,9,0,,,,,,,4,0,4,0,0,21,21,39,,,,,,,,,,,,num_4,0.9895642000483349,num_4,0.35,0.5,0.39999999999999997,0.6,15.2822,22.9233,return,3.3273890999844298,,,,,,,,,,,,,,,,,98,18,female,up_down_width,2024-10-18_11h35.29.755,exp1,2023.1.0,59.98242512734008,
,,,,,,,,,,,,,,,,3,9.5,10,10.5,0,0,0.5,0.1,0.4,1.4000000000000001,10,initial,36.05,342,361,379,0,0,9,9,9,0,0,,,,,,,4,0,4,0,0,22,22,1,,,,,,,,,,,,num_2,0.9127438000869006,num_2,0.4,1.6,0.45,0.6,17.19248,22.9233,return,3.6995754999807104,,,,,,,,,,,,,,,,,98,18,female,up_down_width,2024-10-18_11h35.29.755,exp1,2023.1.0,59.98242512734008,
,,,,,,,,,,,,,,,,3,9.5,10,10.5,0,0,0.5,0.1,0.4,1.4000000000000001,10,initial,36.05,342,361,379,0,0,9,9,9,0,0,,,,,,,4,0,4,0,0,23,23,28,,,,,,,,,,,,num_2,0.8684002000372857,num_2,0.35,0.6,0.39999999999999997,0.6,15.2822,22.9233,return,2.2229957999661565,,,,,,,,,,,,,,,,,98,18,female,up_down_width,2024-10-18_11h35.29.755,exp1,2023.1.0,59.98242512734008,
,,,,,,,,,,,,,,,,4,9.25,9.75,10.25,10.75,0,0.5,0.1,0.4,1.9000000000000001,10,initial,36.05,333,351,370,388,0,9,9,9,9,0,,,,,,,4,0,4,0,0,24,24,12,,,,,,,,,,,,num_3,1.240381499985233,num_3,0.55,1.2,0.5,0.65,19.10275,24.83358,return,3.297332899994217,,,,,,,,,,,,,,,,,98,18,female,up_down_width,2024-10-18_11h35.29.755,exp1,2023.1.0,59.98242512734008,
,,,,,,,,,,,,,,,,3,9.5,10,10.5,0,0,0.5,0.1,0.4,1.4000000000000001,10,initial,36.05,342,361,379,0,0,9,9,9,0,0,,,,,,,4,0,4,0,0,25,25,27,,,,,,,,,,,,num_2,1.1218006999697536,num_2,0.55,1.6,0.5,0.6,19.10275,22.9233,return,6.097120099933818,,,,,,,,,,,,,,,,,98,18,female,up_down_width,2024-10-18_11h35.29.755,exp1,2023.1.0,59.98242512734008,
,,,,,,,,,,,,,,,,5,9,9.5,10,10.5,11,0.5,0.1,0.4,2.4,10,initial,36.05,324,342,361,379,397,9,9,9,9,9,,,,,,,4,0,4,0,0,26,26,25,,,,,,,,,,,,num_4,0.9162996000377461,num_4,0.55,1.2,0.55,0.7,21.01303,26.74385,return,2.8312217000639066,,,,,,,,,,,,,,,,,98,18,female,up_down_width,2024-10-18_11h35.29.755,exp1,2023.1.0,59.98242512734008,
,,,,,,,,,,,,,,,,4,9.25,9.75,10.25,10.75,0,0.5,0.1,0.4,1.9000000000000001,10,initial,36.05,333,351,370,388,0,9,9,9,9,0,,,,,,,4,0,4,0,0,27,27,14,,,,,,,,,,,,num_3,2.302171800052747,num_3,0.5,1.3,0.55,0.7,21.01303,26.74385,return,15.313314299914055,,,,,,,,,,,,,,,,,98,18,female,up_down_width,2024-10-18_11h35.29.755,exp1,2023.1.0,59.98242512734008,
,,,,,,,,,,,,,,,,5,9,9.5,10,10.5,11,0.5,0.1,0.4,2.4,10,initial,36.05,324,342,361,379,397,9,9,9,9,9,,,,,,,4,0,4,0,0,28,28,47,,,,,,,,,,,,num_4,1.241902600042522,num_4,0.3,1.0,0.49999999999999994,0.6,19.10275,22.9233,return,4.946282200049609,,,,,,,,,,,,,,,,,98,18,female,up_down_width,2024-10-18_11h35.29.755,exp1,2023.1.0,59.98242512734008,
,,,,,,,,,,,,,,,,5,9,9.5,10,10.5,11,0.5,0.1,0.4,2.4,10,initial,36.05,324,342,361,379,397,9,9,9,9,9,,,,,,,4,0,4,0,0,29,29,51,,,,,,,,,,,,num_4,1.1547815999947488,num_4,0.55,1.2,0.55,0.7,21.01303,26.74385,return,3.1006389000685886,,,,,,,,,,,,,,,,,98,18,female,up_down_width,2024-10-18_11h35.29.755,exp1,2023.1.0,59.98242512734008,
,,,,,,,,,,,,,,,,5,9,9.5,10,10.5,11,0.5,0.1,0.4,2.4,10,initial,36.05,324,342,361,379,397,9,9,9,9,9,,,,,,,4,0,4,0,0,30,30,21,,,,,,,,,,,,num_4,1.621013299911283,num_4,0.35,1.2,0.44999999999999996,0.6,17.19248,22.9233,return,8.593908099923283,,,,,,,,,,,,,,,,,98,18,female,up_down_width,2024-10-18_11h35.29.755,exp1,2023.1.0,59.98242512734008,
,,,,,,,,,,,,,,,,5,9,9.5,10,10.5,11,0.5,0.1,0.4,2.4,10,initial,36.05,324,342,361,379,397,9,9,9,9,9,,,,,,,4,0,4,0,0,31,31,53,,,,,,,,,,,,num_4,0.9825654000742361,num_4,0.2,1.3,0.49999999999999994,0.7,19.10275,26.74385,return,4.874609300051816,,,,,,,,,,,,,,,,,98,18,female,up_down_width,2024-10-18_11h35.29.755,exp1,2023.1.0,59.98242512734008,
,,,,,,,,,,,,,,,,4,9.25,9.75,10.25,10.75,0,0.5,0.1,0.4,1.9000000000000001,10,initial,36.05,333,351,370,388,0,9,9,9,9,0,,,,,,,4,0,4,0,0,32,32,15,,,,,,,,,,,,num_3,1.231697800103575,num_3,0.4,0.8,0.5,0.65,19.10275,24.83358,return,2.453176800045185,,,,,,,,,,,,,,,,,98,18,female,up_down_width,2024-10-18_11h35.29.755,exp1,2023.1.0,59.98242512734008,
,,,,,,,,,,,,,,,,4,9.25,9.75,10.25,10.75,0,0.5,0.1,0.4,1.9000000000000001,10,initial,36.05,333,351,370,388,0,9,9,9,9,0,,,,,,,4,0,4,0,0,33,33,44,,,,,,,,,,,,num_3,0.9241195999784395,num_3,0.2,1.2,0.39999999999999997,0.45,15.2822,17.19248,return,5.541689199977554,,,,,,,,,,,,,,,,,98,18,female,up_down_width,2024-10-18_11h35.29.755,exp1,2023.1.0,59.98242512734008,
,,,,,,,,,,,,,,,,4,9.25,9.75,10.25,10.75,0,0.5,0.1,0.4,1.9000000000000001,10,initial,36.05,333,351,370,388,0,9,9,9,9,0,,,,,,,4,0,4,0,0,34,34,10,,,,,,,,,,,,num_3,1.0975571000017226,num_3,0.25,0.9,0.35,0.4,13.37193,15.2822,return,3.7687648000428453,,,,,,,,,,,,,,,,,98,18,female,up_down_width,2024-10-18_11h35.29.755,exp1,2023.1.0,59.98242512734008,
,,,,,,,,,,,,,,,,4,9.25,9.75,10.25,10.75,0,0.5,0.1,0.4,1.9000000000000001,10,initial,36.05,333,351,370,388,0,9,9,9,9,0,,,,,,,4,0,4,0,0,35,35,43,,,,,,,,,,,,num_3,1.5821205999236554,num_3,0.35,0.9,0.44999999999999996,0.55,17.19248,21.01303,return,3.466283000074327,,,,,,,,,,,,,,,,,98,18,female,up_down_width,2024-10-18_11h35.29.755,exp1,2023.1.0,59.98242512734008,
,,,,,,,,,,,,,,,,3,9.5,10,10.5,0,0,0.5,0.1,0.4,1.4000000000000001,10,initial,36.05,342,361,379,0,0,9,9,9,0,0,,,,,,,4,0,4,0,0,36,36,4,,,,,,,,,,,,num_2,1.0257724999682978,num_2,0.4,0.8,0.5,0.6,19.10275,22.9233,return,4.182963900035247,,,,,,,,,,,,,,,,,98,18,female,up_down_width,2024-10-18_11h35.29.755,exp1,2023.1.0,59.98242512734008,
,,,,,,,,,,,,,,,,4,9.25,9.75,10.25,10.75,0,0.5,0.1,0.4,1.9000000000000001,10,initial,36.05,333,351,370,388,0,9,9,9,9,0,,,,,,,4,0,4,0,0,37,37,9,,,,,,,,,,,,num_4,2.323407799936831,num_4,0.3,0.9,0.39999999999999997,0.5,15.2822,19.10275,return,3.4566575000062585,,,,,,,,,,,,,,,,,98,18,female,up_down_width,2024-10-18_11h35.29.755,exp1,2023.1.0,59.98242512734008,
,,,,,,,,,,,,,,,,5,9,9.5,10,10.5,11,0.5,0.1,0.4,2.4,10,initial,36.05,324,342,361,379,397,9,9,9,9,9,,,,,,,4,0,4,0,0,38,38,23,,,,,,,,,,,,num_4,1.4743295999942347,num_4,0.25,0.8,0.44999999999999996,0.5,17.19248,19.10275,return,4.630160499946214,,,,,,,,,,,,,,,,,98,18,female,up_down_width,2024-10-18_11h35.29.755,exp1,2023.1.0,59.98242512734008,
,,,,,,,,,,,,,,,,3,9.5,10,10.5,0,0,0.5,0.1,0.4,1.4000000000000001,10,initial,36.05,342,361,379,0,0,9,9,9,0,0,,,,,,,4,0,4,0,0,39,39,0,,,,,,,,,,,,num_2,1.1341182999312878,num_2,0.35,0.4,0.44999999999999996,0.6,17.19248,22.9233,return,4.191058999975212,,,,,,,,,,,,,,,,,98,18,female,up_down_width,2024-10-18_11h35.29.755,exp1,2023.1.0,59.98242512734008,
,,,,,,,,,,,,,,,,3,9.5,10,10.5,0,0,0.5,0.1,0.4,1.4000000000000001,10,initial,36.05,342,361,379,0,0,9,9,9,0,0,,,,,,,4,0,4,0,0,40,40,3,,,,,,,,,,,,num_2,0.9492453999118879,num_2,0.5,1.2,0.5,0.6,19.10275,22.9233,return,2.664642299991101,,,,,,,,,,,,,,,,,98,18,female,up_down_width,2024-10-18_11h35.29.755,exp1,2023.1.0,59.98242512734008,
,,,,,,,,,,,,,,,,5,9,9.5,10,10.5,11,0.5,0.1,0.4,2.4,10,initial,36.05,324,342,361,379,397,9,9,9,9,9,,,,,,,4,0,4,0,0,41,41,49,,,,,,,,,,,,num_5,1.2330393999582157,num_5,0.2,0.8,0.35,0.45,13.37193,17.19248,return,4.120921300025657,,,,,,,,,,,,,,,,,98,18,female,up_down_width,2024-10-18_11h35.29.755,exp1,2023.1.0,59.98242512734008,
,,,,,,,,,,,,,,,,3,9.5,10,10.5,0,0,0.5,0.1,0.4,1.4000000000000001,10,initial,36.05,342,361,379,0,0,9,9,9,0,0,,,,,,,4,0,4,0,0,42,42,33,,,,,,,,,,,,num_2,0.8425130000105128,num_2,0.25,0.8,0.39999999999999997,0.5,15.2822,19.10275,return,2.7406792999245226,,,,,,,,,,,,,,,,,98,18,female,up_down_width,2024-10-18_11h35.29.755,exp1,2023.1.0,59.98242512734008,
,,,,,,,,,,,,,,,,5,9,9.5,10,10.5,11,0.5,0.1,0.4,2.4,10,initial,36.05,324,342,361,379,397,9,9,9,9,9,,,,,,,4,0,4,0,0,43,43,22,,,,,,,,,,,,num_5,1.203433399903588,num_5,0.3,1.2,0.39999999999999997,0.5,15.2822,19.10275,return,4.95871429995168,,,,,,,,,,,,,,,,,98,18,female,up_down_width,2024-10-18_11h35.29.755,exp1,2023.1.0,59.98242512734008,
,,,,,,,,,,,,,,,,5,9,9.5,10,10.5,11,0.5,0.1,0.4,2.4,10,initial,36.05,324,342,361,379,397,9,9,9,9,9,,,,,,,4,0,4,0,0,44,44,24,,,,,,,,,,,,num_5,0.9110170999774709,num_5,0.45,0.7,0.45,0.6,17.19248,22.9233,return,11.529917299980298,,,,,,,,,,,,,,,,,98,18,female,up_down_width,2024-10-18_11h35.29.755,exp1,2023.1.0,59.98242512734008,
,,,,,,,,,,,,,,,,5,9,9.5,10,10.5,11,0.5,0.1,0.4,2.4,10,initial,36.05,324,342,361,379,397,9,9,9,9,9,,,,,,,4,0,4,0,0,45,45,46,,,,,,,,,,,,num_5,1.3342347999569029,num_5,0.25,0.7,0.35,0.45,13.37193,17.19248,return,2.8474255999317393,,,,,,,,,,,,,,,,,98,18,female,up_down_width,2024-10-18_11h35.29.755,exp1,2023.1.0,59.98242512734008,
,,,,,,,,,,,,,,,,4,9.25,9.75,10.25,10.75,0,0.5,0.1,0.4,1.9000000000000001,10,initial,36.05,333,351,370,388,0,9,9,9,9,0,,,,,,,4,0,4,0,0,46,46,40,,,,,,,,,,,,num_4,1.3697544001042843,num_4,0.2,0.8,0.49999999999999994,0.6,19.10275,22.9233,return,4.365166800096631,,,,,,,,,,,,,,,,,98,18,female,up_down_width,2024-10-18_11h35.29.755,exp1,2023.1.0,59.98242512734008,
,,,,,,,,,,,,,,,,3,9.5,10,10.5,0,0,0.5,0.1,0.4,1.4000000000000001,10,initial,36.05,342,361,379,0,0,9,9,9,0,0,,,,,,,4,0,4,0,0,47,47,2,,,,,,,,,,,,num_2,1.0130559999961406,num_2,0.35,1.2,0.44999999999999996,0.6,17.19248,22.9233,return,2.9023725000442937,,,,,,,,,,,,,,,,,98,18,female,up_down_width,2024-10-18_11h35.29.755,exp1,2023.1.0,59.98242512734008,
,,,,,,,,,,,,,,,,3,9.5,10,10.5,0,0,0.5,0.1,0.4,1.4000000000000001,10,initial,36.05,342,361,379,0,0,9,9,9,0,0,,,,,,,4,0,4,0,0,48,48,35,,,,,,,,,,,,num_2,0.8618676000041887,num_2,0.5,1.0,0.5,0.7,19.10275,26.74385,return,1.7543112999992445,,,,,,,,,,,,,,,,,98,18,female,up_down_width,2024-10-18_11h35.29.755,exp1,2023.1.0,59.98242512734008,
,,,,,,,,,,,,,,,,3,9.5,10,10.5,0,0,0.5,0.1,0.4,1.4000000000000001,10,initial,36.05,342,361,379,0,0,9,9,9,0,0,,,,,,,4,0,4,0,0,49,49,31,,,,,,,,,,,,num_2,0.8817037999397144,num_2,0.25,1.2,0.49999999999999994,0.7,19.10275,26.74385,return,3.5646160000469536,,,,,,,,,,,,,,,,,98,18,female,up_down_width,2024-10-18_11h35.29.755,exp1,2023.1.0,59.98242512734008,
,,,,,,,,,,,,,,,,5,9,9.5,10,10.5,11,0.5,0.1,0.4,2.4,10,initial,36.05,324,342,361,379,397,9,9,9,9,9,,,,,,,4,0,4,0,0,50,50,45,,,,,,,,,,,,num_5,1.0000126000959426,num_5,0.4,0.7,0.5,0.65,19.10275,24.83358,return,2.351585599943064,,,,,,,,,,,,,,,,,98,18,female,up_down_width,2024-10-18_11h35.29.755,exp1,2023.1.0,59.98242512734008,
,,,,,,,,,,,,,,,,3,9.5,10,10.5,0,0,0.5,0.1,0.4,1.4000000000000001,10,initial,36.05,342,361,379,0,0,9,9,9,0,0,,,,,,,4,0,4,0,0,51,51,29,,,,,,,,,,,,num_3,1.0992642999626696,num_3,0.45,0.8,0.45,0.6,17.19248,22.9233,return,3.565990399918519,,,,,,,,,,,,,,,,,98,18,female,up_down_width,2024-10-18_11h35.29.755,exp1,2023.1.0,59.98242512734008,
,,,,,,,,,,,,,,,,3,9.5,10,10.5,0,0,0.5,0.1,0.4,1.4000000000000001,10,initial,36.05,342,361,379,0,0,9,9,9,0,0,,,,,,,4,0,4,0,0,52,52,5,,,,,,,,,,,,num_2,0.8610313000390306,num_2,0.4,1.0,0.45,0.6,17.19248,22.9233,return,2.1636990000260994,,,,,,,,,,,,,,,,,98,18,female,up_down_width,2024-10-18_11h35.29.755,exp1,2023.1.0,59.98242512734008,
,,,,,,,,,,,,,,,,5,9,9.5,10,10.5,11,0.5,0.1,0.4,2.4,10,initial,36.05,324,342,361,379,397,9,9,9,9,9,,,,,,,4,0,4,0,0,53,53,48,,,,,,,,,,,,num_4,0.9655702000018209,num_4,0.2,0.7,0.39999999999999997,0.5,15.2822,19.10275,return,3.3342571000102907,,,,,,,,,,,,,,,,,98,18,female,up_down_width,2024-10-18_11h35.29.755,exp1,2023.1.0,59.98242512734008,
,,,,,,,,,,,,,,,,,,,,,,,,,,,,,,,,,,,,,,,,,,,,,4,0,4,0,,,,,,,,,,,,,,,,,,,,,,,,,,,,,2638.7244678999996,2638.7244678999996,2638.7244678999996,,,,,,,,,,,,98,18,female,up_down_width,2024-10-18_11h35.29.755,exp1,2023.1.0,59.98242512734008,
,,,,,,,,,,,,,,,,3,9.5,10,10.5,0,0,0.5,0.25,0.25,1.25,10,initial,36.05,342,361,379,0,0,9,9,9,0,0,,,,,,,5,0,5,0,0,0,0,32,,,,,,,,,,,,num_2,1.3344989999895915,num_2,0.3,1.4,0.3,0.8,11.46165,30.5644,return,2.6504977999720722,,,,,,,,,,,,,,,,,98,18,female,up_down_width,2024-10-18_11h35.29.755,exp1,2023.1.0,59.98242512734008,
,,,,,,,,,,,,,,,,5,9,9.5,10,10.5,11,0.5,0.25,0.25,2.25,10,initial,36.05,324,342,361,379,397,9,9,9,9,9,,,,,,,5,0,5,0,0,1,1,18,,,,,,,,,,,,num_4,0.9720254000276327,num_4,0.2,1.1,0.25,0.6,9.55138,22.9233,return,2.705583699978888,,,,,,,,,,,,,,,,,98,18,female,up_down_width,2024-10-18_11h35.29.755,exp1,2023.1.0,59.98242512734008,
,,,,,,,,,,,,,,,,3,9.5,10,10.5,0,0,0.5,0.25,0.25,1.25,10,initial,36.05,342,361,379,0,0,9,9,9,0,0,,,,,,,5,0,5,0,0,2,2,33,,,,,,,,,,,,num_2,0.932573499972932,num_2,0.35,1.4,0.25,0.9,9.55138,34.38495,return,2.6166963999858126,,,,,,,,,,,,,,,,,98,18,female,up_down_width,2024-10-18_11h35.29.755,exp1,2023.1.0,59.98242512734008,
,,,,,,,,,,,,,,,,4,9.25,9.75,10.25,10.75,0,0.5,0.25,0.25,1.75,10,initial,36.05,333,351,370,388,0,9,9,9,9,0,,,,,,,5,0,5,0,0,3,3,41,,,,,,,,,,,,num_4,2.1745666000060737,num_4,0.2,0.6,0.2,0.6,7.6411,22.9233,return,1.4422096000052989,,,,,,,,,,,,,,,,,98,18,female,up_down_width,2024-10-18_11h35.29.755,exp1,2023.1.0,59.98242512734008,
,,,,,,,,,,,,,,,,3,9.5,10,10.5,0,0,0.5,0.25,0.25,1.25,10,initial,36.05,342,361,379,0,0,9,9,9,0,0,,,,,,,5,0,5,0,0,4,4,0,,,,,,,,,,,,num_2,0.9339424000354484,num_2,0.4,1.0,0.25000000000000006,0.9,9.55138,34.38495,return,2.4307050000643358,,,,,,,,,,,,,,,,,98,18,female,up_down_width,2024-10-18_11h35.29.755,exp1,2023.1.0,59.98242512734008,
,,,,,,,,,,,,,,,,4,9.25,9.75,10.25,10.75,0,0.5,0.25,0.25,1.75,10,initial,36.05,333,351,370,388,0,9,9,9,9,0,,,,,,,5,0,5,0,0,5,5,40,,,,,,,,,,,,num_3,1.1684753999579698,num_3,0.3,0.7,0.2,0.7,7.6411,26.74385,return,2.044290899997577,,,,,,,,,,,,,,,,,98,18,female,up_down_width,2024-10-18_11h35.29.755,exp1,2023.1.0,59.98242512734008,
,,,,,,,,,,,,,,,,5,9,9.5,10,10.5,11,0.5,0.25,0.25,2.25,10,initial,36.05,324,342,361,379,397,9,9,9,9,9,,,,,,,5,0,5,0,0,6,6,49,,,,,,,,,,,,num_5,1.0307456000009552,num_5,0.25,0.8,0.15000000000000002,0.6,5.73083,22.9233,return,2.7141549999359995,,,,,,,,,,,,,,,,,98,18,female,up_down_width,2024-10-18_11h35.29.755,exp1,2023.1.0,59.98242512734008,
,,,,,,,,,,,,,,,,3,9.5,10,10.5,0,0,0.5,0.25,0.25,1.25,10,initial,36.05,342,361,379,0,0,9,9,9,0,0,,,,,,,5,0,5,0,0,7,7,30,,,,,,,,,,,,num_2,0.8679983000038192,num_2,0.45,1.4,0.25000000000000006,1.0,9.55138,38.2055,return,2.69776200002525,,,,,,,,,,,,,,,,,98,18,female,up_down_width,2024-10-18_11h35.29.755,exp1,2023.1.0,59.98242512734008,
,,,,,,,,,,,,,,,,5,9,9.5,10,10.5,11,0.5,0.25,0.25,2.25,10,initial,36.05,324,342,361,379,397,9,9,9,9,9,,,,,,,5,0,5,0,0,8,8,19,,,,,,,,,,,,num_5,1.0291963000781834,num_5,0.25,0.7,0.2,0.6,7.6411,22.9233,return,1.9622276000445709,,,,,,,,,,,,,,,,,98,18,female,up_down_width,2024-10-18_11h35.29.755,exp1,2023.1.0,59.98242512734008,
,,,,,,,,,,,,,,,,4,9.25,9.75,10.25,10.75,0,0.5,0.25,0.25,1.75,10,initial,36.05,333,351,370,388,0,9,9,9,9,0,,,,,,,5,0,5,0,0,9,9,44,,,,,,,,,,,,num_4,1.2035714000230655,num_4,0.4,1.1,0.20000000000000007,0.7,7.6411,26.74385,return,3.5052473000250757,,,,,,,,,,,,,,,,,98,18,female,up_down_width,2024-10-18_11h35.29.755,exp1,2023.1.0,59.98242512734008,
,,,,,,,,,,,,,,,,4,9.25,9.75,10.25,10.75,0,0.5,0.25,0.25,1.75,10,initial,36.05,333,351,370,388,0,9,9,9,9,0,,,,,,,5,0,5,0,0,10,10,14,,,,,,,,,,,,num_4,1.0589695000089705,num_4,0.2,0.9,0.2,0.6,7.6411,22.9233,return,1.655056199990213,,,,,,,,,,,,,,,,,98,18,female,up_down_width,2024-10-18_11h35.29.755,exp1,2023.1.0,59.98242512734008,
,,,,,,,,,,,,,,,,4,9.25,9.75,10.25,10.75,0,0.5,0.25,0.25,1.75,10,initial,36.05,333,351,370,388,0,9,9,9,9,0,,,,,,,5,0,5,0,0,11,11,13,,,,,,,,,,,,num_5,1.326370400027372,num_5,0.5,0.6,0.20000000000000007,0.65,7.6411,24.83358,return,4.994352699955925,,,,,,,,,,,,,,,,,98,18,female,up_down_width,2024-10-18_11h35.29.755,exp1,2023.1.0,59.98242512734008,
