amount_p,posx1_p,posx2_p,posx3_p,posx4_p,posx5_p,center_to_center_p,edge_to_edge_p,w_p,stim_length_p,eccentricity_p,line1_p,line2_p,line3_p,line4_p,line5_p,amount,posx1,posx2,posx3,posx4,posx5,center_to_center,edge_to_edge,w,stim_length,eccentricity,trial_type,deg_to_pix_index,posx1_in_pix,posx2_in_pix,posx3_in_pix,posx4_in_pix,posx5_in_pix,line1,line2,line3,line4,line5,posx,setsize_cobdi,trials.thisRepN,trials.thisTrialN,trials.thisN,trials.thisIndex,blocks.thisRepN,blocks.thisTrialN,blocks.thisN,blocks.thisIndex,loop.thisRepN,loop.thisTrialN,loop.thisN,loop.thisIndex,first.thisRepN,first.thisTrialN,first.thisN,first.thisIndex,second.thisRepN,second.thisTrialN,second.thisN,second.thisIndex,key_resp_3.started,key_resp_3.keys,key_resp_3.rt,key_resp.keys,key_resp.rt,response,starting_width_deg,starting_space_deg,response_width_degree,response_spacing_degree,response_width_pixel,response_spacing_pixel,next_5.keys,next_5.rt,key_resp_4.keys,key_resp_4.rt,text_3.started,text_4.started,key_resp_2.started,text_2.started,key_resp_2.keys,key_resp_2.rt,adjusting.started,next.keys,next.rt,text_control2.started,key_resp.started,key_resp.corr,text_bye.started,text_bye.stopped,participant,age,gender,resp_group,date,expName,psychopyVersion,frameRate,
,,,,,,,,,,,,,,,,,,,,,,,,,,,,,,,,,,,,,,,,,,,,,,,,,,,,,,,,,,,,,41.65138809988275,c,98.42516490002163,,,,,,,,,,,,,,,,,,,,,,,,,,,,911,24,female,up_down_width,2024-10-21_10h47.44.130,exp1,2023.1.0,60.204188594988665,
4,9.25,9.75,10.25,10.75,0,0.5,0.25,0.25,1.75,10,9,9,9,9,0,,,,,,,,,,,,,,,,,,,,,,,,,,0,0,0,1,,,,,,,,,,,,,,,,,,,,num_4,2.591365700121969,num_4,0.4,0.5,0.30000000000000004,0.5,11.46165,19.10275,return,16.3836780001875,,,,,,,,,,,,,,,,,911,24,female,up_down_width,2024-10-21_10h47.44.130,exp1,2023.1.0,60.204188594988665,
3,9.1,10,10.9,0,0,0.9,0.35,0.55,2.35,10,9,9,9,0,0,,,,,,,,,,,,,,,,,,,,,,,,,,0,1,1,3,,,,,,,,,,,,,,,,,,,,num_4,3.4827232002280653,num_4,0.3,1.3,0.35,0.6,13.37193,22.9233,return,11.09790200018324,,,,,,,,,,,,,,,,,911,24,female,up_down_width,2024-10-21_10h47.44.130,exp1,2023.1.0,60.204188594988665,
5,8.2,9.1,10,10.9,11.8,0.9,0.35,0.55,4.15,10,9,9,9,9,9,,,,,,,,,,,,,,,,,,,,,,,,,,0,2,2,2,,,,,,,,,,,,,,,,,,,,num_5,3.812219199957326,num_5,0.2,0.3,0.25,0.5,9.55138,19.10275,return,13.942577600246295,,,,,,,,,,,,,,,,,911,24,female,up_down_width,2024-10-21_10h47.44.130,exp1,2023.1.0,60.204188594988665,
3,9.5,10,10.5,0,0,0.5,0.25,0.25,1.25,10,9,9,9,0,0,,,,,,,,,,,,,,,,,,,,,,,,,,0,3,3,0,,,,,,,,,,,,,,,,,,,,num_3,2.719602200202644,num_3,0.35,0.5,0.25,0.5,9.55138,19.10275,return,4.829857600154355,,,,,,,,,,,,,,,,,911,24,female,up_down_width,2024-10-21_10h47.44.130,exp1,2023.1.0,60.204188594988665,
5,9,9.5,10,10.5,11,0.5,0.1,0.4,2.4,10,9,9,9,9,9,,,,,,,,,,,,,,,,,,,,,,,,,,0,4,4,5,,,,,,,,,,,,,,,,,,,,num_4,3.764090600190684,num_4,0.2,0.4,0.3,0.5,11.46165,19.10275,return,9.72344440012239,,,,,,,,,,,,,,,,,911,24,female,up_down_width,2024-10-21_10h47.44.130,exp1,2023.1.0,60.204188594988665,
4,9.25,9.75,10.25,10.75,0,0.5,0.1,0.4,1.9000000000000001,10,9,9,9,9,0,,,,,,,,,,,,,,,,,,,,,,,,,,0,5,5,4,,,,,,,,,,,,,,,,,,,,num_5,4.592737200204283,num_5,0.55,0.7,0.30000000000000004,0.45,11.46165,17.19248,return,9.043974700151011,,,,,,,,,,,,,,,,,911,24,female,up_down_width,2024-10-21_10h47.44.130,exp1,2023.1.0,60.204188594988665,
,,,,,,,,,,,,,,,,,,,,,,,,,,,,,,,,,,,,,,,,,,,,,,,,,,,,,,,,,,,,,,,,,,,,,,,,,,,c,123.83610440022312,,,,,,,,,,,,,,,911,24,female,up_down_width,2024-10-21_10h47.44.130,exp1,2023.1.0,60.204188594988665,
,,,,,,,,,,,,,,,,4,9.25,9.75,10.25,10.75,0,0.5,0.1,0.4,1.9000000000000001,10,initial,36.05,333,351,370,388,0,9,9,9,9,0,,,,,,,0,0,0,0,0,0,0,42,,,,,,,,,,,,num_4,1.0015849000774324,num_4,0.55,0.8,0.4,0.6,15.2822,22.9233,return,4.443086700048298,,,,,,,,,,,,,,,,,911,24,female,up_down_width,2024-10-21_10h47.44.130,exp1,2023.1.0,60.204188594988665,
,,,,,,,,,,,,,,,,5,9,9.5,10,10.5,11,0.5,0.1,0.4,2.4,10,initial,36.05,324,342,361,379,397,9,9,9,9,9,,,,,,,0,0,0,0,0,1,1,45,,,,,,,,,,,,num_4,2.2629184001125395,num_4,0.4,1.0,0.4,0.6,15.2822,22.9233,return,3.659343000035733,,,,,,,,,,,,,,,,,911,24,female,up_down_width,2024-10-21_10h47.44.130,exp1,2023.1.0,60.204188594988665,
,,,,,,,,,,,,,,,,5,9,9.5,10,10.5,11,0.5,0.1,0.4,2.4,10,initial,36.05,324,342,361,379,397,9,9,9,9,9,,,,,,,0,0,0,0,0,2,2,52,,,,,,,,,,,,num_5,2.537688500015065,num_5,0.2,1.1,0.25,0.4,9.55138,15.2822,return,9.837367900181562,,,,,,,,,,,,,,,,,911,24,female,up_down_width,2024-10-21_10h47.44.130,exp1,2023.1.0,60.204188594988665,
,,,,,,,,,,,,,,,,4,9.25,9.75,10.25,10.75,0,0.5,0.1,0.4,1.9000000000000001,10,initial,36.05,333,351,370,388,0,9,9,9,9,0,,,,,,,0,0,0,0,0,3,3,11,,,,,,,,,,,,num_4,1.376870600041002,num_4,0.2,0.9,0.3,0.4,11.46165,15.2822,return,9.208636100171134,,,,,,,,,,,,,,,,,911,24,female,up_down_width,2024-10-21_10h47.44.130,exp1,2023.1.0,60.204188594988665,
,,,,,,,,,,,,,,,,3,9.5,10,10.5,0,0,0.5,0.1,0.4,1.4000000000000001,10,initial,36.05,342,361,379,0,0,9,9,9,0,0,,,,,,,0,0,0,0,0,4,4,1,,,,,,,,,,,,num_3,1.9257892000023276,num_3,0.2,1.1,0.3,0.55,11.46165,21.01303,return,11.975079800002277,,,,,,,,,,,,,,,,,911,24,female,up_down_width,2024-10-21_10h47.44.130,exp1,2023.1.0,60.204188594988665,
,,,,,,,,,,,,,,,,5,9,9.5,10,10.5,11,0.5,0.1,0.4,2.4,10,initial,36.05,324,342,361,379,397,9,9,9,9,9,,,,,,,0,0,0,0,0,5,5,19,,,,,,,,,,,,num_5,1.3012139000929892,num_5,0.5,1.3,0.30000000000000004,0.5,11.46165,19.10275,return,14.735477200243622,,,,,,,,,,,,,,,,,911,24,female,up_down_width,2024-10-21_10h47.44.130,exp1,2023.1.0,60.204188594988665,
,,,,,,,,,,,,,,,,5,9,9.5,10,10.5,11,0.5,0.1,0.4,2.4,10,initial,36.05,324,342,361,379,397,9,9,9,9,9,,,,,,,0,0,0,0,0,6,6,53,,,,,,,,,,,,num_5,2.0102353000547737,num_5,0.4,0.6,0.35000000000000003,0.55,13.37193,21.01303,return,5.239683500025421,,,,,,,,,,,,,,,,,911,24,female,up_down_width,2024-10-21_10h47.44.130,exp1,2023.1.0,60.204188594988665,
,,,,,,,,,,,,,,,,5,9,9.5,10,10.5,11,0.5,0.1,0.4,2.4,10,initial,36.05,324,342,361,379,397,9,9,9,9,9,,,,,,,0,0,0,0,0,7,7,46,,,,,,,,,,,,num_4,2.8154258001595736,num_4,0.2,0.5,0.39999999999999997,0.6,15.2822,22.9233,return,5.289279400138184,,,,,,,,,,,,,,,,,911,24,female,up_down_width,2024-10-21_10h47.44.130,exp1,2023.1.0,60.204188594988665,
,,,,,,,,,,,,,,,,4,9.25,9.75,10.25,10.75,0,0.5,0.1,0.4,1.9000000000000001,10,initial,36.05,333,351,370,388,0,9,9,9,9,0,,,,,,,0,0,0,0,0,8,8,36,,,,,,,,,,,,num_4,2.251155000180006,num_4,0.35,1.1,0.35,0.6,13.37193,22.9233,return,5.882316200062633,,,,,,,,,,,,,,,,,911,24,female,up_down_width,2024-10-21_10h47.44.130,exp1,2023.1.0,60.204188594988665,
,,,,,,,,,,,,,,,,4,9.25,9.75,10.25,10.75,0,0.5,0.1,0.4,1.9000000000000001,10,initial,36.05,333,351,370,388,0,9,9,9,9,0,,,,,,,0,0,0,0,0,9,9,44,,,,,,,,,,,,num_4,1.271707400213927,num_4,0.35,1.1,0.35,0.6,13.37193,22.9233,return,5.599638500018045,,,,,,,,,,,,,,,,,911,24,female,up_down_width,2024-10-21_10h47.44.130,exp1,2023.1.0,60.204188594988665,
,,,,,,,,,,,,,,,,4,9.25,9.75,10.25,10.75,0,0.5,0.1,0.4,1.9000000000000001,10,initial,36.05,333,351,370,388,0,9,9,9,9,0,,,,,,,0,0,0,0,0,10,10,10,,,,,,,,,,,,num_4,1.6043407001998276,num_4,0.3,1.1,0.35,0.6,13.37193,22.9233,return,6.29988900013268,,,,,,,,,,,,,,,,,911,24,female,up_down_width,2024-10-21_10h47.44.130,exp1,2023.1.0,60.204188594988665,
,,,,,,,,,,,,,,,,3,9.5,10,10.5,0,0,0.5,0.1,0.4,1.4000000000000001,10,initial,36.05,342,361,379,0,0,9,9,9,0,0,,,,,,,0,0,0,0,0,11,11,4,,,,,,,,,,,,num_3,2.0884751002304256,num_3,0.45,0.6,0.45,0.6,17.19248,22.9233,return,1.186859300127253,,,,,,,,,,,,,,,,,911,24,female,up_down_width,2024-10-21_10h47.44.130,exp1,2023.1.0,60.204188594988665,
,,,,,,,,,,,,,,,,3,9.5,10,10.5,0,0,0.5,0.1,0.4,1.4000000000000001,10,initial,36.05,342,361,379,0,0,9,9,9,0,0,,,,,,,0,0,0,0,0,12,12,5,,,,,,,,,,,,num_3,2.646772400010377,num_3,0.35,0.5,0.35,0.5,13.37193,19.10275,return,0.8697378002107143,,,,,,,,,,,,,,,,,911,24,female,up_down_width,2024-10-21_10h47.44.130,exp1,2023.1.0,60.204188594988665,
,,,,,,,,,,,,,,,,5,9,9.5,10,10.5,11,0.5,0.1,0.4,2.4,10,initial,36.05,324,342,361,379,397,9,9,9,9,9,,,,,,,0,0,0,0,0,13,13,48,,,,,,,,,,,,num_5,1.477747700177133,num_5,0.5,0.6,0.45,0.6,17.19248,22.9233,return,4.422923200298101,,,,,,,,,,,,,,,,,911,24,female,up_down_width,2024-10-21_10h47.44.130,exp1,2023.1.0,60.204188594988665,
,,,,,,,,,,,,,,,,4,9.25,9.75,10.25,10.75,0,0.5,0.1,0.4,1.9000000000000001,10,initial,36.05,333,351,370,388,0,9,9,9,9,0,,,,,,,0,0,0,0,0,14,14,43,,,,,,,,,,,,num_3,2.257030500099063,num_3,0.2,1.1,0.35,0.6,13.37193,22.9233,return,9.20417150016874,,,,,,,,,,,,,,,,,911,24,female,up_down_width,2024-10-21_10h47.44.130,exp1,2023.1.0,60.204188594988665,
,,,,,,,,,,,,,,,,5,9,9.5,10,10.5,11,0.5,0.1,0.4,2.4,10,initial,36.05,324,342,361,379,397,9,9,9,9,9,,,,,,,0,0,0,0,0,15,15,22,,,,,,,,,,,,num_5,1.0950240001548082,num_5,0.4,0.7,0.35000000000000003,0.55,13.37193,21.01303,return,8.234869400039315,,,,,,,,,,,,,,,,,911,24,female,up_down_width,2024-10-21_10h47.44.130,exp1,2023.1.0,60.204188594988665,
,,,,,,,,,,,,,,,,5,9,9.5,10,10.5,11,0.5,0.1,0.4,2.4,10,initial,36.05,324,342,361,379,397,9,9,9,9,9,,,,,,,0,0,0,0,0,16,16,26,,,,,,,,,,,,num_4,1.4697305001318455,num_4,0.4,0.7,0.45,0.7,17.19248,26.74385,return,4.952466299990192,,,,,,,,,,,,,,,,,911,24,female,up_down_width,2024-10-21_10h47.44.130,exp1,2023.1.0,60.204188594988665,
,,,,,,,,,,,,,,,,3,9.5,10,10.5,0,0,0.5,0.1,0.4,1.4000000000000001,10,initial,36.05,342,361,379,0,0,9,9,9,0,0,,,,,,,0,0,0,0,0,17,17,0,,,,,,,,,,,,num_3,2.9757729000411928,num_3,0.3,0.9,0.39999999999999997,0.65,15.2822,24.83358,return,5.282175299944356,,,,,,,,,,,,,,,,,911,24,female,up_down_width,2024-10-21_10h47.44.130,exp1,2023.1.0,60.204188594988665,
,,,,,,,,,,,,,,,,3,9.5,10,10.5,0,0,0.5,0.1,0.4,1.4000000000000001,10,initial,36.05,342,361,379,0,0,9,9,9,0,0,,,,,,,0,0,0,0,0,18,18,2,,,,,,,,,,,,num_3,3.4130207002162933,num_3,0.2,0.4,0.35,0.5,13.37193,19.10275,return,3.8305073000956327,,,,,,,,,,,,,,,,,911,24,female,up_down_width,2024-10-21_10h47.44.130,exp1,2023.1.0,60.204188594988665,
,,,,,,,,,,,,,,,,5,9,9.5,10,10.5,11,0.5,0.1,0.4,2.4,10,initial,36.05,324,342,361,379,397,9,9,9,9,9,,,,,,,0,0,0,0,0,19,19,21,,,,,,,,,,,,num_4,1.0982325999066234,num_4,0.55,0.9,0.45,0.7,17.19248,26.74385,return,4.199304600246251,,,,,,,,,,,,,,,,,911,24,female,up_down_width,2024-10-21_10h47.44.130,exp1,2023.1.0,60.204188594988665,
,,,,,,,,,,,,,,,,4,9.25,9.75,10.25,10.75,0,0.5,0.1,0.4,1.9000000000000001,10,initial,36.05,333,351,370,388,0,9,9,9,9,0,,,,,,,0,0,0,0,0,20,20,15,,,,,,,,,,,,num_4,2.518540099961683,num_4,0.4,1.0,0.30000000000000004,0.6,11.46165,22.9233,return,7.248621500097215,,,,,,,,,,,,,,,,,911,24,female,up_down_width,2024-10-21_10h47.44.130,exp1,2023.1.0,60.204188594988665,
,,,,,,,,,,,,,,,,5,9,9.5,10,10.5,11,0.5,0.1,0.4,2.4,10,initial,36.05,324,342,361,379,397,9,9,9,9,9,,,,,,,0,0,0,0,0,21,21,18,,,,,,,,,,,,num_5,2.8227330001536757,num_5,0.3,1.2,0.3,0.5,11.46165,19.10275,return,5.889704000204802,,,,,,,,,,,,,,,,,911,24,female,up_down_width,2024-10-21_10h47.44.130,exp1,2023.1.0,60.204188594988665,
,,,,,,,,,,,,,,,,5,9,9.5,10,10.5,11,0.5,0.1,0.4,2.4,10,initial,36.05,324,342,361,379,397,9,9,9,9,9,,,,,,,0,0,0,0,0,22,22,23,,,,,,,,,,,,num_5,2.699334500124678,num_5,0.3,1.1,0.3,0.5,11.46165,19.10275,return,5.386680500116199,,,,,,,,,,,,,,,,,911,24,female,up_down_width,2024-10-21_10h47.44.130,exp1,2023.1.0,60.204188594988665,
,,,,,,,,,,,,,,,,3,9.5,10,10.5,0,0,0.5,0.1,0.4,1.4000000000000001,10,initial,36.05,342,361,379,0,0,9,9,9,0,0,,,,,,,0,0,0,0,0,23,23,35,,,,,,,,,,,,num_3,1.1976297001820058,num_3,0.55,0.6,0.35000000000000003,0.55,13.37193,21.01303,return,4.940021600108594,,,,,,,,,,,,,,,,,911,24,female,up_down_width,2024-10-21_10h47.44.130,exp1,2023.1.0,60.204188594988665,
,,,,,,,,,,,,,,,,5,9,9.5,10,10.5,11,0.5,0.1,0.4,2.4,10,initial,36.05,324,342,361,379,397,9,9,9,9,9,,,,,,,0,0,0,0,0,24,24,50,,,,,,,,,,,,num_4,2.7457867001648992,num_4,0.55,1.0,0.4,0.6,15.2822,22.9233,return,7.428708800114691,,,,,,,,,,,,,,,,,911,24,female,up_down_width,2024-10-21_10h47.44.130,exp1,2023.1.0,60.204188594988665,
,,,,,,,,,,,,,,,,5,9,9.5,10,10.5,11,0.5,0.1,0.4,2.4,10,initial,36.05,324,342,361,379,397,9,9,9,9,9,,,,,,,0,0,0,0,0,25,25,47,,,,,,,,,,,,num_5,1.551618100143969,num_5,0.5,0.9,0.35000000000000003,0.55,13.37193,21.01303,return,8.480148799950257,,,,,,,,,,,,,,,,,911,24,female,up_down_width,2024-10-21_10h47.44.130,exp1,2023.1.0,60.204188594988665,
,,,,,,,,,,,,,,,,3,9.5,10,10.5,0,0,0.5,0.1,0.4,1.4000000000000001,10,initial,36.05,342,361,379,0,0,9,9,9,0,0,,,,,,,0,0,0,0,0,26,26,6,,,,,,,,,,,,num_2,1.0382773999590427,num_2,0.35,1.6,0.35,0.5,13.37193,19.10275,return,7.699704400263727,,,,,,,,,,,,,,,,,911,24,female,up_down_width,2024-10-21_10h47.44.130,exp1,2023.1.0,60.204188594988665,
,,,,,,,,,,,,,,,,5,9,9.5,10,10.5,11,0.5,0.1,0.4,2.4,10,initial,36.05,324,342,361,379,397,9,9,9,9,9,,,,,,,0,0,0,0,0,27,27,49,,,,,,,,,,,,num_4,0.9845500001683831,num_4,0.45,0.6,0.35000000000000003,0.5,13.37193,19.10275,return,3.3408755001146346,,,,,,,,,,,,,,,,,911,24,female,up_down_width,2024-10-21_10h47.44.130,exp1,2023.1.0,60.204188594988665,
,,,,,,,,,,,,,,,,4,9.25,9.75,10.25,10.75,0,0.5,0.1,0.4,1.9000000000000001,10,initial,36.05,333,351,370,388,0,9,9,9,9,0,,,,,,,0,0,0,0,0,28,28,9,,,,,,,,,,,,num_3,1.3399981001857668,num_3,0.35,0.7,0.39999999999999997,0.6,15.2822,22.9233,return,6.023557200096548,,,,,,,,,,,,,,,,,911,24,female,up_down_width,2024-10-21_10h47.44.130,exp1,2023.1.0,60.204188594988665,
,,,,,,,,,,,,,,,,3,9.5,10,10.5,0,0,0.5,0.1,0.4,1.4000000000000001,10,initial,36.05,342,361,379,0,0,9,9,9,0,0,,,,,,,0,0,0,0,0,29,29,34,,,,,,,,,,,,num_2,3.6287710000760853,num_2,0.35,1.4,0.39999999999999997,0.6,15.2822,22.9233,return,8.980781700229272,,,,,,,,,,,,,,,,,911,24,female,up_down_width,2024-10-21_10h47.44.130,exp1,2023.1.0,60.204188594988665,
,,,,,,,,,,,,,,,,3,9.5,10,10.5,0,0,0.5,0.1,0.4,1.4000000000000001,10,initial,36.05,342,361,379,0,0,9,9,9,0,0,,,,,,,0,0,0,0,0,30,30,31,,,,,,,,,,,,num_2,1.3387085001450032,num_2,0.35,0.4,0.35,0.6,13.37193,22.9233,return,7.027765100123361,,,,,,,,,,,,,,,,,911,24,female,up_down_width,2024-10-21_10h47.44.130,exp1,2023.1.0,60.204188594988665,
,,,,,,,,,,,,,,,,4,9.25,9.75,10.25,10.75,0,0.5,0.1,0.4,1.9000000000000001,10,initial,36.05,333,351,370,388,0,9,9,9,9,0,,,,,,,0,0,0,0,0,31,31,16,,,,,,,,,,,,num_4,1.117981499992311,num_4,0.2,1.2,0.35,0.6,13.37193,22.9233,return,5.307046000147238,,,,,,,,,,,,,,,,,911,24,female,up_down_width,2024-10-21_10h47.44.130,exp1,2023.1.0,60.204188594988665,
,,,,,,,,,,,,,,,,4,9.25,9.75,10.25,10.75,0,0.5,0.1,0.4,1.9000000000000001,10,initial,36.05,333,351,370,388,0,9,9,9,9,0,,,,,,,0,0,0,0,0,32,32,13,,,,,,,,,,,,num_4,1.1064593999180943,num_4,0.45,1.1,0.45,0.6,17.19248,22.9233,return,3.7101305001415312,,,,,,,,,,,,,,,,,911,24,female,up_down_width,2024-10-21_10h47.44.130,exp1,2023.1.0,60.204188594988665,
,,,,,,,,,,,,,,,,3,9.5,10,10.5,0,0,0.5,0.1,0.4,1.4000000000000001,10,initial,36.05,342,361,379,0,0,9,9,9,0,0,,,,,,,0,0,0,0,0,33,33,8,,,,,,,,,,,,num_3,2.6800712002441287,num_3,0.25,0.4,0.35,0.6,13.37193,22.9233,return,10.369999300222844,,,,,,,,,,,,,,,,,911,24,female,up_down_width,2024-10-21_10h47.44.130,exp1,2023.1.0,60.204188594988665,
,,,,,,,,,,,,,,,,4,9.25,9.75,10.25,10.75,0,0.5,0.1,0.4,1.9000000000000001,10,initial,36.05,333,351,370,388,0,9,9,9,9,0,,,,,,,0,0,0,0,0,34,34,39,,,,,,,,,,,,num_4,3.5661694000009447,num_4,0.55,1.0,0.45,0.6,17.19248,22.9233,return,13.774430700112134,,,,,,,,,,,,,,,,,911,24,female,up_down_width,2024-10-21_10h47.44.130,exp1,2023.1.0,60.204188594988665,
,,,,,,,,,,,,,,,,3,9.5,10,10.5,0,0,0.5,0.1,0.4,1.4000000000000001,10,initial,36.05,342,361,379,0,0,9,9,9,0,0,,,,,,,0,0,0,0,0,35,35,28,,,,,,,,,,,,num_3,2.7250744001939893,num_3,0.5,0.6,0.4,0.6,15.2822,22.9233,return,3.217216700082645,,,,,,,,,,,,,,,,,911,24,female,up_down_width,2024-10-21_10h47.44.130,exp1,2023.1.0,60.204188594988665,
,,,,,,,,,,,,,,,,3,9.5,10,10.5,0,0,0.5,0.1,0.4,1.4000000000000001,10,initial,36.05,342,361,379,0,0,9,9,9,0,0,,,,,,,0,0,0,0,0,36,36,3,,,,,,,,,,,,num_2,1.569601699942723,num_2,0.55,1.0,0.4,0.6,15.2822,22.9233,return,5.455988000147045,,,,,,,,,,,,,,,,,911,24,female,up_down_width,2024-10-21_10h47.44.130,exp1,2023.1.0,60.204188594988665,
,,,,,,,,,,,,,,,,4,9.25,9.75,10.25,10.75,0,0.5,0.1,0.4,1.9000000000000001,10,initial,36.05,333,351,370,388,0,9,9,9,9,0,,,,,,,0,0,0,0,0,37,37,37,,,,,,,,,,,,num_4,1.6057226001285017,num_4,0.5,1.2,0.4,0.6,15.2822,22.9233,return,8.962960000149906,,,,,,,,,,,,,,,,,911,24,female,up_down_width,2024-10-21_10h47.44.130,exp1,2023.1.0,60.204188594988665,
,,,,,,,,,,,,,,,,3,9.5,10,10.5,0,0,0.5,0.1,0.4,1.4000000000000001,10,initial,36.05,342,361,379,0,0,9,9,9,0,0,,,,,,,0,0,0,0,0,38,38,29,,,,,,,,,,,,num_3,1.104428900172934,num_3,0.45,0.9,0.45,0.7,17.19248,26.74385,return,8.451745700091124,,,,,,,,,,,,,,,,,911,24,female,up_down_width,2024-10-21_10h47.44.130,exp1,2023.1.0,60.204188594988665,
,,,,,,,,,,,,,,,,3,9.5,10,10.5,0,0,0.5,0.1,0.4,1.4000000000000001,10,initial,36.05,342,361,379,0,0,9,9,9,0,0,,,,,,,0,0,0,0,0,39,39,32,,,,,,,,,,,,num_3,1.347042600158602,num_3,0.35,1.2,0.39999999999999997,0.6,15.2822,22.9233,return,7.77143230009824,,,,,,,,,,,,,,,,,911,24,female,up_down_width,2024-10-21_10h47.44.130,exp1,2023.1.0,60.204188594988665,
,,,,,,,,,,,,,,,,5,9,9.5,10,10.5,11,0.5,0.1,0.4,2.4,10,initial,36.05,324,342,361,379,397,9,9,9,9,9,,,,,,,0,0,0,0,0,40,40,25,,,,,,,,,,,,num_4,1.5983838001266122,num_4,0.25,1.0,0.49999999999999994,0.8,19.10275,30.5644,return,5.718933400232345,,,,,,,,,,,,,,,,,911,24,female,up_down_width,2024-10-21_10h47.44.130,exp1,2023.1.0,60.204188594988665,
,,,,,,,,,,,,,,,,5,9,9.5,10,10.5,11,0.5,0.1,0.4,2.4,10,initial,36.05,324,342,361,379,397,9,9,9,9,9,,,,,,,0,0,0,0,0,41,41,20,,,,,,,,,,,,num_5,1.4503009002655745,num_5,0.45,0.5,0.4,0.55,15.2822,21.01303,return,7.836459200130776,,,,,,,,,,,,,,,,,911,24,female,up_down_width,2024-10-21_10h47.44.130,exp1,2023.1.0,60.204188594988665,
,,,,,,,,,,,,,,,,3,9.5,10,10.5,0,0,0.5,0.1,0.4,1.4000000000000001,10,initial,36.05,342,361,379,0,0,9,9,9,0,0,,,,,,,0,0,0,0,0,42,42,27,,,,,,,,,,,,num_2,1.428380100056529,num_2,0.25,1.0,0.44999999999999996,0.7,17.19248,26.74385,return,10.133247300283983,,,,,,,,,,,,,,,,,911,24,female,up_down_width,2024-10-21_10h47.44.130,exp1,2023.1.0,60.204188594988665,
,,,,,,,,,,,,,,,,4,9.25,9.75,10.25,10.75,0,0.5,0.1,0.4,1.9000000000000001,10,initial,36.05,333,351,370,388,0,9,9,9,9,0,,,,,,,0,0,0,0,0,43,43,41,,,,,,,,,,,,num_4,1.2809176000300795,num_4,0.25,0.5,0.25,0.4,9.55138,15.2822,return,2.341071099974215,,,,,,,,,,,,,,,,,911,24,female,up_down_width,2024-10-21_10h47.44.130,exp1,2023.1.0,60.204188594988665,
,,,,,,,,,,,,,,,,5,9,9.5,10,10.5,11,0.5,0.1,0.4,2.4,10,initial,36.05,324,342,361,379,397,9,9,9,9,9,,,,,,,0,0,0,0,0,44,44,51,,,,,,,,,,,,num_5,1.9964899001643062,num_5,0.2,0.3,0.35,0.5,13.37193,19.10275,return,4.552279500057921,,,,,,,,,,,,,,,,,911,24,female,up_down_width,2024-10-21_10h47.44.130,exp1,2023.1.0,60.204188594988665,
,,,,,,,,,,,,,,,,3,9.5,10,10.5,0,0,0.5,0.1,0.4,1.4000000000000001,10,initial,36.05,342,361,379,0,0,9,9,9,0,0,,,,,,,0,0,0,0,0,45,45,33,,,,,,,,,,,,num_3,1.4427276002243161,num_3,0.5,1.2,0.4,0.6,15.2822,22.9233,return,11.208330700173974,,,,,,,,,,,,,,,,,911,24,female,up_down_width,2024-10-21_10h47.44.130,exp1,2023.1.0,60.204188594988665,
,,,,,,,,,,,,,,,,4,9.25,9.75,10.25,10.75,0,0.5,0.1,0.4,1.9000000000000001,10,initial,36.05,333,351,370,388,0,9,9,9,9,0,,,,,,,0,0,0,0,0,46,46,14,,,,,,,,,,,,num_4,1.240648000035435,num_4,0.55,1.1,0.4,0.7,15.2822,26.74385,return,10.290185900172219,,,,,,,,,,,,,,,,,911,24,female,up_down_width,2024-10-21_10h47.44.130,exp1,2023.1.0,60.204188594988665,
,,,,,,,,,,,,,,,,5,9,9.5,10,10.5,11,0.5,0.1,0.4,2.4,10,initial,36.05,324,342,361,379,397,9,9,9,9,9,,,,,,,0,0,0,0,0,47,47,24,,,,,,,,,,,,num_4,3.0733044003136456,num_4,0.2,1.1,0.39999999999999997,0.7,15.2822,26.74385,return,6.800674200057983,,,,,,,,,,,,,,,,,911,24,female,up_down_width,2024-10-21_10h47.44.130,exp1,2023.1.0,60.204188594988665,
,,,,,,,,,,,,,,,,4,9.25,9.75,10.25,10.75,0,0.5,0.1,0.4,1.9000000000000001,10,initial,36.05,333,351,370,388,0,9,9,9,9,0,,,,,,,0,0,0,0,0,48,48,17,,,,,,,,,,,,num_3,2.4601096000988036,num_3,0.4,1.3,0.45,0.65,17.19248,24.83358,return,7.573189500253648,,,,,,,,,,,,,,,,,911,24,female,up_down_width,2024-10-21_10h47.44.130,exp1,2023.1.0,60.204188594988665,
,,,,,,,,,,,,,,,,4,9.25,9.75,10.25,10.75,0,0.5,0.1,0.4,1.9000000000000001,10,initial,36.05,333,351,370,388,0,9,9,9,9,0,,,,,,,0,0,0,0,0,49,49,12,,,,,,,,,,,,num_4,1.2261930999811739,num_4,0.25,0.3,0.35,0.5,13.37193,19.10275,return,3.1411666001658887,,,,,,,,,,,,,,,,,911,24,female,up_down_width,2024-10-21_10h47.44.130,exp1,2023.1.0,60.204188594988665,
,,,,,,,,,,,,,,,,4,9.25,9.75,10.25,10.75,0,0.5,0.1,0.4,1.9000000000000001,10,initial,36.05,333,351,370,388,0,9,9,9,9,0,,,,,,,0,0,0,0,0,50,50,40,,,,,,,,,,,,num_4,0.8943704001139849,num_4,0.2,0.6,0.35,0.6,13.37193,22.9233,return,4.1326352001633495,,,,,,,,,,,,,,,,,911,24,female,up_down_width,2024-10-21_10h47.44.130,exp1,2023.1.0,60.204188594988665,
,,,,,,,,,,,,,,,,3,9.5,10,10.5,0,0,0.5,0.1,0.4,1.4000000000000001,10,initial,36.05,342,361,379,0,0,9,9,9,0,0,,,,,,,0,0,0,0,0,51,51,30,,,,,,,,,,,,num_3,1.1812349001411349,num_3,0.4,0.5,0.4,0.55,15.2822,21.01303,return,2.535833000205457,,,,,,,,,,,,,,,,,911,24,female,up_down_width,2024-10-21_10h47.44.130,exp1,2023.1.0,60.204188594988665,
,,,,,,,,,,,,,,,,4,9.25,9.75,10.25,10.75,0,0.5,0.1,0.4,1.9000000000000001,10,initial,36.05,333,351,370,388,0,9,9,9,9,0,,,,,,,0,0,0,0,0,52,52,38,,,,,,,,,,,,num_4,1.3517122000921518,num_4,0.55,0.6,0.45,0.6,17.19248,22.9233,return,4.332755600102246,,,,,,,,,,,,,,,,,911,24,female,up_down_width,2024-10-21_10h47.44.130,exp1,2023.1.0,60.204188594988665,
,,,,,,,,,,,,,,,,3,9.5,10,10.5,0,0,0.5,0.1,0.4,1.4000000000000001,10,initial,36.05,342,361,379,0,0,9,9,9,0,0,,,,,,,0,0,0,0,0,53,53,7,,,,,,,,,,,,num_3,1.568708899896592,num_3,0.2,1.2,0.49999999999999994,0.65,19.10275,24.83358,return,8.751612500054762,,,,,,,,,,,,,,,,,911,24,female,up_down_width,2024-10-21_10h47.44.130,exp1,2023.1.0,60.204188594988665,
,,,,,,,,,,,,,,,,,,,,,,,,,,,,,,,,,,,,,,,,,,,,,0,0,0,0,,,,,,,,,,,,,,,,,,,,,,,,,,,,,902.9530495000072,902.9530495000072,902.9530495000072,,,,,,,,,,,,911,24,female,up_down_width,2024-10-21_10h47.44.130,exp1,2023.1.0,60.204188594988665,
,,,,,,,,,,,,,,,,3,9.5,10,10.5,0,0,0.5,0.25,0.25,1.25,10,initial,36.05,342,361,379,0,0,9,9,9,0,0,,,,,,,1,0,1,0,0,0,0,4,,,,,,,,,,,,num_3,1.1766728002112359,num_3,0.55,0.6,0.35000000000000003,0.6,13.37193,22.9233,return,2.9997866002377123,,,,,,,,,,,,,,,,,911,24,female,up_down_width,2024-10-21_10h47.44.130,exp1,2023.1.0,60.204188594988665,
,,,,,,,,,,,,,,,,5,9,9.5,10,10.5,11,0.5,0.25,0.25,2.25,10,initial,36.05,324,342,361,379,397,9,9,9,9,9,,,,,,,1,0,1,0,0,1,1,26,,,,,,,,,,,,num_4,1.1281787001062185,num_4,0.25,0.9,0.25,0.5,9.55138,19.10275,return,2.409783000126481,,,,,,,,,,,,,,,,,911,24,female,up_down_width,2024-10-21_10h47.44.130,exp1,2023.1.0,60.204188594988665,
,,,,,,,,,,,,,,,,5,9,9.5,10,10.5,11,0.5,0.25,0.25,2.25,10,initial,36.05,324,342,361,379,397,9,9,9,9,9,,,,,,,1,0,1,0,0,2,2,22,,,,,,,,,,,,num_6,2.624741300009191,num_6,0.25,1.0,0.25,0.5,9.55138,19.10275,return,4.837908300105482,,,,,,,,,,,,,,,,,911,24,female,up_down_width,2024-10-21_10h47.44.130,exp1,2023.1.0,60.204188594988665,
,,,,,,,,,,,,,,,,5,9,9.5,10,10.5,11,0.5,0.25,0.25,2.25,10,initial,36.05,324,342,361,379,397,9,9,9,9,9,,,,,,,1,0,1,0,0,3,3,52,,,,,,,,,,,,num_6,2.597423299914226,num_6,0.5,0.9,0.25000000000000006,0.5,9.55138,19.10275,return,7.117282000137493,,,,,,,,,,,,,,,,,911,24,female,up_down_width,2024-10-21_10h47.44.130,exp1,2023.1.0,60.204188594988665,
,,,,,,,,,,,,,,,,4,9.25,9.75,10.25,10.75,0,0.5,0.25,0.25,1.75,10,initial,36.05,333,351,370,388,0,9,9,9,9,0,,,,,,,1,0,1,0,0,4,4,11,,,,,,,,,,,,num_4,1.342749899951741,num_4,0.35,0.8,0.25,0.5,9.55138,19.10275,return,2.358980700140819,,,,,,,,,,,,,,,,,911,24,female,up_down_width,2024-10-21_10h47.44.130,exp1,2023.1.0,60.204188594988665,
,,,,,,,,,,,,,,,,3,9.5,10,10.5,0,0,0.5,0.25,0.25,1.25,10,initial,36.05,342,361,379,0,0,9,9,9,0,0,,,,,,,1,0,1,0,0,5,5,35,,,,,,,,,,,,num_3,1.392909600166604,num_3,0.5,0.7,0.25000000000000006,0.5,9.55138,19.10275,return,4.967580799944699,,,,,,,,,,,,,,,,,911,24,female,up_down_width,2024-10-21_10h47.44.130,exp1,2023.1.0,60.204188594988665,
,,,,,,,,,,,,,,,,4,9.25,9.75,10.25,10.75,0,0.5,0.25,0.25,1.75,10,initial,36.05,333,351,370,388,0,9,9,9,9,0,,,,,,,1,0,1,0,0,6,6,40,,,,,,,,,,,,num_4,0.9418067999649793,num_4,0.35,1.3,0.3,0.6,11.46165,22.9233,return,7.415699400007725,,,,,,,,,,,,,,,,,911,24,female,up_down_width,2024-10-21_10h47.44.130,exp1,2023.1.0,60.204188594988665,
,,,,,,,,,,,,,,,,3,9.5,10,10.5,0,0,0.5,0.25,0.25,1.25,10,initial,36.05,342,361,379,0,0,9,9,9,0,0,,,,,,,1,0,1,0,0,7,7,1,,,,,,,,,,,,num_3,1.4133276001084596,num_3,0.35,1.2,0.25,0.65,9.55138,24.83358,return,6.332106200046837,,,,,,,,,,,,,,,,,911,24,female,up_down_width,2024-10-21_10h47.44.130,exp1,2023.1.0,60.204188594988665,
,,,,,,,,,,,,,,,,4,9.25,9.75,10.25,10.75,0,0.5,0.25,0.25,1.75,10,initial,36.05,333,351,370,388,0,9,9,9,9,0,,,,,,,1,0,1,0,0,8,8,15,,,,,,,,,,,,num_4,1.3454981001559645,num_4,0.25,1.1,0.2,0.5,7.6411,19.10275,return,5.8170054003130645,,,,,,,,,,,,,,,,,911,24,female,up_down_width,2024-10-21_10h47.44.130,exp1,2023.1.0,60.204188594988665,
,,,,,,,,,,,,,,,,3,9.5,10,10.5,0,0,0.5,0.25,0.25,1.25,10,initial,36.05,342,361,379,0,0,9,9,9,0,0,,,,,,,1,0,1,0,0,9,9,5,,,,,,,,,,,,num_3,1.1078761999960989,num_3,0.45,0.6,0.25000000000000006,0.65,9.55138,24.83358,return,9.975568300113082,,,,,,,,,,,,,,,,,911,24,female,up_down_width,2024-10-21_10h47.44.130,exp1,2023.1.0,60.204188594988665,
,,,,,,,,,,,,,,,,3,9.5,10,10.5,0,0,0.5,0.25,0.25,1.25,10,initial,36.05,342,361,379,0,0,9,9,9,0,0,,,,,,,1,0,1,0,0,10,10,29,,,,,,,,,,,,num_3,1.3875710999127477,num_3,0.4,0.9,0.30000000000000004,0.7,11.46165,26.74385,return,4.051329400157556,,,,,,,,,,,,,,,,,911,24,female,up_down_width,2024-10-21_10h47.44.130,exp1,2023.1.0,60.204188594988665,
,,,,,,,,,,,,,,,,5,9,9.5,10,10.5,11,0.5,0.25,0.25,2.25,10,initial,36.05,324,342,361,379,397,9,9,9,9,9,,,,,,,1,0,1,0,0,11,11,20,,,,,,,,,,,,num_6,1.2782811000943184,num_6,0.4,0.7,0.20000000000000007,0.5,7.6411,19.10275,return,7.001362100010738,,,,,,,,,,,,,,,,,911,24,female,up_down_width,2024-10-21_10h47.44.130,exp1,2023.1.0,60.204188594988665,
,,,,,,,,,,,,,,,,3,9.5,10,10.5,0,0,0.5,0.25,0.25,1.25,10,initial,36.05,342,361,379,0,0,9,9,9,0,0,,,,,,,1,0,1,0,0,12,12,27,,,,,,,,,,,,num_3,0.9860878000035882,num_3,0.35,1.3,0.25,0.65,9.55138,24.83358,return,7.697445600293577,,,,,,,,,,,,,,,,,911,24,female,up_down_width,2024-10-21_10h47.44.130,exp1,2023.1.0,60.204188594988665,
,,,,,,,,,,,,,,,,5,9,9.5,10,10.5,11,0.5,0.25,0.25,2.25,10,initial,36.05,324,342,361,379,397,9,9,9,9,9,,,,,,,1,0,1,0,0,13,13,23,,,,,,,,,,,,num_5,1.4778197000268847,num_5,0.3,0.6,0.2,0.5,7.6411,19.10275,return,9.88998410012573,,,,,,,,,,,,,,,,,911,24,female,up_down_width,2024-10-21_10h47.44.130,exp1,2023.1.0,60.204188594988665,
,,,,,,,,,,,,,,,,3,9.5,10,10.5,0,0,0.5,0.25,0.25,1.25,10,initial,36.05,342,361,379,0,0,9,9,9,0,0,,,,,,,1,0,1,0,0,14,14,8,,,,,,,,,,,,num_3,1.7271099002100527,num_3,0.45,1.2,0.25000000000000006,0.6,9.55138,22.9233,return,8.377331600058824,,,,,,,,,,,,,,,,,911,24,female,up_down_width,2024-10-21_10h47.44.130,exp1,2023.1.0,60.204188594988665,
,,,,,,,,,,,,,,,,4,9.25,9.75,10.25,10.75,0,0.5,0.25,0.25,1.75,10,initial,36.05,333,351,370,388,0,9,9,9,9,0,,,,,,,1,0,1,0,0,15,15,13,,,,,,,,,,,,num_4,1.2830430001486093,num_4,0.25,0.5,0.25,0.5,9.55138,19.10275,return,0.9435318000614643,,,,,,,,,,,,,,,,,911,24,female,up_down_width,2024-10-21_10h47.44.130,exp1,2023.1.0,60.204188594988665,
,,,,,,,,,,,,,,,,4,9.25,9.75,10.25,10.75,0,0.5,0.25,0.25,1.75,10,initial,36.05,333,351,370,388,0,9,9,9,9,0,,,,,,,1,0,1,0,0,16,16,17,,,,,,,,,,,,num_4,1.067813300061971,num_4,0.3,1.3,0.3,0.6,11.46165,22.9233,return,7.532211600104347,,,,,,,,,,,,,,,,,911,24,female,up_down_width,2024-10-21_10h47.44.130,exp1,2023.1.0,60.204188594988665,
,,,,,,,,,,,,,,,,4,9.25,9.75,10.25,10.75,0,0.5,0.25,0.25,1.75,10,initial,36.05,333,351,370,388,0,9,9,9,9,0,,,,,,,1,0,1,0,0,17,17,44,,,,,,,,,,,,num_5,1.9162970001343638,num_5,0.45,1.3,0.25000000000000006,0.65,9.55138,24.83358,return,9.135159500176087,,,,,,,,,,,,,,,,,911,24,female,up_down_width,2024-10-21_10h47.44.130,exp1,2023.1.0,60.204188594988665,
,,,,,,,,,,,,,,,,5,9,9.5,10,10.5,11,0.5,0.25,0.25,2.25,10,initial,36.05,324,342,361,379,397,9,9,9,9,9,,,,,,,1,0,1,0,0,18,18,51,,,,,,,,,,,,num_5,1.7210702002048492,num_5,0.35,0.4,0.25,0.65,9.55138,24.83358,return,6.594894600100815,,,,,,,,,,,,,,,,,911,24,female,up_down_width,2024-10-21_10h47.44.130,exp1,2023.1.0,60.204188594988665,
,,,,,,,,,,,,,,,,3,9.5,10,10.5,0,0,0.5,0.25,0.25,1.25,10,initial,36.05,342,361,379,0,0,9,9,9,0,0,,,,,,,1,0,1,0,0,19,19,34,,,,,,,,,,,,num_3,1.1651661002542824,num_3,0.45,0.7,0.30000000000000004,0.7,11.46165,26.74385,return,4.058147500036284,,,,,,,,,,,,,,,,,911,24,female,up_down_width,2024-10-21_10h47.44.130,exp1,2023.1.0,60.204188594988665,
,,,,,,,,,,,,,,,,5,9,9.5,10,10.5,11,0.5,0.25,0.25,2.25,10,initial,36.05,324,342,361,379,397,9,9,9,9,9,,,,,,,1,0,1,0,0,20,20,25,,,,,,,,,,,,num_4,1.3840167003218085,num_4,0.5,0.8,0.30000000000000004,0.7,11.46165,26.74385,return,6.4750966001302,,,,,,,,,,,,,,,,,911,24,female,up_down_width,2024-10-21_10h47.44.130,exp1,2023.1.0,60.204188594988665,
,,,,,,,,,,,,,,,,4,9.25,9.75,10.25,10.75,0,0.5,0.25,0.25,1.75,10,initial,36.05,333,351,370,388,0,9,9,9,9,0,,,,,,,1,0,1,0,0,21,21,42,,,,,,,,,,,,num_4,1.449306699912995,num_4,0.4,0.5,0.25000000000000006,0.7,9.55138,26.74385,return,4.140988600207493,,,,,,,,,,,,,,,,,911,24,female,up_down_width,2024-10-21_10h47.44.130,exp1,2023.1.0,60.204188594988665,
,,,,,,,,,,,,,,,,4,9.25,9.75,10.25,10.75,0,0.5,0.25,0.25,1.75,10,initial,36.05,333,351,370,388,0,9,9,9,9,0,,,,,,,1,0,1,0,0,22,22,43,,,,,,,,,,,,num_4,1.1585841001942754,num_4,0.55,0.7,0.30000000000000004,0.8,11.46165,30.5644,return,3.2051828000694513,,,,,,,,,,,,,,,,,911,24,female,up_down_width,2024-10-21_10h47.44.130,exp1,2023.1.0,60.204188594988665,
,,,,,,,,,,,,,,,,4,9.25,9.75,10.25,10.75,0,0.5,0.25,0.25,1.75,10,initial,36.05,333,351,370,388,0,9,9,9,9,0,,,,,,,1,0,1,0,0,23,23,14,,,,,,,,,,,,num_4,1.7592664000112563,num_4,0.55,0.6,0.25000000000000006,0.6,9.55138,22.9233,return,3.6878663999959826,,,,,,,,,,,,,,,,,911,24,female,up_down_width,2024-10-21_10h47.44.130,exp1,2023.1.0,60.204188594988665,
,,,,,,,,,,,,,,,,3,9.5,10,10.5,0,0,0.5,0.25,0.25,1.25,10,initial,36.05,342,361,379,0,0,9,9,9,0,0,,,,,,,1,0,1,0,0,24,24,3,,,,,,,,,,,,num_3,1.1736333000008017,num_3,0.5,0.9,0.25000000000000006,0.65,9.55138,24.83358,return,7.2161163000855595,,,,,,,,,,,,,,,,,911,24,female,up_down_width,2024-10-21_10h47.44.130,exp1,2023.1.0,60.204188594988665,
,,,,,,,,,,,,,,,,5,9,9.5,10,10.5,11,0.5,0.25,0.25,2.25,10,initial,36.05,324,342,361,379,397,9,9,9,9,9,,,,,,,1,0,1,0,0,25,25,24,,,,,,,,,,,,num_5,1.6370079000480473,num_5,0.35,0.4,0.25,0.55,9.55138,21.01303,return,15.426297800149769,,,,,,,,,,,,,,,,,911,24,female,up_down_width,2024-10-21_10h47.44.130,exp1,2023.1.0,60.204188594988665,
,,,,,,,,,,,,,,,,3,9.5,10,10.5,0,0,0.5,0.25,0.25,1.25,10,initial,36.05,342,361,379,0,0,9,9,9,0,0,,,,,,,1,0,1,0,0,26,26,2,,,,,,,,,,,,num_2,3.7468922999687493,num_2,0.2,1.4,0.25,0.8,9.55138,30.5644,return,12.470615400001407,,,,,,,,,,,,,,,,,911,24,female,up_down_width,2024-10-21_10h47.44.130,exp1,2023.1.0,60.204188594988665,
,,,,,,,,,,,,,,,,4,9.25,9.75,10.25,10.75,0,0.5,0.25,0.25,1.75,10,initial,36.05,333,351,370,388,0,9,9,9,9,0,,,,,,,1,0,1,0,0,27,27,36,,,,,,,,,,,,num_4,2.523341500200331,num_4,0.3,0.9,0.25,0.8,9.55138,30.5644,return,12.230265200138092,,,,,,,,,,,,,,,,,911,24,female,up_down_width,2024-10-21_10h47.44.130,exp1,2023.1.0,60.204188594988665,
,,,,,,,,,,,,,,,,5,9,9.5,10,10.5,11,0.5,0.25,0.25,2.25,10,initial,36.05,324,342,361,379,397,9,9,9,9,9,,,,,,,1,0,1,0,0,28,28,18,,,,,,,,,,,,num_5,1.2897778002079576,num_5,0.3,1.2,0.25,0.55,9.55138,21.01303,return,9.797233500052243,,,,,,,,,,,,,,,,,911,24,female,up_down_width,2024-10-21_10h47.44.130,exp1,2023.1.0,60.204188594988665,
,,,,,,,,,,,,,,,,3,9.5,10,10.5,0,0,0.5,0.25,0.25,1.25,10,initial,36.05,342,361,379,0,0,9,9,9,0,0,,,,,,,1,0,1,0,0,29,29,33,,,,,,,,,,,,num_3,1.1889057999942452,num_3,0.5,1.1,0.25000000000000006,0.5,9.55138,19.10275,return,14.50955820013769,,,,,,,,,,,,,,,,,911,24,female,up_down_width,2024-10-21_10h47.44.130,exp1,2023.1.0,60.204188594988665,
,,,,,,,,,,,,,,,,5,9,9.5,10,10.5,11,0.5,0.25,0.25,2.25,10,initial,36.05,324,342,361,379,397,9,9,9,9,9,,,,,,,1,0,1,0,0,30,30,50,,,,,,,,,,,,num_5,1.7248545000329614,num_5,0.3,0.9,0.25,0.55,9.55138,21.01303,return,5.299341400153935,,,,,,,,,,,,,,,,,911,24,female,up_down_width,2024-10-21_10h47.44.130,exp1,2023.1.0,60.204188594988665,
,,,,,,,,,,,,,,,,4,9.25,9.75,10.25,10.75,0,0.5,0.25,0.25,1.75,10,initial,36.05,333,351,370,388,0,9,9,9,9,0,,,,,,,1,0,1,0,0,31,31,9,,,,,,,,,,,,num_4,0.9180876000318676,num_4,0.4,0.6,0.30000000000000004,0.6,11.46165,22.9233,return,7.485393800074235,,,,,,,,,,,,,,,,,911,24,female,up_down_width,2024-10-21_10h47.44.130,exp1,2023.1.0,60.204188594988665,
,,,,,,,,,,,,,,,,3,9.5,10,10.5,0,0,0.5,0.25,0.25,1.25,10,initial,36.05,342,361,379,0,0,9,9,9,0,0,,,,,,,1,0,1,0,0,32,32,0,,,,,,,,,,,,num_3,1.014055300038308,num_3,0.2,0.7,0.3,0.6,11.46165,22.9233,return,2.6016093001235276,,,,,,,,,,,,,,,,,911,24,female,up_down_width,2024-10-21_10h47.44.130,exp1,2023.1.0,60.204188594988665,
,,,,,,,,,,,,,,,,5,9,9.5,10,10.5,11,0.5,0.25,0.25,2.25,10,initial,36.05,324,342,361,379,397,9,9,9,9,9,,,,,,,1,0,1,0,0,33,33,46,,,,,,,,,,,,num_5,1.1106565003283322,num_5,0.25,0.7,0.25,0.6,9.55138,22.9233,return,4.116153100272641,,,,,,,,,,,,,,,,,911,24,female,up_down_width,2024-10-21_10h47.44.130,exp1,2023.1.0,60.204188594988665,
,,,,,,,,,,,,,,,,4,9.25,9.75,10.25,10.75,0,0.5,0.25,0.25,1.75,10,initial,36.05,333,351,370,388,0,9,9,9,9,0,,,,,,,1,0,1,0,0,34,34,12,,,,,,,,,,,,num_4,1.0206718002445996,num_4,0.25,0.8,0.25,0.5,9.55138,19.10275,return,6.382968700025231,,,,,,,,,,,,,,,,,911,24,female,up_down_width,2024-10-21_10h47.44.130,exp1,2023.1.0,60.204188594988665,
,,,,,,,,,,,,,,,,3,9.5,10,10.5,0,0,0.5,0.25,0.25,1.25,10,initial,36.05,342,361,379,0,0,9,9,9,0,0,,,,,,,1,0,1,0,0,35,35,32,,,,,,,,,,,,num_3,1.4955398999154568,num_3,0.5,1.3,0.25000000000000006,0.6,9.55138,22.9233,return,9.544505000114441,,,,,,,,,,,,,,,,,911,24,female,up_down_width,2024-10-21_10h47.44.130,exp1,2023.1.0,60.204188594988665,
,,,,,,,,,,,,,,,,5,9,9.5,10,10.5,11,0.5,0.25,0.25,2.25,10,initial,36.05,324,342,361,379,397,9,9,9,9,9,,,,,,,1,0,1,0,0,36,36,19,,,,,,,,,,,,num_5,1.2265265001915395,num_5,0.3,1.0,0.2,0.5,7.6411,19.10275,return,8.647506500128657,,,,,,,,,,,,,,,,,911,24,female,up_down_width,2024-10-21_10h47.44.130,exp1,2023.1.0,60.204188594988665,
,,,,,,,,,,,,,,,,5,9,9.5,10,10.5,11,0.5,0.25,0.25,2.25,10,initial,36.05,324,342,361,379,397,9,9,9,9,9,,,,,,,1,0,1,0,0,37,37,49,,,,,,,,,,,,num_5,1.7123944000340998,num_5,0.45,0.5,0.25000000000000006,0.5,9.55138,19.10275,return,7.127307100221515,,,,,,,,,,,,,,,,,911,24,female,up_down_width,2024-10-21_10h47.44.130,exp1,2023.1.0,60.204188594988665,
,,,,,,,,,,,,,,,,5,9,9.5,10,10.5,11,0.5,0.25,0.25,2.25,10,initial,36.05,324,342,361,379,397,9,9,9,9,9,,,,,,,1,0,1,0,0,38,38,47,,,,,,,,,,,,num_5,1.4673167001456022,num_5,0.25,1.2,0.25,0.5,9.55138,19.10275,return,6.589832999976352,,,,,,,,,,,,,,,,,911,24,female,up_down_width,2024-10-21_10h47.44.130,exp1,2023.1.0,60.204188594988665,
,,,,,,,,,,,,,,,,5,9,9.5,10,10.5,11,0.5,0.25,0.25,2.25,10,initial,36.05,324,342,361,379,397,9,9,9,9,9,,,,,,,1,0,1,0,0,39,39,48,,,,,,,,,,,,num_5,2.512169500114396,num_5,0.55,1.2,0.25000000000000006,0.55,9.55138,21.01303,return,8.17948290007189,,,,,,,,,,,,,,,,,911,24,female,up_down_width,2024-10-21_10h47.44.130,exp1,2023.1.0,60.204188594988665,
,,,,,,,,,,,,,,,,4,9.25,9.75,10.25,10.75,0,0.5,0.25,0.25,1.75,10,initial,36.05,333,351,370,388,0,9,9,9,9,0,,,,,,,1,0,1,0,0,40,40,10,,,,,,,,,,,,num_4,4.069296300178394,num_4,0.3,0.6,0.3,0.6,11.46165,22.9233,return,1.153263500193134,,,,,,,,,,,,,,,,,911,24,female,up_down_width,2024-10-21_10h47.44.130,exp1,2023.1.0,60.204188594988665,
,,,,,,,,,,,,,,,,4,9.25,9.75,10.25,10.75,0,0.5,0.25,0.25,1.75,10,initial,36.05,333,351,370,388,0,9,9,9,9,0,,,,,,,1,0,1,0,0,41,41,41,,,,,,,,,,,,num_4,1.7299530003219843,num_4,0.2,1.3,0.3,0.5,11.46165,19.10275,return,4.713157100137323,,,,,,,,,,,,,,,,,911,24,female,up_down_width,2024-10-21_10h47.44.130,exp1,2023.1.0,60.204188594988665,
,,,,,,,,,,,,,,,,3,9.5,10,10.5,0,0,0.5,0.25,0.25,1.25,10,initial,36.05,342,361,379,0,0,9,9,9,0,0,,,,,,,1,0,1,0,0,42,42,30,,,,,,,,,,,,num_2,1.1059235001448542,num_2,0.45,0.6,0.4,0.6,15.2822,22.9233,return,2.036680100252852,,,,,,,,,,,,,,,,,911,24,female,up_down_width,2024-10-21_10h47.44.130,exp1,2023.1.0,60.204188594988665,
,,,,,,,,,,,,,,,,3,9.5,10,10.5,0,0,0.5,0.25,0.25,1.25,10,initial,36.05,342,361,379,0,0,9,9,9,0,0,,,,,,,1,0,1,0,0,43,43,7,,,,,,,,,,,,num_3,0.9539187999907881,num_3,0.45,0.6,0.30000000000000004,0.5,11.46165,19.10275,return,4.879624400287867,,,,,,,,,,,,,,,,,911,24,female,up_down_width,2024-10-21_10h47.44.130,exp1,2023.1.0,60.204188594988665,
,,,,,,,,,,,,,,,,5,9,9.5,10,10.5,11,0.5,0.25,0.25,2.25,10,initial,36.05,324,342,361,379,397,9,9,9,9,9,,,,,,,1,0,1,0,0,44,44,53,,,,,,,,,,,,num_4,0.9474301000591367,num_4,0.35,0.7,0.3,0.6,11.46165,22.9233,return,4.456581800244749,,,,,,,,,,,,,,,,,911,24,female,up_down_width,2024-10-21_10h47.44.130,exp1,2023.1.0,60.204188594988665,
,,,,,,,,,,,,,,,,4,9.25,9.75,10.25,10.75,0,0.5,0.25,0.25,1.75,10,initial,36.05,333,351,370,388,0,9,9,9,9,0,,,,,,,1,0,1,0,0,45,45,37,,,,,,,,,,,,num_3,1.0417784000746906,num_3,0.5,0.6,0.25000000000000006,0.55,9.55138,21.01303,return,5.265268800081685,,,,,,,,,,,,,,,,,911,24,female,up_down_width,2024-10-21_10h47.44.130,exp1,2023.1.0,60.204188594988665,
,,,,,,,,,,,,,,,,4,9.25,9.75,10.25,10.75,0,0.5,0.25,0.25,1.75,10,initial,36.05,333,351,370,388,0,9,9,9,9,0,,,,,,,1,0,1,0,0,46,46,16,,,,,,,,,,,,num_4,3.042385300155729,num_4,0.25,0.8,0.3,0.5,11.46165,19.10275,return,4.81975210015662,,,,,,,,,,,,,,,,,911,24,female,up_down_width,2024-10-21_10h47.44.130,exp1,2023.1.0,60.204188594988665,
,,,,,,,,,,,,,,,,5,9,9.5,10,10.5,11,0.5,0.25,0.25,2.25,10,initial,36.05,324,342,361,379,397,9,9,9,9,9,,,,,,,1,0,1,0,0,47,47,45,,,,,,,,,,,,num_5,1.2139582999516279,num_5,0.3,1.2,0.25,0.5,9.55138,19.10275,return,10.651547900168225,,,,,,,,,,,,,,,,,911,24,female,up_down_width,2024-10-21_10h47.44.130,exp1,2023.1.0,60.204188594988665,
,,,,,,,,,,,,,,,,4,9.25,9.75,10.25,10.75,0,0.5,0.25,0.25,1.75,10,initial,36.05,333,351,370,388,0,9,9,9,9,0,,,,,,,1,0,1,0,0,48,48,38,,,,,,,,,,,,num_4,3.5638749001082033,num_4,0.3,0.6,0.25,0.5,9.55138,19.10275,return,4.951282200170681,,,,,,,,,,,,,,,,,911,24,female,up_down_width,2024-10-21_10h47.44.130,exp1,2023.1.0,60.204188594988665,
,,,,,,,,,,,,,,,,3,9.5,10,10.5,0,0,0.5,0.25,0.25,1.25,10,initial,36.05,342,361,379,0,0,9,9,9,0,0,,,,,,,1,0,1,0,0,49,49,6,,,,,,,,,,,,num_3,0.9726725001819432,num_3,0.25,0.9,0.3,0.6,11.46165,22.9233,return,4.8522056001238525,,,,,,,,,,,,,,,,,911,24,female,up_down_width,2024-10-21_10h47.44.130,exp1,2023.1.0,60.204188594988665,
,,,,,,,,,,,,,,,,3,9.5,10,10.5,0,0,0.5,0.25,0.25,1.25,10,initial,36.05,342,361,379,0,0,9,9,9,0,0,,,,,,,1,0,1,0,0,50,50,28,,,,,,,,,,,,num_2,1.740354600129649,num_2,0.55,1.4,0.30000000000000004,0.6,11.46165,22.9233,return,6.6303789999801666,,,,,,,,,,,,,,,,,911,24,female,up_down_width,2024-10-21_10h47.44.130,exp1,2023.1.0,60.204188594988665,
,,,,,,,,,,,,,,,,5,9,9.5,10,10.5,11,0.5,0.25,0.25,2.25,10,initial,36.05,324,342,361,379,397,9,9,9,9,9,,,,,,,1,0,1,0,0,51,51,21,,,,,,,,,,,,num_4,1.5932334000244737,num_4,0.3,1.3,0.25,0.6,9.55138,22.9233,return,8.25878440006636,,,,,,,,,,,,,,,,,911,24,female,up_down_width,2024-10-21_10h47.44.130,exp1,2023.1.0,60.204188594988665,
,,,,,,,,,,,,,,,,4,9.25,9.75,10.25,10.75,0,0.5,0.25,0.25,1.75,10,initial,36.05,333,351,370,388,0,9,9,9,9,0,,,,,,,1,0,1,0,0,52,52,39,,,,,,,,,,,,num_4,2.0813965999986976,num_4,0.4,0.7,0.30000000000000004,0.6,11.46165,22.9233,return,2.7009898002725095,,,,,,,,,,,,,,,,,911,24,female,up_down_width,2024-10-21_10h47.44.130,exp1,2023.1.0,60.204188594988665,
,,,,,,,,,,,,,,,,3,9.5,10,10.5,0,0,0.5,0.25,0.25,1.25,10,initial,36.05,342,361,379,0,0,9,9,9,0,0,,,,,,,1,0,1,0,0,53,53,31,,,,,,,,,,,,num_2,2.318558500148356,num_2,0.25,0.4,0.2,0.5,7.6411,19.10275,return,4.140383900143206,,,,,,,,,,,,,,,,,911,24,female,up_down_width,2024-10-21_10h47.44.130,exp1,2023.1.0,60.204188594988665,
,,,,,,,,,,,,,,,,,,,,,,,,,,,,,,,,,,,,,,,,,,,,,1,0,1,0,,,,,,,,,,,,,,,,,,,,,,,,,,,,,1526.3517901999876,1526.3517901999876,1526.3517901999876,,,,,,,,,,,,911,24,female,up_down_width,2024-10-21_10h47.44.130,exp1,2023.1.0,60.204188594988665,
,,,,,,,,,,,,,,,,4,9.25,9.75,10.25,10.75,0,0.5,0.1,0.4,1.9000000000000001,10,initial,36.05,333,351,370,388,0,9,9,9,9,0,,,,,,,2,0,2,0,0,0,0,36,,,,,,,,,,,,num_4,1.1116101001389325,num_4,0.2,1.1,0.39999999999999997,0.6,15.2822,22.9233,return,6.036105600185692,,,,,,,,,,,,,,,,,911,24,female,up_down_width,2024-10-21_10h47.44.130,exp1,2023.1.0,60.204188594988665,
,,,,,,,,,,,,,,,,3,9.5,10,10.5,0,0,0.5,0.1,0.4,1.4000000000000001,10,initial,36.05,342,361,379,0,0,9,9,9,0,0,,,,,,,2,0,2,0,0,1,1,34,,,,,,,,,,,,num_3,1.0903960999567062,num_3,0.35,0.4,0.35,0.45,13.37193,17.19248,return,1.457918600179255,,,,,,,,,,,,,,,,,911,24,female,up_down_width,2024-10-21_10h47.44.130,exp1,2023.1.0,60.204188594988665,
,,,,,,,,,,,,,,,,4,9.25,9.75,10.25,10.75,0,0.5,0.1,0.4,1.9000000000000001,10,initial,36.05,333,351,370,388,0,9,9,9,9,0,,,,,,,2,0,2,0,0,2,2,15,,,,,,,,,,,,num_4,0.856429300038144,num_4,0.4,0.8,0.4,0.6,15.2822,22.9233,return,1.653033799957484,,,,,,,,,,,,,,,,,911,24,female,up_down_width,2024-10-21_10h47.44.130,exp1,2023.1.0,60.204188594988665,
,,,,,,,,,,,,,,,,3,9.5,10,10.5,0,0,0.5,0.1,0.4,1.4000000000000001,10,initial,36.05,342,361,379,0,0,9,9,9,0,0,,,,,,,2,0,2,0,0,3,3,5,,,,,,,,,,,,num_2,0.8700552999507636,num_2,0.55,1.0,0.45,0.7,17.19248,26.74385,return,5.809130500070751,,,,,,,,,,,,,,,,,911,24,female,up_down_width,2024-10-21_10h47.44.130,exp1,2023.1.0,60.204188594988665,
,,,,,,,,,,,,,,,,5,9,9.5,10,10.5,11,0.5,0.1,0.4,2.4,10,initial,36.05,324,342,361,379,397,9,9,9,9,9,,,,,,,2,0,2,0,0,4,4,45,,,,,,,,,,,,num_4,0.9225838002748787,num_4,0.3,0.3,0.39999999999999997,0.5,15.2822,19.10275,return,5.093077600002289,,,,,,,,,,,,,,,,,911,24,female,up_down_width,2024-10-21_10h47.44.130,exp1,2023.1.0,60.204188594988665,
,,,,,,,,,,,,,,,,3,9.5,10,10.5,0,0,0.5,0.1,0.4,1.4000000000000001,10,initial,36.05,342,361,379,0,0,9,9,9,0,0,,,,,,,2,0,2,0,0,5,5,8,,,,,,,,,,,,num_3,3.269642300205305,num_3,0.4,0.5,0.4,0.55,15.2822,21.01303,return,10.385893300175667,,,,,,,,,,,,,,,,,911,24,female,up_down_width,2024-10-21_10h47.44.130,exp1,2023.1.0,60.204188594988665,
,,,,,,,,,,,,,,,,4,9.25,9.75,10.25,10.75,0,0.5,0.1,0.4,1.9000000000000001,10,initial,36.05,333,351,370,388,0,9,9,9,9,0,,,,,,,2,0,2,0,0,6,6,40,,,,,,,,,,,,num_4,3.135233700275421,num_4,0.3,0.9,0.44999999999999996,0.6,17.19248,22.9233,return,13.898414599942043,,,,,,,,,,,,,,,,,911,24,female,up_down_width,2024-10-21_10h47.44.130,exp1,2023.1.0,60.204188594988665,
,,,,,,,,,,,,,,,,5,9,9.5,10,10.5,11,0.5,0.1,0.4,2.4,10,initial,36.05,324,342,361,379,397,9,9,9,9,9,,,,,,,2,0,2,0,0,7,7,18,,,,,,,,,,,,num_5,1.8144992999732494,num_5,0.35,1.0,0.39999999999999997,0.55,15.2822,21.01303,return,6.743011899990961,,,,,,,,,,,,,,,,,911,24,female,up_down_width,2024-10-21_10h47.44.130,exp1,2023.1.0,60.204188594988665,
,,,,,,,,,,,,,,,,3,9.5,10,10.5,0,0,0.5,0.1,0.4,1.4000000000000001,10,initial,36.05,342,361,379,0,0,9,9,9,0,0,,,,,,,2,0,2,0,0,8,8,30,,,,,,,,,,,,num_3,0.9674029001034796,num_3,0.4,0.7,0.4,0.55,15.2822,21.01303,return,3.0008994000963867,,,,,,,,,,,,,,,,,911,24,female,up_down_width,2024-10-21_10h47.44.130,exp1,2023.1.0,60.204188594988665,
,,,,,,,,,,,,,,,,5,9,9.5,10,10.5,11,0.5,0.1,0.4,2.4,10,initial,36.05,324,342,361,379,397,9,9,9,9,9,,,,,,,2,0,2,0,0,9,9,20,,,,,,,,,,,,num_5,1.0487683999817818,num_5,0.3,0.7,0.35,0.5,13.37193,19.10275,return,3.9612121002282947,,,,,,,,,,,,,,,,,911,24,female,up_down_width,2024-10-21_10h47.44.130,exp1,2023.1.0,60.204188594988665,
,,,,,,,,,,,,,,,,4,9.25,9.75,10.25,10.75,0,0.5,0.1,0.4,1.9000000000000001,10,initial,36.05,333,351,370,388,0,9,9,9,9,0,,,,,,,2,0,2,0,0,10,10,12,,,,,,,,,,,,num_4,0.8393786002416164,num_4,0.35,0.8,0.39999999999999997,0.5,15.2822,19.10275,return,3.5033084000460804,,,,,,,,,,,,,,,,,911,24,female,up_down_width,2024-10-21_10h47.44.130,exp1,2023.1.0,60.204188594988665,
,,,,,,,,,,,,,,,,3,9.5,10,10.5,0,0,0.5,0.1,0.4,1.4000000000000001,10,initial,36.05,342,361,379,0,0,9,9,9,0,0,,,,,,,2,0,2,0,0,11,11,3,,,,,,,,,,,,num_3,0.9933665001299232,num_3,0.5,1.3,0.4,0.55,15.2822,21.01303,return,8.999049900099635,,,,,,,,,,,,,,,,,911,24,female,up_down_width,2024-10-21_10h47.44.130,exp1,2023.1.0,60.204188594988665,
,,,,,,,,,,,,,,,,5,9,9.5,10,10.5,11,0.5,0.1,0.4,2.4,10,initial,36.05,324,342,361,379,397,9,9,9,9,9,,,,,,,2,0,2,0,0,12,12,19,,,,,,,,,,,,num_5,1.1209497000090778,num_5,0.35,0.6,0.44999999999999996,0.6,17.19248,22.9233,return,2.3000691002234817,,,,,,,,,,,,,,,,,911,24,female,up_down_width,2024-10-21_10h47.44.130,exp1,2023.1.0,60.204188594988665,
,,,,,,,,,,,,,,,,3,9.5,10,10.5,0,0,0.5,0.1,0.4,1.4000000000000001,10,initial,36.05,342,361,379,0,0,9,9,9,0,0,,,,,,,2,0,2,0,0,13,13,33,,,,,,,,,,,,num_3,0.935667100129649,num_3,0.2,1.3,0.5499999999999999,0.7,21.01303,26.74385,return,7.821551600238308,,,,,,,,,,,,,,,,,911,24,female,up_down_width,2024-10-21_10h47.44.130,exp1,2023.1.0,60.204188594988665,
,,,,,,,,,,,,,,,,5,9,9.5,10,10.5,11,0.5,0.1,0.4,2.4,10,initial,36.05,324,342,361,379,397,9,9,9,9,9,,,,,,,2,0,2,0,0,14,14,25,,,,,,,,,,,,num_4,1.0240376002620906,num_4,0.35,1.0,0.39999999999999997,0.6,15.2822,22.9233,return,6.445823699934408,,,,,,,,,,,,,,,,,911,24,female,up_down_width,2024-10-21_10h47.44.130,exp1,2023.1.0,60.204188594988665,
,,,,,,,,,,,,,,,,5,9,9.5,10,10.5,11,0.5,0.1,0.4,2.4,10,initial,36.05,324,342,361,379,397,9,9,9,9,9,,,,,,,2,0,2,0,0,15,15,46,,,,,,,,,,,,num_5,1.1148948001209646,num_5,0.5,1.3,0.4,0.55,15.2822,21.01303,return,17.261059700045735,,,,,,,,,,,,,,,,,911,24,female,up_down_width,2024-10-21_10h47.44.130,exp1,2023.1.0,60.204188594988665,
,,,,,,,,,,,,,,,,4,9.25,9.75,10.25,10.75,0,0.5,0.1,0.4,1.9000000000000001,10,initial,36.05,333,351,370,388,0,9,9,9,9,0,,,,,,,2,0,2,0,0,16,16,42,,,,,,,,,,,,num_4,0.9747947002761066,num_4,0.45,0.6,0.45,0.6,17.19248,22.9233,return,0.9623078999575227,,,,,,,,,,,,,,,,,911,24,female,up_down_width,2024-10-21_10h47.44.130,exp1,2023.1.0,60.204188594988665,
,,,,,,,,,,,,,,,,3,9.5,10,10.5,0,0,0.5,0.1,0.4,1.4000000000000001,10,initial,36.05,342,361,379,0,0,9,9,9,0,0,,,,,,,2,0,2,0,0,17,17,0,,,,,,,,,,,,num_3,0.7849365000147372,num_3,0.2,0.3,0.39999999999999997,0.55,15.2822,21.01303,return,9.657024200074375,,,,,,,,,,,,,,,,,911,24,female,up_down_width,2024-10-21_10h47.44.130,exp1,2023.1.0,60.204188594988665,
,,,,,,,,,,,,,,,,4,9.25,9.75,10.25,10.75,0,0.5,0.1,0.4,1.9000000000000001,10,initial,36.05,333,351,370,388,0,9,9,9,9,0,,,,,,,2,0,2,0,0,18,18,9,,,,,,,,,,,,num_4,0.9925395001191646,num_4,0.35,0.9,0.39999999999999997,0.6,15.2822,22.9233,return,9.090323800221086,,,,,,,,,,,,,,,,,911,24,female,up_down_width,2024-10-21_10h47.44.130,exp1,2023.1.0,60.204188594988665,
,,,,,,,,,,,,,,,,4,9.25,9.75,10.25,10.75,0,0.5,0.1,0.4,1.9000000000000001,10,initial,36.05,333,351,370,388,0,9,9,9,9,0,,,,,,,2,0,2,0,0,19,19,13,,,,,,,,,,,,num_4,0.9894518002402037,num_4,0.3,0.5,0.35,0.5,13.37193,19.10275,return,4.830654200166464,,,,,,,,,,,,,,,,,911,24,female,up_down_width,2024-10-21_10h47.44.130,exp1,2023.1.0,60.204188594988665,
,,,,,,,,,,,,,,,,5,9,9.5,10,10.5,11,0.5,0.1,0.4,2.4,10,initial,36.05,324,342,361,379,397,9,9,9,9,9,,,,,,,2,0,2,0,0,20,20,51,,,,,,,,,,,,num_4,1.0020672001410276,num_4,0.55,0.8,0.55,0.7,21.01303,26.74385,return,3.1941408002749085,,,,,,,,,,,,,,,,,911,24,female,up_down_width,2024-10-21_10h47.44.130,exp1,2023.1.0,60.204188594988665,
,,,,,,,,,,,,,,,,5,9,9.5,10,10.5,11,0.5,0.1,0.4,2.4,10,initial,36.05,324,342,361,379,397,9,9,9,9,9,,,,,,,2,0,2,0,0,21,21,52,,,,,,,,,,,,num_4,2.074837500229478,num_4,0.2,0.4,0.49999999999999994,0.7,19.10275,26.74385,return,7.905975500121713,,,,,,,,,,,,,,,,,911,24,female,up_down_width,2024-10-21_10h47.44.130,exp1,2023.1.0,60.204188594988665,
,,,,,,,,,,,,,,,,3,9.5,10,10.5,0,0,0.5,0.1,0.4,1.4000000000000001,10,initial,36.05,342,361,379,0,0,9,9,9,0,0,,,,,,,2,0,2,0,0,22,22,6,,,,,,,,,,,,num_3,1.0104511000681669,num_3,0.55,0.8,0.4,0.55,15.2822,21.01303,return,4.450637900270522,,,,,,,,,,,,,,,,,911,24,female,up_down_width,2024-10-21_10h47.44.130,exp1,2023.1.0,60.204188594988665,
,,,,,,,,,,,,,,,,4,9.25,9.75,10.25,10.75,0,0.5,0.1,0.4,1.9000000000000001,10,initial,36.05,333,351,370,388,0,9,9,9,9,0,,,,,,,2,0,2,0,0,23,23,16,,,,,,,,,,,,num_4,1.1508420002646744,num_4,0.4,0.5,0.25000000000000006,0.4,9.55138,15.2822,return,6.490139700006694,,,,,,,,,,,,,,,,,911,24,female,up_down_width,2024-10-21_10h47.44.130,exp1,2023.1.0,60.204188594988665,
,,,,,,,,,,,,,,,,4,9.25,9.75,10.25,10.75,0,0.5,0.1,0.4,1.9000000000000001,10,initial,36.05,333,351,370,388,0,9,9,9,9,0,,,,,,,2,0,2,0,0,24,24,10,,,,,,,,,,,,num_3,1.6514818000141531,num_3,0.45,1,0.45,0.65,17.19248,24.83358,return,3.8500011002179235,,,,,,,,,,,,,,,,,911,24,female,up_down_width,2024-10-21_10h47.44.130,exp1,2023.1.0,60.204188594988665,
,,,,,,,,,,,,,,,,5,9,9.5,10,10.5,11,0.5,0.1,0.4,2.4,10,initial,36.05,324,342,361,379,397,9,9,9,9,9,,,,,,,2,0,2,0,0,25,25,50,,,,,,,,,,,,num_5,0.9622545002494007,num_5,0.25,0.3,0.35,0.45,13.37193,17.19248,return,4.58200759999454,,,,,,,,,,,,,,,,,911,24,female,up_down_width,2024-10-21_10h47.44.130,exp1,2023.1.0,60.204188594988665,
,,,,,,,,,,,,,,,,5,9,9.5,10,10.5,11,0.5,0.1,0.4,2.4,10,initial,36.05,324,342,361,379,397,9,9,9,9,9,,,,,,,2,0,2,0,0,26,26,53,,,,,,,,,,,,num_4,1.3283089001197368,num_4,0.25,0.8,0.5499999999999999,0.7,21.01303,26.74385,return,3.849516100017354,,,,,,,,,,,,,,,,,911,24,female,up_down_width,2024-10-21_10h47.44.130,exp1,2023.1.0,60.204188594988665,
,,,,,,,,,,,,,,,,5,9,9.5,10,10.5,11,0.5,0.1,0.4,2.4,10,initial,36.05,324,342,361,379,397,9,9,9,9,9,,,,,,,2,0,2,0,0,27,27,47,,,,,,,,,,,,num_4,0.9799101001117378,num_4,0.45,0.9,0.45,0.6,17.19248,22.9233,return,4.38978680013679,,,,,,,,,,,,,,,,,911,24,female,up_down_width,2024-10-21_10h47.44.130,exp1,2023.1.0,60.204188594988665,
,,,,,,,,,,,,,,,,3,9.5,10,10.5,0,0,0.5,0.1,0.4,1.4000000000000001,10,initial,36.05,342,361,379,0,0,9,9,9,0,0,,,,,,,2,0,2,0,0,28,28,29,,,,,,,,,,,,num_2,0.9466374001931399,num_2,0.35,1.2,0.49999999999999994,0.7,19.10275,26.74385,return,3.4998057002667338,,,,,,,,,,,,,,,,,911,24,female,up_down_width,2024-10-21_10h47.44.130,exp1,2023.1.0,60.204188594988665,
,,,,,,,,,,,,,,,,4,9.25,9.75,10.25,10.75,0,0.5,0.1,0.4,1.9000000000000001,10,initial,36.05,333,351,370,388,0,9,9,9,9,0,,,,,,,2,0,2,0,0,29,29,17,,,,,,,,,,,,num_4,0.9506544000469148,num_4,0.35,1.2,0.39999999999999997,0.6,15.2822,22.9233,return,6.989983900217339,,,,,,,,,,,,,,,,,911,24,female,up_down_width,2024-10-21_10h47.44.130,exp1,2023.1.0,60.204188594988665,
,,,,,,,,,,,,,,,,4,9.25,9.75,10.25,10.75,0,0.5,0.1,0.4,1.9000000000000001,10,initial,36.05,333,351,370,388,0,9,9,9,9,0,,,,,,,2,0,2,0,0,30,30,43,,,,,,,,,,,,num_4,1.5897379000671208,num_4,0.45,0.6,0.4,0.6,15.2822,22.9233,return,4.364304600050673,,,,,,,,,,,,,,,,,911,24,female,up_down_width,2024-10-21_10h47.44.130,exp1,2023.1.0,60.204188594988665,
,,,,,,,,,,,,,,,,4,9.25,9.75,10.25,10.75,0,0.5,0.1,0.4,1.9000000000000001,10,initial,36.05,333,351,370,388,0,9,9,9,9,0,,,,,,,2,0,2,0,0,31,31,37,,,,,,,,,,,,num_3,1.2925984000321478,num_3,0.45,0.8,0.45,0.7,17.19248,26.74385,return,3.9705035001970828,,,,,,,,,,,,,,,,,911,24,female,up_down_width,2024-10-21_10h47.44.130,exp1,2023.1.0,60.204188594988665,
,,,,,,,,,,,,,,,,4,9.25,9.75,10.25,10.75,0,0.5,0.1,0.4,1.9000000000000001,10,initial,36.05,333,351,370,388,0,9,9,9,9,0,,,,,,,2,0,2,0,0,32,32,11,,,,,,,,,,,,num_3,1.119488200172782,num_3,0.55,0.8,0.5,0.75,19.10275,28.65413,return,2.8288142001256347,,,,,,,,,,,,,,,,,911,24,female,up_down_width,2024-10-21_10h47.44.130,exp1,2023.1.0,60.204188594988665,
,,,,,,,,,,,,,,,,3,9.5,10,10.5,0,0,0.5,0.1,0.4,1.4000000000000001,10,initial,36.05,342,361,379,0,0,9,9,9,0,0,,,,,,,2,0,2,0,0,33,33,1,,,,,,,,,,,,num_2,0.9940168000757694,num_2,0.25,1.0,0.44999999999999996,0.7,17.19248,26.74385,return,6.5801514002960175,,,,,,,,,,,,,,,,,911,24,female,up_down_width,2024-10-21_10h47.44.130,exp1,2023.1.0,60.204188594988665,
,,,,,,,,,,,,,,,,4,9.25,9.75,10.25,10.75,0,0.5,0.1,0.4,1.9000000000000001,10,initial,36.05,333,351,370,388,0,9,9,9,9,0,,,,,,,2,0,2,0,0,34,34,39,,,,,,,,,,,,num_4,0.9850275001954287,num_4,0.45,0.5,0.4,0.6,15.2822,22.9233,return,4.078139499993995,,,,,,,,,,,,,,,,,911,24,female,up_down_width,2024-10-21_10h47.44.130,exp1,2023.1.0,60.204188594988665,
,,,,,,,,,,,,,,,,4,9.25,9.75,10.25,10.75,0,0.5,0.1,0.4,1.9000000000000001,10,initial,36.05,333,351,370,388,0,9,9,9,9,0,,,,,,,2,0,2,0,0,35,35,41,,,,,,,,,,,,num_4,1.1199447000399232,num_4,0.4,0.7,0.6000000000000001,0.8,22.9233,30.5644,return,7.6449601999484,,,,,,,,,,,,,,,,,911,24,female,up_down_width,2024-10-21_10h47.44.130,exp1,2023.1.0,60.204188594988665,
,,,,,,,,,,,,,,,,4,9.25,9.75,10.25,10.75,0,0.5,0.1,0.4,1.9000000000000001,10,initial,36.05,333,351,370,388,0,9,9,9,9,0,,,,,,,2,0,2,0,0,36,36,14,,,,,,,,,,,,num_5,1.562077100155875,num_5,0.25,1.3,0.49999999999999994,0.7,19.10275,26.74385,return,6.551458900095895,,,,,,,,,,,,,,,,,911,24,female,up_down_width,2024-10-21_10h47.44.130,exp1,2023.1.0,60.204188594988665,
,,,,,,,,,,,,,,,,3,9.5,10,10.5,0,0,0.5,0.1,0.4,1.4000000000000001,10,initial,36.05,342,361,379,0,0,9,9,9,0,0,,,,,,,2,0,2,0,0,37,37,28,,,,,,,,,,,,num_2,0.9937995001673698,num_2,0.25,0.4,0.39999999999999997,0.6,15.2822,22.9233,return,7.593035600148141,,,,,,,,,,,,,,,,,911,24,female,up_down_width,2024-10-21_10h47.44.130,exp1,2023.1.0,60.204188594988665,
,,,,,,,,,,,,,,,,3,9.5,10,10.5,0,0,0.5,0.1,0.4,1.4000000000000001,10,initial,36.05,342,361,379,0,0,9,9,9,0,0,,,,,,,2,0,2,0,0,38,38,7,,,,,,,,,,,,num_2,1.2329196000937372,num_2,0.3,0.6,0.35,0.6,13.37193,22.9233,return,2.6372842001728714,,,,,,,,,,,,,,,,,911,24,female,up_down_width,2024-10-21_10h47.44.130,exp1,2023.1.0,60.204188594988665,
,,,,,,,,,,,,,,,,3,9.5,10,10.5,0,0,0.5,0.1,0.4,1.4000000000000001,10,initial,36.05,342,361,379,0,0,9,9,9,0,0,,,,,,,2,0,2,0,0,39,39,32,,,,,,,,,,,,num_3,1.1416285000741482,num_3,0.5,0.7,0.4,0.6,15.2822,22.9233,return,2.7038468001410365,,,,,,,,,,,,,,,,,911,24,female,up_down_width,2024-10-21_10h47.44.130,exp1,2023.1.0,60.204188594988665,
,,,,,,,,,,,,,,,,3,9.5,10,10.5,0,0,0.5,0.1,0.4,1.4000000000000001,10,initial,36.05,342,361,379,0,0,9,9,9,0,0,,,,,,,2,0,2,0,0,40,40,35,,,,,,,,,,,,num_2,1.0054347000550479,num_2,0.3,0.6,0.35,0.5,13.37193,19.10275,return,1.8563556000590324,,,,,,,,,,,,,,,,,911,24,female,up_down_width,2024-10-21_10h47.44.130,exp1,2023.1.0,60.204188594988665,
,,,,,,,,,,,,,,,,3,9.5,10,10.5,0,0,0.5,0.1,0.4,1.4000000000000001,10,initial,36.05,342,361,379,0,0,9,9,9,0,0,,,,,,,2,0,2,0,0,41,41,27,,,,,,,,,,,,num_3,1.014806800056249,num_3,0.3,1.1,0.39999999999999997,0.65,15.2822,24.83358,return,5.149107900215313,,,,,,,,,,,,,,,,,911,24,female,up_down_width,2024-10-21_10h47.44.130,exp1,2023.1.0,60.204188594988665,
,,,,,,,,,,,,,,,,5,9,9.5,10,10.5,11,0.5,0.1,0.4,2.4,10,initial,36.05,324,342,361,379,397,9,9,9,9,9,,,,,,,2,0,2,0,0,42,42,24,,,,,,,,,,,,num_5,1.4016037001274526,num_5,0.35,1.0,0.39999999999999997,0.55,15.2822,21.01303,return,3.9987926001194865,,,,,,,,,,,,,,,,,911,24,female,up_down_width,2024-10-21_10h47.44.130,exp1,2023.1.0,60.204188594988665,
,,,,,,,,,,,,,,,,5,9,9.5,10,10.5,11,0.5,0.1,0.4,2.4,10,initial,36.05,324,342,361,379,397,9,9,9,9,9,,,,,,,2,0,2,0,0,43,43,49,,,,,,,,,,,,num_5,2.0393844000063837,num_5,0.25,0.6,0.35,0.55,13.37193,21.01303,return,3.4702536002732813,,,,,,,,,,,,,,,,,911,24,female,up_down_width,2024-10-21_10h47.44.130,exp1,2023.1.0,60.204188594988665,
,,,,,,,,,,,,,,,,5,9,9.5,10,10.5,11,0.5,0.1,0.4,2.4,10,initial,36.05,324,342,361,379,397,9,9,9,9,9,,,,,,,2,0,2,0,0,44,44,21,,,,,,,,,,,,num_4,1.3227665999438614,num_4,0.25,0.5,0.44999999999999996,0.7,17.19248,26.74385,return,4.031607300043106,,,,,,,,,,,,,,,,,911,24,female,up_down_width,2024-10-21_10h47.44.130,exp1,2023.1.0,60.204188594988665,
,,,,,,,,,,,,,,,,3,9.5,10,10.5,0,0,0.5,0.1,0.4,1.4000000000000001,10,initial,36.05,342,361,379,0,0,9,9,9,0,0,,,,,,,2,0,2,0,0,45,45,2,,,,,,,,,,,,num_2,0.8999960999935865,num_2,0.5,1.0,0.6000000000000001,0.8,22.9233,30.5644,return,2.6991018000990152,,,,,,,,,,,,,,,,,911,24,female,up_down_width,2024-10-21_10h47.44.130,exp1,2023.1.0,60.204188594988665,
,,,,,,,,,,,,,,,,3,9.5,10,10.5,0,0,0.5,0.1,0.4,1.4000000000000001,10,initial,36.05,342,361,379,0,0,9,9,9,0,0,,,,,,,2,0,2,0,0,46,46,4,,,,,,,,,,,,num_2,1.1327547000255436,num_2,0.3,1.6,0.5499999999999999,0.8,21.01303,30.5644,return,5.881058800267056,,,,,,,,,,,,,,,,,911,24,female,up_down_width,2024-10-21_10h47.44.130,exp1,2023.1.0,60.204188594988665,
,,,,,,,,,,,,,,,,3,9.5,10,10.5,0,0,0.5,0.1,0.4,1.4000000000000001,10,initial,36.05,342,361,379,0,0,9,9,9,0,0,,,,,,,2,0,2,0,0,47,47,31,,,,,,,,,,,,num_2,0.9165556002408266,num_2,0.45,1.4,0.55,0.8,21.01303,30.5644,return,4.841894699959084,,,,,,,,,,,,,,,,,911,24,female,up_down_width,2024-10-21_10h47.44.130,exp1,2023.1.0,60.204188594988665,
,,,,,,,,,,,,,,,,4,9.25,9.75,10.25,10.75,0,0.5,0.1,0.4,1.9000000000000001,10,initial,36.05,333,351,370,388,0,9,9,9,9,0,,,,,,,2,0,2,0,0,48,48,44,,,,,,,,,,,,num_4,0.8394581000320613,num_4,0.4,1.1,0.4,0.7,15.2822,26.74385,return,8.467639800161123,,,,,,,,,,,,,,,,,911,24,female,up_down_width,2024-10-21_10h47.44.130,exp1,2023.1.0,60.204188594988665,
,,,,,,,,,,,,,,,,5,9,9.5,10,10.5,11,0.5,0.1,0.4,2.4,10,initial,36.05,324,342,361,379,397,9,9,9,9,9,,,,,,,2,0,2,0,0,49,49,26,,,,,,,,,,,,num_5,1.1186097001191229,num_5,0.5,1.0,0.4,0.65,15.2822,24.83358,return,6.8109150000382215,,,,,,,,,,,,,,,,,911,24,female,up_down_width,2024-10-21_10h47.44.130,exp1,2023.1.0,60.204188594988665,
,,,,,,,,,,,,,,,,5,9,9.5,10,10.5,11,0.5,0.1,0.4,2.4,10,initial,36.05,324,342,361,379,397,9,9,9,9,9,,,,,,,2,0,2,0,0,50,50,23,,,,,,,,,,,,num_5,1.7640557000413537,num_5,0.55,1.0,0.5,0.7,19.10275,26.74385,return,4.150551399914548,,,,,,,,,,,,,,,,,911,24,female,up_down_width,2024-10-21_10h47.44.130,exp1,2023.1.0,60.204188594988665,
,,,,,,,,,,,,,,,,5,9,9.5,10,10.5,11,0.5,0.1,0.4,2.4,10,initial,36.05,324,342,361,379,397,9,9,9,9,9,,,,,,,2,0,2,0,0,51,51,48,,,,,,,,,,,,num_5,1.1430844999849796,num_5,0.55,0.6,0.5,0.65,19.10275,24.83358,return,4.849254600005224,,,,,,,,,,,,,,,,,911,24,female,up_down_width,2024-10-21_10h47.44.130,exp1,2023.1.0,60.204188594988665,
,,,,,,,,,,,,,,,,4,9.25,9.75,10.25,10.75,0,0.5,0.1,0.4,1.9000000000000001,10,initial,36.05,333,351,370,388,0,9,9,9,9,0,,,,,,,2,0,2,0,0,52,52,38,,,,,,,,,,,,num_4,2.174185800133273,num_4,0.35,1.1,0.49999999999999994,0.7,19.10275,26.74385,return,4.830511000240222,,,,,,,,,,,,,,,,,911,24,female,up_down_width,2024-10-21_10h47.44.130,exp1,2023.1.0,60.204188594988665,
,,,,,,,,,,,,,,,,5,9,9.5,10,10.5,11,0.5,0.1,0.4,2.4,10,initial,36.05,324,342,361,379,397,9,9,9,9,9,,,,,,,2,0,2,0,0,53,53,22,,,,,,,,,,,,num_5,1.4968306000810117,num_5,0.25,0.4,0.3,0.45,11.46165,17.19248,return,2.58661050000228,,,,,,,,,,,,,,,,,911,24,female,up_down_width,2024-10-21_10h47.44.130,exp1,2023.1.0,60.204188594988665,
,,,,,,,,,,,,,,,,,,,,,,,,,,,,,,,,,,,,,,,,,,,,,2,0,2,0,,,,,,,,,,,,,,,,,,,,,,,,,,,,,2003.317552599823,2003.317552599823,2003.317552599823,,,,,,,,,,,,911,24,female,up_down_width,2024-10-21_10h47.44.130,exp1,2023.1.0,60.204188594988665,
,,,,,,,,,,,,,,,,3,9.1,10,10.9,0,0,0.9,0.35,0.55,2.35,10,initial,36.05,328,361,393,0,0,9,9,9,0,0,,,,,,,3,0,3,0,0,0,0,3,,,,,,,,,,,,num_3,1.4726295000873506,num_3,0.4,0.9,0.45,0.75,17.19248,28.65413,return,3.58377330028452,,,,,,,,,,,,,,,,,911,24,female,up_down_width,2024-10-21_10h47.44.130,exp1,2023.1.0,60.204188594988665,
,,,,,,,,,,,,,,,,3,9.1,10,10.9,0,0,0.9,0.35,0.55,2.35,10,initial,36.05,328,361,393,0,0,9,9,9,0,0,,,,,,,3,0,3,0,0,1,1,30,,,,,,,,,,,,num_3,0.9353510001674294,num_3,0.2,0.5,0.35,0.55,13.37193,21.01303,return,2.4260301999747753,,,,,,,,,,,,,,,,,911,24,female,up_down_width,2024-10-21_10h47.44.130,exp1,2023.1.0,60.204188594988665,
,,,,,,,,,,,,,,,,3,9.1,10,10.9,0,0,0.9,0.35,0.55,2.35,10,initial,36.05,328,361,393,0,0,9,9,9,0,0,,,,,,,3,0,3,0,0,2,2,0,,,,,,,,,,,,num_3,0.9956378000788391,num_3,0.5,0.6,0.4,0.65,15.2822,24.83358,return,7.379309999989346,,,,,,,,,,,,,,,,,911,24,female,up_down_width,2024-10-21_10h47.44.130,exp1,2023.1.0,60.204188594988665,
,,,,,,,,,,,,,,,,5,8.2,9.1,10,10.9,11.8,0.9,0.35,0.55,4.15,10,initial,36.05,296,328,361,393,425,9,9,9,9,9,,,,,,,3,0,3,0,0,3,3,50,,,,,,,,,,,,num_4,1.0156105002388358,num_4,0.45,0.9,0.45,0.9,17.19248,34.38495,return,0.8226506002247334,,,,,,,,,,,,,,,,,911,24,female,up_down_width,2024-10-21_10h47.44.130,exp1,2023.1.0,60.204188594988665,
,,,,,,,,,,,,,,,,4,8.65,9.55,10.45,11.35,0,0.9,0.35,0.55,3.25,10,initial,36.05,312,344,377,409,0,9,9,9,9,0,,,,,,,3,0,3,0,0,4,4,14,,,,,,,,,,,,num_4,0.920547200134024,num_4,0.35,0.5,0.39999999999999997,0.7,15.2822,26.74385,return,2.12608930002898,,,,,,,,,,,,,,,,,911,24,female,up_down_width,2024-10-21_10h47.44.130,exp1,2023.1.0,60.204188594988665,
,,,,,,,,,,,,,,,,3,9.1,10,10.9,0,0,0.9,0.35,0.55,2.35,10,initial,36.05,328,361,393,0,0,9,9,9,0,0,,,,,,,3,0,3,0,0,5,5,34,,,,,,,,,,,,num_3,1.818466000026092,num_3,0.55,1.1,0.55,1.0,21.01303,38.2055,return,1.9212754000909626,,,,,,,,,,,,,,,,,911,24,female,up_down_width,2024-10-21_10h47.44.130,exp1,2023.1.0,60.204188594988665,
,,,,,,,,,,,,,,,,3,9.1,10,10.9,0,0,0.9,0.35,0.55,2.35,10,initial,36.05,328,361,393,0,0,9,9,9,0,0,,,,,,,3,0,3,0,0,6,6,2,,,,,,,,,,,,num_3,1.1216630002018064,num_3,0.55,1.1,0.6000000000000001,1.0,22.9233,38.2055,return,5.053484000265598,,,,,,,,,,,,,,,,,911,24,female,up_down_width,2024-10-21_10h47.44.130,exp1,2023.1.0,60.204188594988665,
,,,,,,,,,,,,,,,,3,9.1,10,10.9,0,0,0.9,0.35,0.55,2.35,10,initial,36.05,328,361,393,0,0,9,9,9,0,0,,,,,,,3,0,3,0,0,7,7,33,,,,,,,,,,,,num_3,1.4742249001283199,num_3,0.3,1.3,0.5499999999999999,1.0,21.01303,38.2055,return,4.6098725001793355,,,,,,,,,,,,,,,,,911,24,female,up_down_width,2024-10-21_10h47.44.130,exp1,2023.1.0,60.204188594988665,
,,,,,,,,,,,,,,,,5,8.2,9.1,10,10.9,11.8,0.9,0.35,0.55,4.15,10,initial,36.05,296,328,361,393,425,9,9,9,9,9,,,,,,,3,0,3,0,0,8,8,52,,,,,,,,,,,,num_5,1.5779399999883026,num_5,0.2,0.9,0.44999999999999996,0.8,17.19248,30.5644,return,7.685217400314286,,,,,,,,,,,,,,,,,911,24,female,up_down_width,2024-10-21_10h47.44.130,exp1,2023.1.0,60.204188594988665,
,,,,,,,,,,,,,,,,3,9.1,10,10.9,0,0,0.9,0.35,0.55,2.35,10,initial,36.05,328,361,393,0,0,9,9,9,0,0,,,,,,,3,0,3,0,0,9,9,8,,,,,,,,,,,,num_2,0.9492879002355039,num_2,0.45,1.2,0.6000000000000001,1.1,22.9233,42.02605,return,3.8531247000209987,,,,,,,,,,,,,,,,,911,24,female,up_down_width,2024-10-21_10h47.44.130,exp1,2023.1.0,60.204188594988665,
,,,,,,,,,,,,,,,,5,8.2,9.1,10,10.9,11.8,0.9,0.35,0.55,4.15,10,initial,36.05,296,328,361,393,425,9,9,9,9,9,,,,,,,3,0,3,0,0,10,10,18,,,,,,,,,,,,num_4,6.0158781001809984,num_4,0.3,1.2,0.6,1.0,22.9233,38.2055,return,8.063822000054643,,,,,,,,,,,,,,,,,911,24,female,up_down_width,2024-10-21_10h47.44.130,exp1,2023.1.0,60.204188594988665,
,,,,,,,,,,,,,,,,5,8.2,9.1,10,10.9,11.8,0.9,0.35,0.55,4.15,10,initial,36.05,296,328,361,393,425,9,9,9,9,9,,,,,,,3,0,3,0,0,11,11,21,,,,,,,,,,,,num_5,0.9492615000344813,num_5,0.35,1.1,0.49999999999999994,1.0,19.10275,38.2055,return,4.9263589000329375,,,,,,,,,,,,,,,,,911,24,female,up_down_width,2024-10-21_10h47.44.130,exp1,2023.1.0,60.204188594988665,
,,,,,,,,,,,,,,,,4,8.65,9.55,10.45,11.35,0,0.9,0.35,0.55,3.25,10,initial,36.05,312,344,377,409,0,9,9,9,9,0,,,,,,,3,0,3,0,0,12,12,40,,,,,,,,,,,,num_4,2.429852100322023,num_4,0.45,1.3,0.5,1.1,19.10275,42.02605,return,3.9260464003309608,,,,,,,,,,,,,,,,,911,24,female,up_down_width,2024-10-21_10h47.44.130,exp1,2023.1.0,60.204188594988665,
,,,,,,,,,,,,,,,,5,8.2,9.1,10,10.9,11.8,0.9,0.35,0.55,4.15,10,initial,36.05,296,328,361,393,425,9,9,9,9,9,,,,,,,3,0,3,0,0,13,13,47,,,,,,,,,,,,num_5,1.0721555002965033,num_5,0.25,1.1,0.49999999999999994,1.0,19.10275,38.2055,return,4.653100500116125,,,,,,,,,,,,,,,,,911,24,female,up_down_width,2024-10-21_10h47.44.130,exp1,2023.1.0,60.204188594988665,
,,,,,,,,,,,,,,,,5,8.2,9.1,10,10.9,11.8,0.9,0.35,0.55,4.15,10,initial,36.05,296,328,361,393,425,9,9,9,9,9,,,,,,,3,0,3,0,0,14,14,49,,,,,,,,,,,,num_5,1.0466773002408445,num_5,0.2,1.1,0.44999999999999996,1.1,17.19248,42.02605,return,5.686517800204456,,,,,,,,,,,,,,,,,911,24,female,up_down_width,2024-10-21_10h47.44.130,exp1,2023.1.0,60.204188594988665,
,,,,,,,,,,,,,,,,5,8.2,9.1,10,10.9,11.8,0.9,0.35,0.55,4.15,10,initial,36.05,296,328,361,393,425,9,9,9,9,9,,,,,,,3,0,3,0,0,15,15,53,,,,,,,,,,,,num_5,1.5613285002764314,num_5,0.35,1.2,0.5499999999999999,1.05,21.01303,40.11578,return,5.187821300234646,,,,,,,,,,,,,,,,,911,24,female,up_down_width,2024-10-21_10h47.44.130,exp1,2023.1.0,60.204188594988665,
,,,,,,,,,,,,,,,,5,8.2,9.1,10,10.9,11.8,0.9,0.35,0.55,4.15,10,initial,36.05,296,328,361,393,425,9,9,9,9,9,,,,,,,3,0,3,0,0,16,16,45,,,,,,,,,,,,num_5,1.532738100271672,num_5,0.4,1.3,0.45,1.0,17.19248,38.2055,return,8.599997600307688,,,,,,,,,,,,,,,,,911,24,female,up_down_width,2024-10-21_10h47.44.130,exp1,2023.1.0,60.204188594988665,
,,,,,,,,,,,,,,,,5,8.2,9.1,10,10.9,11.8,0.9,0.35,0.55,4.15,10,initial,36.05,296,328,361,393,425,9,9,9,9,9,,,,,,,3,0,3,0,0,17,17,19,,,,,,,,,,,,num_5,3.29962299996987,num_5,0.35,0.9,0.5499999999999999,0.95,21.01303,36.29523,return,5.65387270017527,,,,,,,,,,,,,,,,,911,24,female,up_down_width,2024-10-21_10h47.44.130,exp1,2023.1.0,60.204188594988665,
,,,,,,,,,,,,,,,,4,8.65,9.55,10.45,11.35,0,0.9,0.35,0.55,3.25,10,initial,36.05,312,344,377,409,0,9,9,9,9,0,,,,,,,3,0,3,0,0,18,18,10,,,,,,,,,,,,num_3,1.256682600127533,num_3,0.35,1.2,0.5499999999999999,0.95,21.01303,36.29523,return,4.821056600194424,,,,,,,,,,,,,,,,,911,24,female,up_down_width,2024-10-21_10h47.44.130,exp1,2023.1.0,60.204188594988665,
,,,,,,,,,,,,,,,,4,8.65,9.55,10.45,11.35,0,0.9,0.35,0.55,3.25,10,initial,36.05,312,344,377,409,0,9,9,9,9,0,,,,,,,3,0,3,0,0,19,19,15,,,,,,,,,,,,num_4,0.8982502003200352,num_4,0.2,1.0,0.5499999999999999,1.0,21.01303,38.2055,return,3.783112399978563,,,,,,,,,,,,,,,,,911,24,female,up_down_width,2024-10-21_10h47.44.130,exp1,2023.1.0,60.204188594988665,
,,,,,,,,,,,,,,,,5,8.2,9.1,10,10.9,11.8,0.9,0.35,0.55,4.15,10,initial,36.05,296,328,361,393,425,9,9,9,9,9,,,,,,,3,0,3,0,0,20,20,46,,,,,,,,,,,,num_5,1.1230484002735466,num_5,0.4,1.1,0.5,0.9,19.10275,34.38495,return,7.050148000009358,,,,,,,,,,,,,,,,,911,24,female,up_down_width,2024-10-21_10h47.44.130,exp1,2023.1.0,60.204188594988665,
,,,,,,,,,,,,,,,,4,8.65,9.55,10.45,11.35,0,0.9,0.35,0.55,3.25,10,initial,36.05,312,344,377,409,0,9,9,9,9,0,,,,,,,3,0,3,0,0,21,21,17,,,,,,,,,,,,num_4,0.9894089999143034,num_4,0.25,1.1,0.49999999999999994,0.9,19.10275,34.38495,return,4.0980257000774145,,,,,,,,,,,,,,,,,911,24,female,up_down_width,2024-10-21_10h47.44.130,exp1,2023.1.0,60.204188594988665,
,,,,,,,,,,,,,,,,3,9.1,10,10.9,0,0,0.9,0.35,0.55,2.35,10,initial,36.05,328,361,393,0,0,9,9,9,0,0,,,,,,,3,0,3,0,0,22,22,31,,,,,,,,,,,,num_2,0.9263613000512123,num_2,0.5,1.0,0.55,0.9,21.01303,34.38495,return,2.584294900065288,,,,,,,,,,,,,,,,,911,24,female,up_down_width,2024-10-21_10h47.44.130,exp1,2023.1.0,60.204188594988665,
,,,,,,,,,,,,,,,,5,8.2,9.1,10,10.9,11.8,0.9,0.35,0.55,4.15,10,initial,36.05,296,328,361,393,425,9,9,9,9,9,,,,,,,3,0,3,0,0,23,23,51,,,,,,,,,,,,num_5,2.8653983001131564,num_5,0.45,1.3,0.5,0.9,19.10275,34.38495,return,4.718484000302851,,,,,,,,,,,,,,,,,911,24,female,up_down_width,2024-10-21_10h47.44.130,exp1,2023.1.0,60.204188594988665,
,,,,,,,,,,,,,,,,4,8.65,9.55,10.45,11.35,0,0.9,0.35,0.55,3.25,10,initial,36.05,312,344,377,409,0,9,9,9,9,0,,,,,,,3,0,3,0,0,24,24,44,,,,,,,,,,,,num_4,1.0660681002773345,num_4,0.45,0.6,0.5,0.9,19.10275,34.38495,return,5.437255100114271,,,,,,,,,,,,,,,,,911,24,female,up_down_width,2024-10-21_10h47.44.130,exp1,2023.1.0,60.204188594988665,
,,,,,,,,,,,,,,,,5,8.2,9.1,10,10.9,11.8,0.9,0.35,0.55,4.15,10,initial,36.05,296,328,361,393,425,9,9,9,9,9,,,,,,,3,0,3,0,0,25,25,22,,,,,,,,,,,,num_4,1.4184604999609292,num_4,0.4,0.5,0.55,1.0,21.01303,38.2055,return,10.603384400019422,,,,,,,,,,,,,,,,,911,24,female,up_down_width,2024-10-21_10h47.44.130,exp1,2023.1.0,60.204188594988665,
,,,,,,,,,,,,,,,,3,9.1,10,10.9,0,0,0.9,0.35,0.55,2.35,10,initial,36.05,328,361,393,0,0,9,9,9,0,0,,,,,,,3,0,3,0,0,26,26,27,,,,,,,,,,,,num_3,0.8488292000256479,num_3,0.2,0.3,0.49999999999999994,0.8,19.10275,30.5644,return,9.133409900125116,,,,,,,,,,,,,,,,,911,24,female,up_down_width,2024-10-21_10h47.44.130,exp1,2023.1.0,60.204188594988665,
,,,,,,,,,,,,,,,,5,8.2,9.1,10,10.9,11.8,0.9,0.35,0.55,4.15,10,initial,36.05,296,328,361,393,425,9,9,9,9,9,,,,,,,3,0,3,0,0,27,27,20,,,,,,,,,,,,num_4,1.1214737999252975,num_4,0.55,0.7,0.5,0.8,19.10275,30.5644,return,5.600022099912167,,,,,,,,,,,,,,,,,911,24,female,up_down_width,2024-10-21_10h47.44.130,exp1,2023.1.0,60.204188594988665,
,,,,,,,,,,,,,,,,5,8.2,9.1,10,10.9,11.8,0.9,0.35,0.55,4.15,10,initial,36.05,296,328,361,393,425,9,9,9,9,9,,,,,,,3,0,3,0,0,28,28,26,,,,,,,,,,,,num_4,0.8649073000997305,num_4,0.3,1.0,0.49999999999999994,0.8,19.10275,30.5644,return,5.101162000093609,,,,,,,,,,,,,,,,,911,24,female,up_down_width,2024-10-21_10h47.44.130,exp1,2023.1.0,60.204188594988665,
,,,,,,,,,,,,,,,,4,8.65,9.55,10.45,11.35,0,0.9,0.35,0.55,3.25,10,initial,36.05,312,344,377,409,0,9,9,9,9,0,,,,,,,3,0,3,0,0,29,29,13,,,,,,,,,,,,num_4,0.9322093001101166,num_4,0.35,0.4,0.49999999999999994,0.8,19.10275,30.5644,return,3.3878909000195563,,,,,,,,,,,,,,,,,911,24,female,up_down_width,2024-10-21_10h47.44.130,exp1,2023.1.0,60.204188594988665,
,,,,,,,,,,,,,,,,4,8.65,9.55,10.45,11.35,0,0.9,0.35,0.55,3.25,10,initial,36.05,312,344,377,409,0,9,9,9,9,0,,,,,,,3,0,3,0,0,30,30,12,,,,,,,,,,,,num_4,0.7719498001970351,num_4,0.45,1.2,0.55,0.9,21.01303,34.38495,return,7.456695100059733,,,,,,,,,,,,,,,,,911,24,female,up_down_width,2024-10-21_10h47.44.130,exp1,2023.1.0,60.204188594988665,
,,,,,,,,,,,,,,,,4,8.65,9.55,10.45,11.35,0,0.9,0.35,0.55,3.25,10,initial,36.05,312,344,377,409,0,9,9,9,9,0,,,,,,,3,0,3,0,0,31,31,16,,,,,,,,,,,,num_4,1.8948638001456857,num_4,0.2,0.5,0.44999999999999996,0.8,17.19248,30.5644,return,4.2660315001849085,,,,,,,,,,,,,,,,,911,24,female,up_down_width,2024-10-21_10h47.44.130,exp1,2023.1.0,60.204188594988665,
,,,,,,,,,,,,,,,,3,9.1,10,10.9,0,0,0.9,0.35,0.55,2.35,10,initial,36.05,328,361,393,0,0,9,9,9,0,0,,,,,,,3,0,3,0,0,32,32,32,,,,,,,,,,,,num_3,0.8993203002028167,num_3,0.55,1,0.55,1,21.01303,38.2055,return,0.922729300102219,,,,,,,,,,,,,,,,,911,24,female,up_down_width,2024-10-21_10h47.44.130,exp1,2023.1.0,60.204188594988665,
,,,,,,,,,,,,,,,,4,8.65,9.55,10.45,11.35,0,0.9,0.35,0.55,3.25,10,initial,36.05,312,344,377,409,0,9,9,9,9,0,,,,,,,3,0,3,0,0,33,33,11,,,,,,,,,,,,num_4,0.8737284000962973,num_4,0.25,1.3,0.49999999999999994,0.9,19.10275,34.38495,return,6.25677049998194,,,,,,,,,,,,,,,,,911,24,female,up_down_width,2024-10-21_10h47.44.130,exp1,2023.1.0,60.204188594988665,
,,,,,,,,,,,,,,,,5,8.2,9.1,10,10.9,11.8,0.9,0.35,0.55,4.15,10,initial,36.05,296,328,361,393,425,9,9,9,9,9,,,,,,,3,0,3,0,0,34,34,48,,,,,,,,,,,,num_4,1.0539577000308782,num_4,0.45,0.7,0.5,0.8,19.10275,30.5644,return,1.9687848000321537,,,,,,,,,,,,,,,,,911,24,female,up_down_width,2024-10-21_10h47.44.130,exp1,2023.1.0,60.204188594988665,
,,,,,,,,,,,,,,,,3,9.1,10,10.9,0,0,0.9,0.35,0.55,2.35,10,initial,36.05,328,361,393,0,0,9,9,9,0,0,,,,,,,3,0,3,0,0,35,35,1,,,,,,,,,,,,num_2,0.8529035001993179,num_2,0.2,1.2,0.5499999999999999,0.9,21.01303,34.38495,return,6.465768100228161,,,,,,,,,,,,,,,,,911,24,female,up_down_width,2024-10-21_10h47.44.130,exp1,2023.1.0,60.204188594988665,
,,,,,,,,,,,,,,,,3,9.1,10,10.9,0,0,0.9,0.35,0.55,2.35,10,initial,36.05,328,361,393,0,0,9,9,9,0,0,,,,,,,3,0,3,0,0,36,36,7,,,,,,,,,,,,num_3,0.9569379000458866,num_3,0.2,1,0.49999999999999994,0.9,19.10275,34.38495,return,4.261547100031748,,,,,,,,,,,,,,,,,911,24,female,up_down_width,2024-10-21_10h47.44.130,exp1,2023.1.0,60.204188594988665,
,,,,,,,,,,,,,,,,4,8.65,9.55,10.45,11.35,0,0.9,0.35,0.55,3.25,10,initial,36.05,312,344,377,409,0,9,9,9,9,0,,,,,,,3,0,3,0,0,37,37,42,,,,,,,,,,,,num_4,0.9464567000977695,num_4,0.5,0.6,0.5,0.8,19.10275,30.5644,return,5.0781199999619275,,,,,,,,,,,,,,,,,911,24,female,up_down_width,2024-10-21_10h47.44.130,exp1,2023.1.0,60.204188594988665,
,,,,,,,,,,,,,,,,4,8.65,9.55,10.45,11.35,0,0.9,0.35,0.55,3.25,10,initial,36.05,312,344,377,409,0,9,9,9,9,0,,,,,,,3,0,3,0,0,38,38,37,,,,,,,,,,,,num_4,0.9740492000710219,num_4,0.35,1.1,0.49999999999999994,0.8,19.10275,30.5644,return,3.557956099975854,,,,,,,,,,,,,,,,,911,24,female,up_down_width,2024-10-21_10h47.44.130,exp1,2023.1.0,60.204188594988665,
,,,,,,,,,,,,,,,,5,8.2,9.1,10,10.9,11.8,0.9,0.35,0.55,4.15,10,initial,36.05,296,328,361,393,425,9,9,9,9,9,,,,,,,3,0,3,0,0,39,39,25,,,,,,,,,,,,num_5,1.066213499987498,num_5,0.5,0.9,0.5,0.9,19.10275,34.38495,return,1.1800293002743274,,,,,,,,,,,,,,,,,911,24,female,up_down_width,2024-10-21_10h47.44.130,exp1,2023.1.0,60.204188594988665,
,,,,,,,,,,,,,,,,4,8.65,9.55,10.45,11.35,0,0.9,0.35,0.55,3.25,10,initial,36.05,312,344,377,409,0,9,9,9,9,0,,,,,,,3,0,3,0,0,40,40,36,,,,,,,,,,,,num_4,1.0728311999700963,num_4,0.3,0.3,0.49999999999999994,0.8,19.10275,30.5644,return,4.943679900141433,,,,,,,,,,,,,,,,,911,24,female,up_down_width,2024-10-21_10h47.44.130,exp1,2023.1.0,60.204188594988665,
,,,,,,,,,,,,,,,,3,9.1,10,10.9,0,0,0.9,0.35,0.55,2.35,10,initial,36.05,328,361,393,0,0,9,9,9,0,0,,,,,,,3,0,3,0,0,41,41,29,,,,,,,,,,,,num_2,0.8563068001531065,num_2,0.2,1.2,0.44999999999999996,0.8,17.19248,30.5644,return,4.061576300067827,,,,,,,,,,,,,,,,,911,24,female,up_down_width,2024-10-21_10h47.44.130,exp1,2023.1.0,60.204188594988665,
,,,,,,,,,,,,,,,,5,8.2,9.1,10,10.9,11.8,0.9,0.35,0.55,4.15,10,initial,36.05,296,328,361,393,425,9,9,9,9,9,,,,,,,3,0,3,0,0,42,42,23,,,,,,,,,,,,num_5,1.0237617001403123,num_5,0.5,0.8,0.5,0.8,19.10275,30.5644,return,0.8353768002707511,,,,,,,,,,,,,,,,,911,24,female,up_down_width,2024-10-21_10h47.44.130,exp1,2023.1.0,60.204188594988665,
,,,,,,,,,,,,,,,,4,8.65,9.55,10.45,11.35,0,0.9,0.35,0.55,3.25,10,initial,36.05,312,344,377,409,0,9,9,9,9,0,,,,,,,3,0,3,0,0,43,43,43,,,,,,,,,,,,num_4,1.2686318000778556,num_4,0.25,1.0,0.5499999999999999,1.0,21.01303,38.2055,return,4.428416500333697,,,,,,,,,,,,,,,,,911,24,female,up_down_width,2024-10-21_10h47.44.130,exp1,2023.1.0,60.204188594988665,
,,,,,,,,,,,,,,,,3,9.1,10,10.9,0,0,0.9,0.35,0.55,2.35,10,initial,36.05,328,361,393,0,0,9,9,9,0,0,,,,,,,3,0,3,0,0,44,44,4,,,,,,,,,,,,num_3,0.952013700036332,num_3,0.2,0.7,0.39999999999999997,0.75,15.2822,28.65413,return,2.5774160001892596,,,,,,,,,,,,,,,,,911,24,female,up_down_width,2024-10-21_10h47.44.130,exp1,2023.1.0,60.204188594988665,
,,,,,,,,,,,,,,,,4,8.65,9.55,10.45,11.35,0,0.9,0.35,0.55,3.25,10,initial,36.05,312,344,377,409,0,9,9,9,9,0,,,,,,,3,0,3,0,0,45,45,41,,,,,,,,,,,,num_4,1.495653300313279,num_4,0.25,0.8,0.5499999999999999,0.9,21.01303,34.38495,return,7.515769600169733,,,,,,,,,,,,,,,,,911,24,female,up_down_width,2024-10-21_10h47.44.130,exp1,2023.1.0,60.204188594988665,
,,,,,,,,,,,,,,,,3,9.1,10,10.9,0,0,0.9,0.35,0.55,2.35,10,initial,36.05,328,361,393,0,0,9,9,9,0,0,,,,,,,3,0,3,0,0,46,46,35,,,,,,,,,,,,num_3,1.0183759001083672,num_3,0.35,0.9,0.6,1.0,22.9233,38.2055,return,3.85706750000827,,,,,,,,,,,,,,,,,911,24,female,up_down_width,2024-10-21_10h47.44.130,exp1,2023.1.0,60.204188594988665,
,,,,,,,,,,,,,,,,4,8.65,9.55,10.45,11.35,0,0.9,0.35,0.55,3.25,10,initial,36.05,312,344,377,409,0,9,9,9,9,0,,,,,,,3,0,3,0,0,47,47,38,,,,,,,,,,,,num_4,1.0312442001886666,num_4,0.5,1.0,0.5,1.0,19.10275,38.2055,return,1.1902110001537949,,,,,,,,,,,,,,,,,911,24,female,up_down_width,2024-10-21_10h47.44.130,exp1,2023.1.0,60.204188594988665,
,,,,,,,,,,,,,,,,3,9.1,10,10.9,0,0,0.9,0.35,0.55,2.35,10,initial,36.05,328,361,393,0,0,9,9,9,0,0,,,,,,,3,0,3,0,0,48,48,6,,,,,,,,,,,,num_3,0.8553594001568854,num_3,0.35,1.3,0.6,1.0,22.9233,38.2055,return,7.280893600080162,,,,,,,,,,,,,,,,,911,24,female,up_down_width,2024-10-21_10h47.44.130,exp1,2023.1.0,60.204188594988665,
,,,,,,,,,,,,,,,,3,9.1,10,10.9,0,0,0.9,0.35,0.55,2.35,10,initial,36.05,328,361,393,0,0,9,9,9,0,0,,,,,,,3,0,3,0,0,49,49,5,,,,,,,,,,,,num_3,1.2675892000552267,num_3,0.35,0.5,0.49999999999999994,0.9,19.10275,34.38495,return,7.4669807001482695,,,,,,,,,,,,,,,,,911,24,female,up_down_width,2024-10-21_10h47.44.130,exp1,2023.1.0,60.204188594988665,
,,,,,,,,,,,,,,,,3,9.1,10,10.9,0,0,0.9,0.35,0.55,2.35,10,initial,36.05,328,361,393,0,0,9,9,9,0,0,,,,,,,3,0,3,0,0,50,50,28,,,,,,,,,,,,num_3,1.4308407001663,num_3,0.25,1.3,0.5499999999999999,0.9,21.01303,34.38495,return,6.117819400271401,,,,,,,,,,,,,,,,,911,24,female,up_down_width,2024-10-21_10h47.44.130,exp1,2023.1.0,60.204188594988665,
,,,,,,,,,,,,,,,,4,8.65,9.55,10.45,11.35,0,0.9,0.35,0.55,3.25,10,initial,36.05,312,344,377,409,0,9,9,9,9,0,,,,,,,3,0,3,0,0,51,51,9,,,,,,,,,,,,num_4,1.0484566001687199,num_4,0.45,0.9,0.45,0.9,17.19248,34.38495,return,0.996403899975121,,,,,,,,,,,,,,,,,911,24,female,up_down_width,2024-10-21_10h47.44.130,exp1,2023.1.0,60.204188594988665,
,,,,,,,,,,,,,,,,4,8.65,9.55,10.45,11.35,0,0.9,0.35,0.55,3.25,10,initial,36.05,312,344,377,409,0,9,9,9,9,0,,,,,,,3,0,3,0,0,52,52,39,,,,,,,,,,,,num_4,0.9357160001527518,num_4,0.3,0.8,0.5499999999999999,0.9,21.01303,34.38495,return,3.3430321000050753,,,,,,,,,,,,,,,,,911,24,female,up_down_width,2024-10-21_10h47.44.130,exp1,2023.1.0,60.204188594988665,
,,,,,,,,,,,,,,,,5,8.2,9.1,10,10.9,11.8,0.9,0.35,0.55,4.15,10,initial,36.05,296,328,361,393,425,9,9,9,9,9,,,,,,,3,0,3,0,0,53,53,24,,,,,,,,,,,,num_5,1.0204228002112359,num_5,0.5,1.1,0.55,1.0,21.01303,38.2055,return,6.731318200007081,,,,,,,,,,,,,,,,,911,24,female,up_down_width,2024-10-21_10h47.44.130,exp1,2023.1.0,60.204188594988665,
,,,,,,,,,,,,,,,,,,,,,,,,,,,,,,,,,,,,,,,,,,,,,3,0,3,0,,,,,,,,,,,,,,,,,,,,,,,,,,,,,2431.6998981998768,2431.6998981998768,2431.6998981998768,,,,,,,,,,,,911,24,female,up_down_width,2024-10-21_10h47.44.130,exp1,2023.1.0,60.204188594988665,
,,,,,,,,,,,,,,,,5,9,9.5,10,10.5,11,0.5,0.25,0.25,2.25,10,initial,36.05,324,342,361,379,397,9,9,9,9,9,,,,,,,4,0,4,0,0,0,0,24,,,,,,,,,,,,num_4,1.2580225002020597,num_4,0.45,1.1,0.35000000000000003,0.6,13.37193,22.9233,return,5.8952884001191705,,,,,,,,,,,,,,,,,911,24,female,up_down_width,2024-10-21_10h47.44.130,exp1,2023.1.0,60.204188594988665,
,,,,,,,,,,,,,,,,4,9.25,9.75,10.25,10.75,0,0.5,0.25,0.25,1.75,10,initial,36.05,333,351,370,388,0,9,9,9,9,0,,,,,,,4,0,4,0,0,1,1,38,,,,,,,,,,,,num_4,1.4371232001576573,num_4,0.4,1.1,0.30000000000000004,0.6,11.46165,22.9233,return,3.692708100192249,,,,,,,,,,,,,,,,,911,24,female,up_down_width,2024-10-21_10h47.44.130,exp1,2023.1.0,60.204188594988665,
,,,,,,,,,,,,,,,,3,9.5,10,10.5,0,0,0.5,0.25,0.25,1.25,10,initial,36.05,342,361,379,0,0,9,9,9,0,0,,,,,,,4,0,4,0,0,2,2,35,,,,,,,,,,,,num_3,0.9985887000802904,num_3,0.2,0.9,0.25,0.55,9.55138,21.01303,return,3.2701291001867503,,,,,,,,,,,,,,,,,911,24,female,up_down_width,2024-10-21_10h47.44.130,exp1,2023.1.0,60.204188594988665,
,,,,,,,,,,,,,,,,4,9.25,9.75,10.25,10.75,0,0.5,0.25,0.25,1.75,10,initial,36.05,333,351,370,388,0,9,9,9,9,0,,,,,,,4,0,4,0,0,3,3,12,,,,,,,,,,,,num_4,0.9156339003238827,num_4,0.3,1.2,0.25,0.6,9.55138,22.9233,return,3.9661809999961406,,,,,,,,,,,,,,,,,911,24,female,up_down_width,2024-10-21_10h47.44.130,exp1,2023.1.0,60.204188594988665,
,,,,,,,,,,,,,,,,5,9,9.5,10,10.5,11,0.5,0.25,0.25,2.25,10,initial,36.05,324,342,361,379,397,9,9,9,9,9,,,,,,,4,0,4,0,0,4,4,51,,,,,,,,,,,,num_5,1.0198925000149757,num_5,0.45,0.5,0.25000000000000006,0.5,9.55138,19.10275,return,4.857954300008714,,,,,,,,,,,,,,,,,911,24,female,up_down_width,2024-10-21_10h47.44.130,exp1,2023.1.0,60.204188594988665,
,,,,,,,,,,,,,,,,5,9,9.5,10,10.5,11,0.5,0.25,0.25,2.25,10,initial,36.05,324,342,361,379,397,9,9,9,9,9,,,,,,,4,0,4,0,0,5,5,49,,,,,,,,,,,,num_5,1.1698491000570357,num_5,0.2,1.3,0.3,0.6,11.46165,22.9233,return,10.17044090013951,,,,,,,,,,,,,,,,,911,24,female,up_down_width,2024-10-21_10h47.44.130,exp1,2023.1.0,60.204188594988665,
,,,,,,,,,,,,,,,,3,9.5,10,10.5,0,0,0.5,0.25,0.25,1.25,10,initial,36.05,342,361,379,0,0,9,9,9,0,0,,,,,,,4,0,4,0,0,6,6,7,,,,,,,,,,,,num_3,1.0535483001731336,num_3,0.35,0.5,0.3,0.5,11.46165,19.10275,return,3.889225800288841,,,,,,,,,,,,,,,,,911,24,female,up_down_width,2024-10-21_10h47.44.130,exp1,2023.1.0,60.204188594988665,
,,,,,,,,,,,,,,,,4,9.25,9.75,10.25,10.75,0,0.5,0.25,0.25,1.75,10,initial,36.05,333,351,370,388,0,9,9,9,9,0,,,,,,,4,0,4,0,0,7,7,43,,,,,,,,,,,,num_4,1.0111573000904173,num_4,0.55,0.9,0.30000000000000004,0.6,11.46165,22.9233,return,4.933310300111771,,,,,,,,,,,,,,,,,911,24,female,up_down_width,2024-10-21_10h47.44.130,exp1,2023.1.0,60.204188594988665,
,,,,,,,,,,,,,,,,4,9.25,9.75,10.25,10.75,0,0.5,0.25,0.25,1.75,10,initial,36.05,333,351,370,388,0,9,9,9,9,0,,,,,,,4,0,4,0,0,8,8,17,,,,,,,,,,,,num_4,1.3869661001954228,num_4,0.25,1.0,0.25,0.6,9.55138,22.9233,return,2.866307800170034,,,,,,,,,,,,,,,,,911,24,female,up_down_width,2024-10-21_10h47.44.130,exp1,2023.1.0,60.204188594988665,
,,,,,,,,,,,,,,,,3,9.5,10,10.5,0,0,0.5,0.25,0.25,1.25,10,initial,36.05,342,361,379,0,0,9,9,9,0,0,,,,,,,4,0,4,0,0,9,9,5,,,,,,,,,,,,num_3,0.8013462000526488,num_3,0.35,0.5,0.25,0.5,9.55138,19.10275,return,2.4469955002423376,,,,,,,,,,,,,,,,,911,24,female,up_down_width,2024-10-21_10h47.44.130,exp1,2023.1.0,60.204188594988665,
,,,,,,,,,,,,,,,,5,9,9.5,10,10.5,11,0.5,0.25,0.25,2.25,10,initial,36.05,324,342,361,379,397,9,9,9,9,9,,,,,,,4,0,4,0,0,10,10,50,,,,,,,,,,,,num_4,0.9455426000058651,num_4,0.45,0.8,0.25000000000000006,0.6,9.55138,22.9233,return,2.534225400304422,,,,,,,,,,,,,,,,,911,24,female,up_down_width,2024-10-21_10h47.44.130,exp1,2023.1.0,60.204188594988665,
,,,,,,,,,,,,,,,,4,9.25,9.75,10.25,10.75,0,0.5,0.25,0.25,1.75,10,initial,36.05,333,351,370,388,0,9,9,9,9,0,,,,,,,4,0,4,0,0,11,11,9,,,,,,,,,,,,num_4,0.9086199002340436,num_4,0.25,1.3,0.25,0.5,9.55138,19.10275,return,5.6386581000406295,,,,,,,,,,,,,,,,,911,24,female,up_down_width,2024-10-21_10h47.44.130,exp1,2023.1.0,60.204188594988665,
,,,,,,,,,,,,,,,,4,9.25,9.75,10.25,10.75,0,0.5,0.25,0.25,1.75,10,initial,36.05,333,351,370,388,0,9,9,9,9,0,,,,,,,4,0,4,0,0,12,12,15,,,,,,,,,,,,num_4,0.9656322002410889,num_4,0.45,0.5,0.30000000000000004,0.5,11.46165,19.10275,return,6.555192900123075,,,,,,,,,,,,,,,,,911,24,female,up_down_width,2024-10-21_10h47.44.130,exp1,2023.1.0,60.204188594988665,
,,,,,,,,,,,,,,,,5,9,9.5,10,10.5,11,0.5,0.25,0.25,2.25,10,initial,36.05,324,342,361,379,397,9,9,9,9,9,,,,,,,4,0,4,0,0,13,13,52,,,,,,,,,,,,num_5,1.2153304000385106,num_5,0.2,0.6,0.2,0.45,7.6411,17.19248,return,2.751108700176701,,,,,,,,,,,,,,,,,911,24,female,up_down_width,2024-10-21_10h47.44.130,exp1,2023.1.0,60.204188594988665,
,,,,,,,,,,,,,,,,3,9.5,10,10.5,0,0,0.5,0.25,0.25,1.25,10,initial,36.05,342,361,379,0,0,9,9,9,0,0,,,,,,,4,0,4,0,0,14,14,4,,,,,,,,,,,,num_2,0.9673484999220818,num_2,0.5,1.0,0.35000000000000003,0.7,13.37193,26.74385,return,3.867918699979782,,,,,,,,,,,,,,,,,911,24,female,up_down_width,2024-10-21_10h47.44.130,exp1,2023.1.0,60.204188594988665,
,,,,,,,,,,,,,,,,4,9.25,9.75,10.25,10.75,0,0.5,0.25,0.25,1.75,10,initial,36.05,333,351,370,388,0,9,9,9,9,0,,,,,,,4,0,4,0,0,15,15,13,,,,,,,,,,,,num_4,1.0132717001251876,num_4,0.55,1.2,0.30000000000000004,0.7,11.46165,26.74385,return,5.563897900050506,,,,,,,,,,,,,,,,,911,24,female,up_down_width,2024-10-21_10h47.44.130,exp1,2023.1.0,60.204188594988665,
,,,,,,,,,,,,,,,,4,9.25,9.75,10.25,10.75,0,0.5,0.25,0.25,1.75,10,initial,36.05,333,351,370,388,0,9,9,9,9,0,,,,,,,4,0,4,0,0,16,16,42,,,,,,,,,,,,num_4,0.8908644001930952,num_4,0.25,0.7,0.25,0.6,9.55138,22.9233,return,1.8879569000564516,,,,,,,,,,,,,,,,,911,24,female,up_down_width,2024-10-21_10h47.44.130,exp1,2023.1.0,60.204188594988665,
,,,,,,,,,,,,,,,,4,9.25,9.75,10.25,10.75,0,0.5,0.25,0.25,1.75,10,initial,36.05,333,351,370,388,0,9,9,9,9,0,,,,,,,4,0,4,0,0,17,17,41,,,,,,,,,,,,num_3,1.2706780000589788,num_3,0.35,0.5,0.25,0.5,9.55138,19.10275,return,2.1919637001119554,,,,,,,,,,,,,,,,,911,24,female,up_down_width,2024-10-21_10h47.44.130,exp1,2023.1.0,60.204188594988665,
,,,,,,,,,,,,,,,,3,9.5,10,10.5,0,0,0.5,0.25,0.25,1.25,10,initial,36.05,342,361,379,0,0,9,9,9,0,0,,,,,,,4,0,4,0,0,18,18,33,,,,,,,,,,,,num_3,0.8510475000366569,num_3,0.35,0.9,0.3,0.65,11.46165,24.83358,return,6.2798327000346035,,,,,,,,,,,,,,,,,911,24,female,up_down_width,2024-10-21_10h47.44.130,exp1,2023.1.0,60.204188594988665,
,,,,,,,,,,,,,,,,3,9.5,10,10.5,0,0,0.5,0.25,0.25,1.25,10,initial,36.05,342,361,379,0,0,9,9,9,0,0,,,,,,,4,0,4,0,0,19,19,6,,,,,,,,,,,,num_3,0.8800570000894368,num_3,0.25,1.3,0.3,0.75,11.46165,28.65413,return,4.813806400168687,,,,,,,,,,,,,,,,,911,24,female,up_down_width,2024-10-21_10h47.44.130,exp1,2023.1.0,60.204188594988665,
,,,,,,,,,,,,,,,,3,9.5,10,10.5,0,0,0.5,0.25,0.25,1.25,10,initial,36.05,342,361,379,0,0,9,9,9,0,0,,,,,,,4,0,4,0,0,20,20,28,,,,,,,,,,,,num_3,2.6452866001054645,num_3,0.3,0.8,0.25,0.7,9.55138,26.74385,return,3.2222190001048148,,,,,,,,,,,,,,,,,911,24,female,up_down_width,2024-10-21_10h47.44.130,exp1,2023.1.0,60.204188594988665,
,,,,,,,,,,,,,,,,4,9.25,9.75,10.25,10.75,0,0.5,0.25,0.25,1.75,10,initial,36.05,333,351,370,388,0,9,9,9,9,0,,,,,,,4,0,4,0,0,21,21,10,,,,,,,,,,,,num_4,0.9307370001915842,num_4,0.45,1.1,0.25000000000000006,0.6,9.55138,22.9233,return,3.751581999938935,,,,,,,,,,,,,,,,,911,24,female,up_down_width,2024-10-21_10h47.44.130,exp1,2023.1.0,60.204188594988665,
,,,,,,,,,,,,,,,,4,9.25,9.75,10.25,10.75,0,0.5,0.25,0.25,1.75,10,initial,36.05,333,351,370,388,0,9,9,9,9,0,,,,,,,4,0,4,0,0,22,22,36,,,,,,,,,,,,num_4,0.855291600106284,num_4,0.5,1.3,0.30000000000000004,0.7,11.46165,26.74385,return,7.954646999947727,,,,,,,,,,,,,,,,,911,24,female,up_down_width,2024-10-21_10h47.44.130,exp1,2023.1.0,60.204188594988665,
,,,,,,,,,,,,,,,,5,9,9.5,10,10.5,11,0.5,0.25,0.25,2.25,10,initial,36.05,324,342,361,379,397,9,9,9,9,9,,,,,,,4,0,4,0,0,23,23,20,,,,,,,,,,,,num_5,1.0330887001473457,num_5,0.5,1.3,0.30000000000000004,0.6,11.46165,22.9233,return,7.230094100115821,,,,,,,,,,,,,,,,,911,24,female,up_down_width,2024-10-21_10h47.44.130,exp1,2023.1.0,60.204188594988665,
,,,,,,,,,,,,,,,,3,9.5,10,10.5,0,0,0.5,0.25,0.25,1.25,10,initial,36.05,342,361,379,0,0,9,9,9,0,0,,,,,,,4,0,4,0,0,24,24,2,,,,,,,,,,,,num_2,0.8145954001229256,num_2,0.25,0.6,0.25,0.6,9.55138,22.9233,return,4.61232510022819,,,,,,,,,,,,,,,,,911,24,female,up_down_width,2024-10-21_10h47.44.130,exp1,2023.1.0,60.204188594988665,
,,,,,,,,,,,,,,,,4,9.25,9.75,10.25,10.75,0,0.5,0.25,0.25,1.75,10,initial,36.05,333,351,370,388,0,9,9,9,9,0,,,,,,,4,0,4,0,0,25,25,40,,,,,,,,,,,,num_4,0.984483600128442,num_4,0.2,0.3,0.2,0.5,7.6411,19.10275,return,5.161941000260413,,,,,,,,,,,,,,,,,911,24,female,up_down_width,2024-10-21_10h47.44.130,exp1,2023.1.0,60.204188594988665,
,,,,,,,,,,,,,,,,3,9.5,10,10.5,0,0,0.5,0.25,0.25,1.25,10,initial,36.05,342,361,379,0,0,9,9,9,0,0,,,,,,,4,0,4,0,0,26,26,30,,,,,,,,,,,,num_3,1.0118651001248509,num_3,0.45,1.3,0.25000000000000006,0.65,9.55138,24.83358,return,8.169662400148809,,,,,,,,,,,,,,,,,911,24,female,up_down_width,2024-10-21_10h47.44.130,exp1,2023.1.0,60.204188594988665,
,,,,,,,,,,,,,,,,3,9.5,10,10.5,0,0,0.5,0.25,0.25,1.25,10,initial,36.05,342,361,379,0,0,9,9,9,0,0,,,,,,,4,0,4,0,0,27,27,8,,,,,,,,,,,,num_3,1.126932400278747,num_3,0.3,0.4,0.2,0.5,7.6411,19.10275,return,2.7764278003014624,,,,,,,,,,,,,,,,,911,24,female,up_down_width,2024-10-21_10h47.44.130,exp1,2023.1.0,60.204188594988665,
,,,,,,,,,,,,,,,,5,9,9.5,10,10.5,11,0.5,0.25,0.25,2.25,10,initial,36.05,324,342,361,379,397,9,9,9,9,9,,,,,,,4,0,4,0,0,28,28,53,,,,,,,,,,,,num_5,1.1160452000331134,num_5,0.2,0.4,0.2,0.45,7.6411,17.19248,return,6.537753300275654,,,,,,,,,,,,,,,,,911,24,female,up_down_width,2024-10-21_10h47.44.130,exp1,2023.1.0,60.204188594988665,
,,,,,,,,,,,,,,,,3,9.5,10,10.5,0,0,0.5,0.25,0.25,1.25,10,initial,36.05,342,361,379,0,0,9,9,9,0,0,,,,,,,4,0,4,0,0,29,29,34,,,,,,,,,,,,num_2,0.9765723999589682,num_2,0.55,1.2,0.4,0.9,15.2822,34.38495,return,4.770370200043544,,,,,,,,,,,,,,,,,911,24,female,up_down_width,2024-10-21_10h47.44.130,exp1,2023.1.0,60.204188594988665,
,,,,,,,,,,,,,,,,5,9,9.5,10,10.5,11,0.5,0.25,0.25,2.25,10,initial,36.05,324,342,361,379,397,9,9,9,9,9,,,,,,,4,0,4,0,0,30,30,26,,,,,,,,,,,,num_5,1.07289810013026,num_5,0.35,1.3,0.25,0.65,9.55138,24.83358,return,6.757193700177595,,,,,,,,,,,,,,,,,911,24,female,up_down_width,2024-10-21_10h47.44.130,exp1,2023.1.0,60.204188594988665,
,,,,,,,,,,,,,,,,4,9.25,9.75,10.25,10.75,0,0.5,0.25,0.25,1.75,10,initial,36.05,333,351,370,388,0,9,9,9,9,0,,,,,,,4,0,4,0,0,31,31,39,,,,,,,,,,,,num_4,1.0122074000537395,num_4,0.25,1.1,0.25,0.6,9.55138,22.9233,return,3.234279700089246,,,,,,,,,,,,,,,,,911,24,female,up_down_width,2024-10-21_10h47.44.130,exp1,2023.1.0,60.204188594988665,
,,,,,,,,,,,,,,,,5,9,9.5,10,10.5,11,0.5,0.25,0.25,2.25,10,initial,36.05,324,342,361,379,397,9,9,9,9,9,,,,,,,4,0,4,0,0,32,32,21,,,,,,,,,,,,num_5,0.965989800170064,num_5,0.3,1.2,0.25,0.5,9.55138,19.10275,return,5.880224000196904,,,,,,,,,,,,,,,,,911,24,female,up_down_width,2024-10-21_10h47.44.130,exp1,2023.1.0,60.204188594988665,
,,,,,,,,,,,,,,,,5,9,9.5,10,10.5,11,0.5,0.25,0.25,2.25,10,initial,36.05,324,342,361,379,397,9,9,9,9,9,,,,,,,4,0,4,0,0,33,33,46,,,,,,,,,,,,num_5,0.8846712000668049,num_5,0.2,1.1,0.25,0.5,9.55138,19.10275,return,6.027978800004348,,,,,,,,,,,,,,,,,911,24,female,up_down_width,2024-10-21_10h47.44.130,exp1,2023.1.0,60.204188594988665,
,,,,,,,,,,,,,,,,3,9.5,10,10.5,0,0,0.5,0.25,0.25,1.25,10,initial,36.05,342,361,379,0,0,9,9,9,0,0,,,,,,,4,0,4,0,0,34,34,29,,,,,,,,,,,,num_3,0.8758056000806391,num_3,0.35,1.2,0.3,0.65,11.46165,24.83358,return,8.0180015002843,,,,,,,,,,,,,,,,,911,24,female,up_down_width,2024-10-21_10h47.44.130,exp1,2023.1.0,60.204188594988665,
,,,,,,,,,,,,,,,,5,9,9.5,10,10.5,11,0.5,0.25,0.25,2.25,10,initial,36.05,324,342,361,379,397,9,9,9,9,9,,,,,,,4,0,4,0,0,35,35,45,,,,,,,,,,,,num_5,0.8992747000884265,num_5,0.2,0.4,0.2,0.45,7.6411,17.19248,return,1.4994030999951065,,,,,,,,,,,,,,,,,911,24,female,up_down_width,2024-10-21_10h47.44.130,exp1,2023.1.0,60.204188594988665,
,,,,,,,,,,,,,,,,5,9,9.5,10,10.5,11,0.5,0.25,0.25,2.25,10,initial,36.05,324,342,361,379,397,9,9,9,9,9,,,,,,,4,0,4,0,0,36,36,48,,,,,,,,,,,,num_5,0.9862193001899868,num_5,0.5,0.9,0.30000000000000004,0.65,11.46165,24.83358,return,4.415104600135237,,,,,,,,,,,,,,,,,911,24,female,up_down_width,2024-10-21_10h47.44.130,exp1,2023.1.0,60.204188594988665,
,,,,,,,,,,,,,,,,3,9.5,10,10.5,0,0,0.5,0.25,0.25,1.25,10,initial,36.05,342,361,379,0,0,9,9,9,0,0,,,,,,,4,0,4,0,0,37,37,32,,,,,,,,,,,,num_3,0.8561672002542764,num_3,0.3,1,0.25,0.6,9.55138,22.9233,return,4.901247000088915,,,,,,,,,,,,,,,,,911,24,female,up_down_width,2024-10-21_10h47.44.130,exp1,2023.1.0,60.204188594988665,
,,,,,,,,,,,,,,,,4,9.25,9.75,10.25,10.75,0,0.5,0.25,0.25,1.75,10,initial,36.05,333,351,370,388,0,9,9,9,9,0,,,,,,,4,0,4,0,0,38,38,44,,,,,,,,,,,,num_4,2.670686900150031,num_4,0.45,1.1,0.25000000000000006,0.6,9.55138,22.9233,return,6.22065190016292,,,,,,,,,,,,,,,,,911,24,female,up_down_width,2024-10-21_10h47.44.130,exp1,2023.1.0,60.204188594988665,
,,,,,,,,,,,,,,,,3,9.5,10,10.5,0,0,0.5,0.25,0.25,1.25,10,initial,36.05,342,361,379,0,0,9,9,9,0,0,,,,,,,4,0,4,0,0,39,39,27,,,,,,,,,,,,num_3,0.9591034001205117,num_3,0.55,0.6,0.30000000000000004,0.65,11.46165,24.83358,return,4.148221100214869,,,,,,,,,,,,,,,,,911,24,female,up_down_width,2024-10-21_10h47.44.130,exp1,2023.1.0,60.204188594988665,
,,,,,,,,,,,,,,,,5,9,9.5,10,10.5,11,0.5,0.25,0.25,2.25,10,initial,36.05,324,342,361,379,397,9,9,9,9,9,,,,,,,4,0,4,0,0,40,40,22,,,,,,,,,,,,num_5,1.1908683001529425,num_5,0.5,1.3,0.25000000000000006,0.7,9.55138,26.74385,return,14.783115500118583,,,,,,,,,,,,,,,,,911,24,female,up_down_width,2024-10-21_10h47.44.130,exp1,2023.1.0,60.204188594988665,
,,,,,,,,,,,,,,,,4,9.25,9.75,10.25,10.75,0,0.5,0.25,0.25,1.75,10,initial,36.05,333,351,370,388,0,9,9,9,9,0,,,,,,,4,0,4,0,0,41,41,14,,,,,,,,,,,,num_4,1.1832762002013624,num_4,0.55,1.2,0.30000000000000004,0.7,11.46165,26.74385,return,4.959393100114539,,,,,,,,,,,,,,,,,911,24,female,up_down_width,2024-10-21_10h47.44.130,exp1,2023.1.0,60.204188594988665,
,,,,,,,,,,,,,,,,3,9.5,10,10.5,0,0,0.5,0.25,0.25,1.25,10,initial,36.05,342,361,379,0,0,9,9,9,0,0,,,,,,,4,0,4,0,0,42,42,1,,,,,,,,,,,,num_3,0.8858373002149165,num_3,0.5,1.1,0.30000000000000004,0.7,11.46165,26.74385,return,6.909025400178507,,,,,,,,,,,,,,,,,911,24,female,up_down_width,2024-10-21_10h47.44.130,exp1,2023.1.0,60.204188594988665,
,,,,,,,,,,,,,,,,4,9.25,9.75,10.25,10.75,0,0.5,0.25,0.25,1.75,10,initial,36.05,333,351,370,388,0,9,9,9,9,0,,,,,,,4,0,4,0,0,43,43,16,,,,,,,,,,,,num_4,0.9768489999696612,num_4,0.5,1.3,0.35000000000000003,0.8,13.37193,30.5644,return,3.187806300120428,,,,,,,,,,,,,,,,,911,24,female,up_down_width,2024-10-21_10h47.44.130,exp1,2023.1.0,60.204188594988665,
,,,,,,,,,,,,,,,,5,9,9.5,10,10.5,11,0.5,0.25,0.25,2.25,10,initial,36.05,324,342,361,379,397,9,9,9,9,9,,,,,,,4,0,4,0,0,44,44,23,,,,,,,,,,,,num_5,0.8737675002776086,num_5,0.2,1.2,0.25,0.6,9.55138,22.9233,return,3.860768500249833,,,,,,,,,,,,,,,,,911,24,female,up_down_width,2024-10-21_10h47.44.130,exp1,2023.1.0,60.204188594988665,
,,,,,,,,,,,,,,,,3,9.5,10,10.5,0,0,0.5,0.25,0.25,1.25,10,initial,36.05,342,361,379,0,0,9,9,9,0,0,,,,,,,4,0,4,0,0,45,45,3,,,,,,,,,,,,num_3,0.9426090999040753,num_3,0.35,0.4,0.25,0.55,9.55138,21.01303,return,3.7989996999967843,,,,,,,,,,,,,,,,,911,24,female,up_down_width,2024-10-21_10h47.44.130,exp1,2023.1.0,60.204188594988665,
,,,,,,,,,,,,,,,,5,9,9.5,10,10.5,11,0.5,0.25,0.25,2.25,10,initial,36.05,324,342,361,379,397,9,9,9,9,9,,,,,,,4,0,4,0,0,46,46,18,,,,,,,,,,,,num_5,0.8658923001494259,num_5,0.3,0.8,0.25,0.55,9.55138,21.01303,return,3.6924983002245426,,,,,,,,,,,,,,,,,911,24,female,up_down_width,2024-10-21_10h47.44.130,exp1,2023.1.0,60.204188594988665,
,,,,,,,,,,,,,,,,5,9,9.5,10,10.5,11,0.5,0.25,0.25,2.25,10,initial,36.05,324,342,361,379,397,9,9,9,9,9,,,,,,,4,0,4,0,0,47,47,25,,,,,,,,,,,,num_5,0.8953971001319587,num_5,0.3,0.5,0.25,0.55,9.55138,21.01303,return,2.1515087001025677,,,,,,,,,,,,,,,,,911,24,female,up_down_width,2024-10-21_10h47.44.130,exp1,2023.1.0,60.204188594988665,
,,,,,,,,,,,,,,,,5,9,9.5,10,10.5,11,0.5,0.25,0.25,2.25,10,initial,36.05,324,342,361,379,397,9,9,9,9,9,,,,,,,4,0,4,0,0,48,48,47,,,,,,,,,,,,num_5,0.9280548000242561,num_5,0.4,1.2,0.30000000000000004,0.7,11.46165,26.74385,return,4.401763800298795,,,,,,,,,,,,,,,,,911,24,female,up_down_width,2024-10-21_10h47.44.130,exp1,2023.1.0,60.204188594988665,
,,,,,,,,,,,,,,,,5,9,9.5,10,10.5,11,0.5,0.25,0.25,2.25,10,initial,36.05,324,342,361,379,397,9,9,9,9,9,,,,,,,4,0,4,0,0,49,49,19,,,,,,,,,,,,num_5,0.902805499965325,num_5,0.55,1.1,0.25000000000000006,0.6,9.55138,22.9233,return,5.743309500161558,,,,,,,,,,,,,,,,,911,24,female,up_down_width,2024-10-21_10h47.44.130,exp1,2023.1.0,60.204188594988665,
,,,,,,,,,,,,,,,,4,9.25,9.75,10.25,10.75,0,0.5,0.25,0.25,1.75,10,initial,36.05,333,351,370,388,0,9,9,9,9,0,,,,,,,4,0,4,0,0,50,50,11,,,,,,,,,,,,num_3,1.69888720032759,num_3,0.55,0.6,0.35000000000000003,0.65,13.37193,24.83358,return,3.4223205000162125,,,,,,,,,,,,,,,,,911,24,female,up_down_width,2024-10-21_10h47.44.130,exp1,2023.1.0,60.204188594988665,
,,,,,,,,,,,,,,,,4,9.25,9.75,10.25,10.75,0,0.5,0.25,0.25,1.75,10,initial,36.05,333,351,370,388,0,9,9,9,9,0,,,,,,,4,0,4,0,0,51,51,37,,,,,,,,,,,,num_4,0.8244859001133591,num_4,0.2,0.6,0.2,0.6,7.6411,22.9233,return,0.9186485002283007,,,,,,,,,,,,,,,,,911,24,female,up_down_width,2024-10-21_10h47.44.130,exp1,2023.1.0,60.204188594988665,
,,,,,,,,,,,,,,,,3,9.5,10,10.5,0,0,0.5,0.25,0.25,1.25,10,initial,36.05,342,361,379,0,0,9,9,9,0,0,,,,,,,4,0,4,0,0,52,52,0,,,,,,,,,,,,num_3,0.7465737001039088,num_3,0.25,0.4,0.25,0.4,9.55138,15.2822,return,0.8899530002381653,,,,,,,,,,,,,,,,,911,24,female,up_down_width,2024-10-21_10h47.44.130,exp1,2023.1.0,60.204188594988665,
,,,,,,,,,,,,,,,,3,9.5,10,10.5,0,0,0.5,0.25,0.25,1.25,10,initial,36.05,342,361,379,0,0,9,9,9,0,0,,,,,,,4,0,4,0,0,53,53,31,,,,,,,,,,,,num_2,1.2020755000412464,num_2,0.55,1.2,0.20000000000000007,0.5,7.6411,19.10275,return,6.465357600245625,,,,,,,,,,,,,,,,,911,24,female,up_down_width,2024-10-21_10h47.44.130,exp1,2023.1.0,60.204188594988665,
,,,,,,,,,,,,,,,,,,,,,,,,,,,,,,,,,,,,,,,,,,,,,4,0,4,0,,,,,,,,,,,,,,,,,,,,,,,,,,,,,2882.265714999987,2882.265714999987,2882.265714999987,,,,,,,,,,,,911,24,female,up_down_width,2024-10-21_10h47.44.130,exp1,2023.1.0,60.204188594988665,
,,,,,,,,,,,,,,,,5,8.2,9.1,10,10.9,11.8,0.9,0.35,0.55,4.15,10,initial,36.05,296,328,361,393,425,9,9,9,9,9,,,,,,,5,0,5,0,0,0,0,23,,,,,,,,,,,,num_4,1.2016891001258045,num_4,0.3,0.9,0.6,0.9,22.9233,34.38495,return,2.649753199890256,,,,,,,,,,,,,,,,,911,24,female,up_down_width,2024-10-21_10h47.44.130,exp1,2023.1.0,60.204188594988665,
,,,,,,,,,,,,,,,,5,8.2,9.1,10,10.9,11.8,0.9,0.35,0.55,4.15,10,initial,36.05,296,328,361,393,425,9,9,9,9,9,,,,,,,5,0,5,0,0,1,1,25,,,,,,,,,,,,num_5,1.342794100055471,num_5,0.45,1.1,0.55,0.95,21.01303,36.29523,return,2.838605800177902,,,,,,,,,,,,,,,,,911,24,female,up_down_width,2024-10-21_10h47.44.130,exp1,2023.1.0,60.204188594988665,
,,,,,,,,,,,,,,,,4,8.65,9.55,10.45,11.35,0,0.9,0.35,0.55,3.25,10,initial,36.05,312,344,377,409,0,9,9,9,9,0,,,,,,,5,0,5,0,0,2,2,11,,,,,,,,,,,,num_3,0.7823159000836313,num_3,0.25,1.2,0.65,1.05,24.83358,40.11578,return,3.551123100100085,,,,,,,,,,,,,,,,,911,24,female,up_down_width,2024-10-21_10h47.44.130,exp1,2023.1.0,60.204188594988665,
,,,,,,,,,,,,,,,,5,8.2,9.1,10,10.9,11.8,0.9,0.35,0.55,4.15,10,initial,36.05,296,328,361,393,425,9,9,9,9,9,,,,,,,5,0,5,0,0,3,3,45,,,,,,,,,,,,num_5,1.0427831001579762,num_5,0.2,0.7,0.49999999999999994,0.8,19.10275,30.5644,return,3.489102500025183,,,,,,,,,,,,,,,,,911,24,female,up_down_width,2024-10-21_10h47.44.130,exp1,2023.1.0,60.204188594988665,
,,,,,,,,,,,,,,,,5,8.2,9.1,10,10.9,11.8,0.9,0.35,0.55,4.15,10,initial,36.05,296,328,361,393,425,9,9,9,9,9,,,,,,,5,0,5,0,0,4,4,26,,,,,,,,,,,,num_5,0.8208511001430452,num_5,0.2,0.6,0.49999999999999994,0.8,19.10275,30.5644,return,3.3104643002152443,,,,,,,,,,,,,,,,,911,24,female,up_down_width,2024-10-21_10h47.44.130,exp1,2023.1.0,60.204188594988665,
,,,,,,,,,,,,,,,,5,8.2,9.1,10,10.9,11.8,0.9,0.35,0.55,4.15,10,initial,36.05,296,328,361,393,425,9,9,9,9,9,,,,,,,5,0,5,0,0,5,5,21,,,,,,,,,,,,num_5,0.8082151000853628,num_5,0.55,1.1,0.5,0.9,19.10275,34.38495,return,3.5416896999813616,,,,,,,,,,,,,,,,,911,24,female,up_down_width,2024-10-21_10h47.44.130,exp1,2023.1.0,60.204188594988665,
,,,,,,,,,,,,,,,,5,8.2,9.1,10,10.9,11.8,0.9,0.35,0.55,4.15,10,initial,36.05,296,328,361,393,425,9,9,9,9,9,,,,,,,5,0,5,0,0,6,6,46,,,,,,,,,,,,num_5,1.119641900062561,num_5,0.45,1.0,0.5,0.8,19.10275,30.5644,return,2.0150321000255644,,,,,,,,,,,,,,,,,911,24,female,up_down_width,2024-10-21_10h47.44.130,exp1,2023.1.0,60.204188594988665,
,,,,,,,,,,,,,,,,4,8.65,9.55,10.45,11.35,0,0.9,0.35,0.55,3.25,10,initial,36.05,312,344,377,409,0,9,9,9,9,0,,,,,,,5,0,5,0,0,7,7,42,,,,,,,,,,,,num_4,0.7663034999277443,num_4,0.3,1.0,0.6,0.9,22.9233,34.38495,return,3.430622300133109,,,,,,,,,,,,,,,,,911,24,female,up_down_width,2024-10-21_10h47.44.130,exp1,2023.1.0,60.204188594988665,
,,,,,,,,,,,,,,,,4,8.65,9.55,10.45,11.35,0,0.9,0.35,0.55,3.25,10,initial,36.05,312,344,377,409,0,9,9,9,9,0,,,,,,,5,0,5,0,0,8,8,44,,,,,,,,,,,,num_4,1.170666600111872,num_4,0.5,1.2,0.55,0.8,21.01303,30.5644,return,3.822138100164011,,,,,,,,,,,,,,,,,911,24,female,up_down_width,2024-10-21_10h47.44.130,exp1,2023.1.0,60.204188594988665,
,,,,,,,,,,,,,,,,3,9.1,10,10.9,0,0,0.9,0.35,0.55,2.35,10,initial,36.05,328,361,393,0,0,9,9,9,0,0,,,,,,,5,0,5,0,0,9,9,31,,,,,,,,,,,,num_2,0.8104359002318233,num_2,0.45,0.6,0.55,0.9,21.01303,34.38495,return,2.5957005000673234,,,,,,,,,,,,,,,,,911,24,female,up_down_width,2024-10-21_10h47.44.130,exp1,2023.1.0,60.204188594988665,
,,,,,,,,,,,,,,,,4,8.65,9.55,10.45,11.35,0,0.9,0.35,0.55,3.25,10,initial,36.05,312,344,377,409,0,9,9,9,9,0,,,,,,,5,0,5,0,0,10,10,38,,,,,,,,,,,,num_3,1.2885235000867397,num_3,0.35,1.1,0.65,0.95,24.83358,36.29523,return,6.332201800076291,,,,,,,,,,,,,,,,,911,24,female,up_down_width,2024-10-21_10h47.44.130,exp1,2023.1.0,60.204188594988665,
