amount_p,posx1_p,posx2_p,posx3_p,posx4_p,posx5_p,center_to_center_p,edge_to_edge_p,w_p,stim_length_p,eccentricity_p,line1_p,line2_p,line3_p,line4_p,line5_p,amount,posx1,posx2,posx3,posx4,posx5,center_to_center,edge_to_edge,w,stim_length,eccentricity,trial_type,deg_to_pix_index,posx1_in_pix,posx2_in_pix,posx3_in_pix,posx4_in_pix,posx5_in_pix,line1,line2,line3,line4,line5,posx,setsize_cobdi,trials.thisRepN,trials.thisTrialN,trials.thisN,trials.thisIndex,blocks.thisRepN,blocks.thisTrialN,blocks.thisN,blocks.thisIndex,loop.thisRepN,loop.thisTrialN,loop.thisN,loop.thisIndex,first.thisRepN,first.thisTrialN,first.thisN,first.thisIndex,second.thisRepN,second.thisTrialN,second.thisN,second.thisIndex,key_resp_3.started,key_resp_3.keys,key_resp_3.rt,key_resp.keys,key_resp.rt,response,starting_width_deg,starting_space_deg,response_width_degree,response_spacing_degree,response_width_pixel,response_spacing_pixel,next_5.keys,next_5.rt,key_resp_4.keys,key_resp_4.rt,text_3.started,text_4.started,key_resp_2.started,text_2.started,key_resp_2.keys,key_resp_2.rt,adjusting.started,next.keys,next.rt,text_control2.started,key_resp.started,key_resp.corr,text_bye.started,text_bye.stopped,participant,age,gender,resp_group,date,expName,psychopyVersion,frameRate,
,,,,,,,,,,,,,,,,,,,,,,,,,,,,,,,,,,,,,,,,,,,,,,,,,,,,,,,,,,,,,38.60389950009994,c,148.37066249991767,,,,,,,,,,,,,,,,,,,,,,,,,,,,912,20,male,left_right_width,2024-10-21_11h50.01.950,exp1,2023.1.0,60.108905290156606,
5,9,9.5,10,10.5,11,0.5,0.1,0.4,2.4,10,9,9,9,9,9,,,,,,,,,,,,,,,,,,,,,,,,,,0,0,0,5,,,,,,,,,,,,,,,,,,,,num_4,3.73549439990893,num_4,0.3,1.1,0.3,0.8,11.46165,30.5644,return,13.728675399674103,,,,,,,,,,,,,,,,,912,20,male,left_right_width,2024-10-21_11h50.01.950,exp1,2023.1.0,60.108905290156606,
3,9.5,10,10.5,0,0,0.5,0.25,0.25,1.25,10,9,9,9,0,0,,,,,,,,,,,,,,,,,,,,,,,,,,0,1,1,0,,,,,,,,,,,,,,,,,,,,num_3,1.8686197998467833,num_3,0.3,1,0.25,0.65,9.55138,24.83358,return,8.057385599939153,,,,,,,,,,,,,,,,,912,20,male,left_right_width,2024-10-21_11h50.01.950,exp1,2023.1.0,60.108905290156606,
5,8.2,9.1,10,10.9,11.8,0.9,0.35,0.55,4.15,10,9,9,9,9,9,,,,,,,,,,,,,,,,,,,,,,,,,,0,2,2,2,,,,,,,,,,,,,,,,,,,,num_4,1.5514038000255823,num_4,0.55,0.6,0.35000000000000003,0.9,13.37193,34.38495,return,6.832387899979949,,,,,,,,,,,,,,,,,912,20,male,left_right_width,2024-10-21_11h50.01.950,exp1,2023.1.0,60.108905290156606,
3,9.1,10,10.9,0,0,0.9,0.35,0.55,2.35,10,9,9,9,0,0,,,,,,,,,,,,,,,,,,,,,,,,,,0,3,3,3,,,,,,,,,,,,,,,,,,,,num_3,1.415954299736768,num_3,0.4,0.7,0.35000000000000003,0.7,13.37193,26.74385,return,8.988158599939197,,,,,,,,,,,,,,,,,912,20,male,left_right_width,2024-10-21_11h50.01.950,exp1,2023.1.0,60.108905290156606,
4,9.25,9.75,10.25,10.75,0,0.5,0.1,0.4,1.9000000000000001,10,9,9,9,9,0,,,,,,,,,,,,,,,,,,,,,,,,,,0,4,4,4,,,,,,,,,,,,,,,,,,,,num_3,2.0726373998913914,num_3,0.45,0.6,0.30000000000000004,0.5,11.46165,19.10275,return,7.024679499911144,,,,,,,,,,,,,,,,,912,20,male,left_right_width,2024-10-21_11h50.01.950,exp1,2023.1.0,60.108905290156606,
4,9.25,9.75,10.25,10.75,0,0.5,0.25,0.25,1.75,10,9,9,9,9,0,,,,,,,,,,,,,,,,,,,,,,,,,,0,5,5,1,,,,,,,,,,,,,,,,,,,,num_4,1.244489399716258,num_4,0.25,0.5,0.2,0.5,7.6411,19.10275,return,5.864029999822378,,,,,,,,,,,,,,,,,912,20,male,left_right_width,2024-10-21_11h50.01.950,exp1,2023.1.0,60.108905290156606,
,,,,,,,,,,,,,,,,,,,,,,,,,,,,,,,,,,,,,,,,,,,,,,,,,,,,,,,,,,,,,,,,,,,,,,,,,,,c,79.0060886000283,,,,,,,,,,,,,,,912,20,male,left_right_width,2024-10-21_11h50.01.950,exp1,2023.1.0,60.108905290156606,
,,,,,,,,,,,,,,,,5,9,9.5,10,10.5,11,0.5,0.1,0.4,2.4,10,initial,36.05,324,342,361,379,397,9,9,9,9,9,,,,,,,0,0,0,0,0,0,0,51,,,,,,,,,,,,num_4,2.0559371998533607,num_4,0.4,0.6,0.30000000000000004,0.5,11.46165,19.10275,return,5.1497728000395,,,,,,,,,,,,,,,,,912,20,male,left_right_width,2024-10-21_11h50.01.950,exp1,2023.1.0,60.108905290156606,
,,,,,,,,,,,,,,,,3,9.5,10,10.5,0,0,0.5,0.1,0.4,1.4000000000000001,10,initial,36.05,342,361,379,0,0,9,9,9,0,0,,,,,,,0,0,0,0,0,1,1,35,,,,,,,,,,,,num_3,1.6132635998073965,num_3,0.25,1.1,0.3,0.5,11.46165,19.10275,return,6.082589499885216,,,,,,,,,,,,,,,,,912,20,male,left_right_width,2024-10-21_11h50.01.950,exp1,2023.1.0,60.108905290156606,
,,,,,,,,,,,,,,,,4,9.25,9.75,10.25,10.75,0,0.5,0.1,0.4,1.9000000000000001,10,initial,36.05,333,351,370,388,0,9,9,9,9,0,,,,,,,0,0,0,0,0,2,2,14,,,,,,,,,,,,num_3,1.391421499894932,num_3,0.2,0.6,0.3,0.45,11.46165,17.19248,return,5.266867199912667,,,,,,,,,,,,,,,,,912,20,male,left_right_width,2024-10-21_11h50.01.950,exp1,2023.1.0,60.108905290156606,
,,,,,,,,,,,,,,,,3,9.5,10,10.5,0,0,0.5,0.1,0.4,1.4000000000000001,10,initial,36.05,342,361,379,0,0,9,9,9,0,0,,,,,,,0,0,0,0,0,3,3,0,,,,,,,,,,,,num_3,1.9571592998690903,num_3,0.55,0.7,0.35000000000000003,0.5,13.37193,19.10275,return,7.9054333998356014,,,,,,,,,,,,,,,,,912,20,male,left_right_width,2024-10-21_11h50.01.950,exp1,2023.1.0,60.108905290156606,
,,,,,,,,,,,,,,,,3,9.5,10,10.5,0,0,0.5,0.1,0.4,1.4000000000000001,10,initial,36.05,342,361,379,0,0,9,9,9,0,0,,,,,,,0,0,0,0,0,4,4,6,,,,,,,,,,,,num_3,1.2610585999209434,num_3,0.4,1.1,0.35000000000000003,0.5,13.37193,19.10275,return,4.697991000022739,,,,,,,,,,,,,,,,,912,20,male,left_right_width,2024-10-21_11h50.01.950,exp1,2023.1.0,60.108905290156606,
,,,,,,,,,,,,,,,,5,9,9.5,10,10.5,11,0.5,0.1,0.4,2.4,10,initial,36.05,324,342,361,379,397,9,9,9,9,9,,,,,,,0,0,0,0,0,5,5,18,,,,,,,,,,,,num_4,1.0859213997609913,num_4,0.35,1.2,0.35,0.5,13.37193,19.10275,return,2.482627300079912,,,,,,,,,,,,,,,,,912,20,male,left_right_width,2024-10-21_11h50.01.950,exp1,2023.1.0,60.108905290156606,
,,,,,,,,,,,,,,,,3,9.5,10,10.5,0,0,0.5,0.1,0.4,1.4000000000000001,10,initial,36.05,342,361,379,0,0,9,9,9,0,0,,,,,,,0,0,0,0,0,6,6,3,,,,,,,,,,,,num_3,0.9825733997859061,num_3,0.2,0.4,0.3,0.45,11.46165,17.19248,return,7.433883799705654,,,,,,,,,,,,,,,,,912,20,male,left_right_width,2024-10-21_11h50.01.950,exp1,2023.1.0,60.108905290156606,
,,,,,,,,,,,,,,,,3,9.5,10,10.5,0,0,0.5,0.1,0.4,1.4000000000000001,10,initial,36.05,342,361,379,0,0,9,9,9,0,0,,,,,,,0,0,0,0,0,7,7,29,,,,,,,,,,,,num_3,1.1687588999047875,num_3,0.45,0.9,0.25000000000000006,0.45,9.55138,17.19248,return,3.915952699724585,,,,,,,,,,,,,,,,,912,20,male,left_right_width,2024-10-21_11h50.01.950,exp1,2023.1.0,60.108905290156606,
,,,,,,,,,,,,,,,,5,9,9.5,10,10.5,11,0.5,0.1,0.4,2.4,10,initial,36.05,324,342,361,379,397,9,9,9,9,9,,,,,,,0,0,0,0,0,8,8,47,,,,,,,,,,,,num_4,1.0411666999571025,num_4,0.55,1.1,0.35000000000000003,0.5,13.37193,19.10275,return,3.425455399788916,,,,,,,,,,,,,,,,,912,20,male,left_right_width,2024-10-21_11h50.01.950,exp1,2023.1.0,60.108905290156606,
,,,,,,,,,,,,,,,,5,9,9.5,10,10.5,11,0.5,0.1,0.4,2.4,10,initial,36.05,324,342,361,379,397,9,9,9,9,9,,,,,,,0,0,0,0,0,9,9,24,,,,,,,,,,,,num_4,2.2768213998060673,num_4,0.45,0.6,0.4,0.5,15.2822,19.10275,return,4.243821399752051,,,,,,,,,,,,,,,,,912,20,male,left_right_width,2024-10-21_11h50.01.950,exp1,2023.1.0,60.108905290156606,
,,,,,,,,,,,,,,,,4,9.25,9.75,10.25,10.75,0,0.5,0.1,0.4,1.9000000000000001,10,initial,36.05,333,351,370,388,0,9,9,9,9,0,,,,,,,0,0,0,0,0,10,10,10,,,,,,,,,,,,num_4,1.0558603000827134,num_4,0.45,1.1,0.4,0.5,15.2822,19.10275,return,2.9918515998870134,,,,,,,,,,,,,,,,,912,20,male,left_right_width,2024-10-21_11h50.01.950,exp1,2023.1.0,60.108905290156606,
,,,,,,,,,,,,,,,,4,9.25,9.75,10.25,10.75,0,0.5,0.1,0.4,1.9000000000000001,10,initial,36.05,333,351,370,388,0,9,9,9,9,0,,,,,,,0,0,0,0,0,11,11,17,,,,,,,,,,,,num_4,1.168495599878952,num_4,0.2,0.9,0.25,0.4,9.55138,15.2822,return,12.170461499830708,,,,,,,,,,,,,,,,,912,20,male,left_right_width,2024-10-21_11h50.01.950,exp1,2023.1.0,60.108905290156606,
,,,,,,,,,,,,,,,,4,9.25,9.75,10.25,10.75,0,0.5,0.1,0.4,1.9000000000000001,10,initial,36.05,333,351,370,388,0,9,9,9,9,0,,,,,,,0,0,0,0,0,12,12,9,,,,,,,,,,,,num_4,1.0744274000171572,num_4,0.4,1.2,0.35000000000000003,0.5,13.37193,19.10275,return,2.645263999933377,,,,,,,,,,,,,,,,,912,20,male,left_right_width,2024-10-21_11h50.01.950,exp1,2023.1.0,60.108905290156606,
,,,,,,,,,,,,,,,,3,9.5,10,10.5,0,0,0.5,0.1,0.4,1.4000000000000001,10,initial,36.05,342,361,379,0,0,9,9,9,0,0,,,,,,,0,0,0,0,0,13,13,32,,,,,,,,,,,,num_3,0.9791224000509828,num_3,0.2,0.6,0.3,0.45,11.46165,17.19248,return,3.9925684998743236,,,,,,,,,,,,,,,,,912,20,male,left_right_width,2024-10-21_11h50.01.950,exp1,2023.1.0,60.108905290156606,
,,,,,,,,,,,,,,,,5,9,9.5,10,10.5,11,0.5,0.1,0.4,2.4,10,initial,36.05,324,342,361,379,397,9,9,9,9,9,,,,,,,0,0,0,0,0,14,14,19,,,,,,,,,,,,num_4,0.9270785998087376,num_4,0.3,0.9,0.3,0.5,11.46165,19.10275,return,5.187055599875748,,,,,,,,,,,,,,,,,912,20,male,left_right_width,2024-10-21_11h50.01.950,exp1,2023.1.0,60.108905290156606,
,,,,,,,,,,,,,,,,4,9.25,9.75,10.25,10.75,0,0.5,0.1,0.4,1.9000000000000001,10,initial,36.05,333,351,370,388,0,9,9,9,9,0,,,,,,,0,0,0,0,0,15,15,42,,,,,,,,,,,,num_4,1.5539734999183565,num_4,0.35,1.3,0.25,0.5,9.55138,19.10275,return,5.5023707000073045,,,,,,,,,,,,,,,,,912,20,male,left_right_width,2024-10-21_11h50.01.950,exp1,2023.1.0,60.108905290156606,
,,,,,,,,,,,,,,,,5,9,9.5,10,10.5,11,0.5,0.1,0.4,2.4,10,initial,36.05,324,342,361,379,397,9,9,9,9,9,,,,,,,0,0,0,0,0,16,16,45,,,,,,,,,,,,num_5,0.8664491998497397,num_5,0.25,0.3,0.25,0.4,9.55138,15.2822,return,5.099333700025454,,,,,,,,,,,,,,,,,912,20,male,left_right_width,2024-10-21_11h50.01.950,exp1,2023.1.0,60.108905290156606,
,,,,,,,,,,,,,,,,5,9,9.5,10,10.5,11,0.5,0.1,0.4,2.4,10,initial,36.05,324,342,361,379,397,9,9,9,9,9,,,,,,,0,0,0,0,0,17,17,46,,,,,,,,,,,,num_4,3.40913929999806,num_4,0.5,0.7,0.30000000000000004,0.6,11.46165,22.9233,return,10.113686799770221,,,,,,,,,,,,,,,,,912,20,male,left_right_width,2024-10-21_11h50.01.950,exp1,2023.1.0,60.108905290156606,
,,,,,,,,,,,,,,,,5,9,9.5,10,10.5,11,0.5,0.1,0.4,2.4,10,initial,36.05,324,342,361,379,397,9,9,9,9,9,,,,,,,0,0,0,0,0,18,18,22,,,,,,,,,,,,num_5,0.9930404997430742,num_5,0.25,1.0,0.25,0.45,9.55138,17.19248,return,3.908163100015372,,,,,,,,,,,,,,,,,912,20,male,left_right_width,2024-10-21_11h50.01.950,exp1,2023.1.0,60.108905290156606,
,,,,,,,,,,,,,,,,3,9.5,10,10.5,0,0,0.5,0.1,0.4,1.4000000000000001,10,initial,36.05,342,361,379,0,0,9,9,9,0,0,,,,,,,0,0,0,0,0,19,19,2,,,,,,,,,,,,num_3,0.9885539999231696,num_3,0.2,1.3,0.3,0.5,11.46165,19.10275,return,6.669586599804461,,,,,,,,,,,,,,,,,912,20,male,left_right_width,2024-10-21_11h50.01.950,exp1,2023.1.0,60.108905290156606,
,,,,,,,,,,,,,,,,4,9.25,9.75,10.25,10.75,0,0.5,0.1,0.4,1.9000000000000001,10,initial,36.05,333,351,370,388,0,9,9,9,9,0,,,,,,,0,0,0,0,0,20,20,36,,,,,,,,,,,,num_4,0.8979079998098314,num_4,0.3,1.1,0.3,0.5,11.46165,19.10275,return,4.023599399952218,,,,,,,,,,,,,,,,,912,20,male,left_right_width,2024-10-21_11h50.01.950,exp1,2023.1.0,60.108905290156606,
,,,,,,,,,,,,,,,,5,9,9.5,10,10.5,11,0.5,0.1,0.4,2.4,10,initial,36.05,324,342,361,379,397,9,9,9,9,9,,,,,,,0,0,0,0,0,21,21,26,,,,,,,,,,,,num_4,1.1658216998912394,num_4,0.25,0.6,0.3,0.4,11.46165,15.2822,return,2.8769531997386366,,,,,,,,,,,,,,,,,912,20,male,left_right_width,2024-10-21_11h50.01.950,exp1,2023.1.0,60.108905290156606,
,,,,,,,,,,,,,,,,3,9.5,10,10.5,0,0,0.5,0.1,0.4,1.4000000000000001,10,initial,36.05,342,361,379,0,0,9,9,9,0,0,,,,,,,0,0,0,0,0,22,22,7,,,,,,,,,,,,num_3,0.9560612998902798,num_3,0.25,0.4,0.3,0.45,11.46165,17.19248,return,3.012257899856195,,,,,,,,,,,,,,,,,912,20,male,left_right_width,2024-10-21_11h50.01.950,exp1,2023.1.0,60.108905290156606,
,,,,,,,,,,,,,,,,3,9.5,10,10.5,0,0,0.5,0.1,0.4,1.4000000000000001,10,initial,36.05,342,361,379,0,0,9,9,9,0,0,,,,,,,0,0,0,0,0,23,23,27,,,,,,,,,,,,num_3,0.9788305999245495,num_3,0.55,0.8,0.35000000000000003,0.5,13.37193,19.10275,return,3.1886749998666346,,,,,,,,,,,,,,,,,912,20,male,left_right_width,2024-10-21_11h50.01.950,exp1,2023.1.0,60.108905290156606,
,,,,,,,,,,,,,,,,3,9.5,10,10.5,0,0,0.5,0.1,0.4,1.4000000000000001,10,initial,36.05,342,361,379,0,0,9,9,9,0,0,,,,,,,0,0,0,0,0,24,24,34,,,,,,,,,,,,num_3,0.894878099905327,num_3,0.2,1.1,0.35,0.5,13.37193,19.10275,return,7.315762700047344,,,,,,,,,,,,,,,,,912,20,male,left_right_width,2024-10-21_11h50.01.950,exp1,2023.1.0,60.108905290156606,
,,,,,,,,,,,,,,,,3,9.5,10,10.5,0,0,0.5,0.1,0.4,1.4000000000000001,10,initial,36.05,342,361,379,0,0,9,9,9,0,0,,,,,,,0,0,0,0,0,25,25,8,,,,,,,,,,,,num_3,0.9583666999824345,num_3,0.3,1.1,0.39999999999999997,0.5,15.2822,19.10275,return,5.683797999983653,,,,,,,,,,,,,,,,,912,20,male,left_right_width,2024-10-21_11h50.01.950,exp1,2023.1.0,60.108905290156606,
,,,,,,,,,,,,,,,,3,9.5,10,10.5,0,0,0.5,0.1,0.4,1.4000000000000001,10,initial,36.05,342,361,379,0,0,9,9,9,0,0,,,,,,,0,0,0,0,0,26,26,5,,,,,,,,,,,,num_3,0.9083298998884857,num_3,0.3,0.9,0.44999999999999996,0.55,17.19248,21.01303,return,3.03114189975895,,,,,,,,,,,,,,,,,912,20,male,left_right_width,2024-10-21_11h50.01.950,exp1,2023.1.0,60.108905290156606,
,,,,,,,,,,,,,,,,5,9,9.5,10,10.5,11,0.5,0.1,0.4,2.4,10,initial,36.05,324,342,361,379,397,9,9,9,9,9,,,,,,,0,0,0,0,0,27,27,50,,,,,,,,,,,,num_5,0.9616425998974591,num_5,0.5,1.0,0.5,0.7,19.10275,26.74385,return,5.792697099968791,,,,,,,,,,,,,,,,,912,20,male,left_right_width,2024-10-21_11h50.01.950,exp1,2023.1.0,60.108905290156606,
,,,,,,,,,,,,,,,,5,9,9.5,10,10.5,11,0.5,0.1,0.4,2.4,10,initial,36.05,324,342,361,379,397,9,9,9,9,9,,,,,,,0,0,0,0,0,28,28,48,,,,,,,,,,,,num_5,1.0010425997897983,num_5,0.4,1.0,0.45,0.6,17.19248,22.9233,return,4.622979799984023,,,,,,,,,,,,,,,,,912,20,male,left_right_width,2024-10-21_11h50.01.950,exp1,2023.1.0,60.108905290156606,
,,,,,,,,,,,,,,,,5,9,9.5,10,10.5,11,0.5,0.1,0.4,2.4,10,initial,36.05,324,342,361,379,397,9,9,9,9,9,,,,,,,0,0,0,0,0,29,29,23,,,,,,,,,,,,num_4,1.0854627997614443,num_4,0.5,1.0,0.4,0.5,15.2822,19.10275,return,4.528394799912348,,,,,,,,,,,,,,,,,912,20,male,left_right_width,2024-10-21_11h50.01.950,exp1,2023.1.0,60.108905290156606,
,,,,,,,,,,,,,,,,4,9.25,9.75,10.25,10.75,0,0.5,0.1,0.4,1.9000000000000001,10,initial,36.05,333,351,370,388,0,9,9,9,9,0,,,,,,,0,0,0,0,0,30,30,38,,,,,,,,,,,,num_4,1.032947599887848,num_4,0.3,0.6,0.3,0.5,11.46165,19.10275,return,1.086963899899274,,,,,,,,,,,,,,,,,912,20,male,left_right_width,2024-10-21_11h50.01.950,exp1,2023.1.0,60.108905290156606,
,,,,,,,,,,,,,,,,4,9.25,9.75,10.25,10.75,0,0.5,0.1,0.4,1.9000000000000001,10,initial,36.05,333,351,370,388,0,9,9,9,9,0,,,,,,,0,0,0,0,0,31,31,16,,,,,,,,,,,,num_4,0.8935277997516096,num_4,0.4,0.8,0.4,0.6,15.2822,22.9233,return,1.0610818997956812,,,,,,,,,,,,,,,,,912,20,male,left_right_width,2024-10-21_11h50.01.950,exp1,2023.1.0,60.108905290156606,
,,,,,,,,,,,,,,,,4,9.25,9.75,10.25,10.75,0,0.5,0.1,0.4,1.9000000000000001,10,initial,36.05,333,351,370,388,0,9,9,9,9,0,,,,,,,0,0,0,0,0,32,32,37,,,,,,,,,,,,num_3,0.8531150997150689,num_3,0.3,0.8,0.35,0.45,13.37193,17.19248,return,2.9553602999076247,,,,,,,,,,,,,,,,,912,20,male,left_right_width,2024-10-21_11h50.01.950,exp1,2023.1.0,60.108905290156606,
,,,,,,,,,,,,,,,,4,9.25,9.75,10.25,10.75,0,0.5,0.1,0.4,1.9000000000000001,10,initial,36.05,333,351,370,388,0,9,9,9,9,0,,,,,,,0,0,0,0,0,33,33,41,,,,,,,,,,,,num_4,0.8140923997852951,num_4,0.55,1.0,0.30000000000000004,0.4,11.46165,15.2822,return,4.0447990000247955,,,,,,,,,,,,,,,,,912,20,male,left_right_width,2024-10-21_11h50.01.950,exp1,2023.1.0,60.108905290156606,
,,,,,,,,,,,,,,,,4,9.25,9.75,10.25,10.75,0,0.5,0.1,0.4,1.9000000000000001,10,initial,36.05,333,351,370,388,0,9,9,9,9,0,,,,,,,0,0,0,0,0,34,34,15,,,,,,,,,,,,num_4,0.7863067998550832,num_4,0.2,0.8,0.3,0.4,11.46165,15.2822,return,7.069839200004935,,,,,,,,,,,,,,,,,912,20,male,left_right_width,2024-10-21_11h50.01.950,exp1,2023.1.0,60.108905290156606,
,,,,,,,,,,,,,,,,5,9,9.5,10,10.5,11,0.5,0.1,0.4,2.4,10,initial,36.05,324,342,361,379,397,9,9,9,9,9,,,,,,,0,0,0,0,0,35,35,52,,,,,,,,,,,,num_5,0.8966065999120474,num_5,0.45,1.0,0.35000000000000003,0.5,13.37193,19.10275,return,2.980304599972442,,,,,,,,,,,,,,,,,912,20,male,left_right_width,2024-10-21_11h50.01.950,exp1,2023.1.0,60.108905290156606,
,,,,,,,,,,,,,,,,5,9,9.5,10,10.5,11,0.5,0.1,0.4,2.4,10,initial,36.05,324,342,361,379,397,9,9,9,9,9,,,,,,,0,0,0,0,0,36,36,53,,,,,,,,,,,,num_5,1.034521099878475,num_5,0.35,1.2,0.3,0.45,11.46165,17.19248,return,4.379122900078073,,,,,,,,,,,,,,,,,912,20,male,left_right_width,2024-10-21_11h50.01.950,exp1,2023.1.0,60.108905290156606,
,,,,,,,,,,,,,,,,5,9,9.5,10,10.5,11,0.5,0.1,0.4,2.4,10,initial,36.05,324,342,361,379,397,9,9,9,9,9,,,,,,,0,0,0,0,0,37,37,20,,,,,,,,,,,,num_5,0.9006585997994989,num_5,0.3,1.3,0.3,0.5,11.46165,19.10275,return,4.476874599698931,,,,,,,,,,,,,,,,,912,20,male,left_right_width,2024-10-21_11h50.01.950,exp1,2023.1.0,60.108905290156606,
,,,,,,,,,,,,,,,,5,9,9.5,10,10.5,11,0.5,0.1,0.4,2.4,10,initial,36.05,324,342,361,379,397,9,9,9,9,9,,,,,,,0,0,0,0,0,38,38,25,,,,,,,,,,,,num_5,0.8027215998154134,num_5,0.3,0.4,0.25,0.4,9.55138,15.2822,return,1.9650241998024285,,,,,,,,,,,,,,,,,912,20,male,left_right_width,2024-10-21_11h50.01.950,exp1,2023.1.0,60.108905290156606,
,,,,,,,,,,,,,,,,4,9.25,9.75,10.25,10.75,0,0.5,0.1,0.4,1.9000000000000001,10,initial,36.05,333,351,370,388,0,9,9,9,9,0,,,,,,,0,0,0,0,0,39,39,44,,,,,,,,,,,,num_3,0.7591162999160588,num_3,0.35,0.6,0.3,0.45,11.46165,17.19248,return,2.8482120998669416,,,,,,,,,,,,,,,,,912,20,male,left_right_width,2024-10-21_11h50.01.950,exp1,2023.1.0,60.108905290156606,
,,,,,,,,,,,,,,,,4,9.25,9.75,10.25,10.75,0,0.5,0.1,0.4,1.9000000000000001,10,initial,36.05,333,351,370,388,0,9,9,9,9,0,,,,,,,0,0,0,0,0,40,40,43,,,,,,,,,,,,num_4,0.9516182998195291,num_4,0.45,0.7,0.30000000000000004,0.4,11.46165,15.2822,return,2.285233899950981,,,,,,,,,,,,,,,,,912,20,male,left_right_width,2024-10-21_11h50.01.950,exp1,2023.1.0,60.108905290156606,
,,,,,,,,,,,,,,,,3,9.5,10,10.5,0,0,0.5,0.1,0.4,1.4000000000000001,10,initial,36.05,342,361,379,0,0,9,9,9,0,0,,,,,,,0,0,0,0,0,41,41,1,,,,,,,,,,,,num_3,0.8866883998271078,num_3,0.3,1.3,0.2,0.4,7.6411,15.2822,return,4.617475399747491,,,,,,,,,,,,,,,,,912,20,male,left_right_width,2024-10-21_11h50.01.950,exp1,2023.1.0,60.108905290156606,
,,,,,,,,,,,,,,,,4,9.25,9.75,10.25,10.75,0,0.5,0.1,0.4,1.9000000000000001,10,initial,36.05,333,351,370,388,0,9,9,9,9,0,,,,,,,0,0,0,0,0,42,42,12,,,,,,,,,,,,num_3,1.120776099851355,num_3,0.2,1.3,0.35,0.55,13.37193,21.01303,return,5.93421689979732,,,,,,,,,,,,,,,,,912,20,male,left_right_width,2024-10-21_11h50.01.950,exp1,2023.1.0,60.108905290156606,
,,,,,,,,,,,,,,,,5,9,9.5,10,10.5,11,0.5,0.1,0.4,2.4,10,initial,36.05,324,342,361,379,397,9,9,9,9,9,,,,,,,0,0,0,0,0,43,43,21,,,,,,,,,,,,num_5,1.3630027999170125,num_5,0.25,1.0,0.25,0.4,9.55138,15.2822,return,4.4717490000184625,,,,,,,,,,,,,,,,,912,20,male,left_right_width,2024-10-21_11h50.01.950,exp1,2023.1.0,60.108905290156606,
,,,,,,,,,,,,,,,,3,9.5,10,10.5,0,0,0.5,0.1,0.4,1.4000000000000001,10,initial,36.05,342,361,379,0,0,9,9,9,0,0,,,,,,,0,0,0,0,0,44,44,28,,,,,,,,,,,,num_3,0.884576499927789,num_3,0.45,0.9,0.4,0.55,15.2822,21.01303,return,3.546285199932754,,,,,,,,,,,,,,,,,912,20,male,left_right_width,2024-10-21_11h50.01.950,exp1,2023.1.0,60.108905290156606,
,,,,,,,,,,,,,,,,3,9.5,10,10.5,0,0,0.5,0.1,0.4,1.4000000000000001,10,initial,36.05,342,361,379,0,0,9,9,9,0,0,,,,,,,0,0,0,0,0,45,45,31,,,,,,,,,,,,num_3,0.7739808997139335,num_3,0.2,1,0.35,0.55,13.37193,21.01303,return,4.195200999733061,,,,,,,,,,,,,,,,,912,20,male,left_right_width,2024-10-21_11h50.01.950,exp1,2023.1.0,60.108905290156606,
,,,,,,,,,,,,,,,,4,9.25,9.75,10.25,10.75,0,0.5,0.1,0.4,1.9000000000000001,10,initial,36.05,333,351,370,388,0,9,9,9,9,0,,,,,,,0,0,0,0,0,46,46,11,,,,,,,,,,,,num_4,1.0542203998193145,num_4,0.4,1.2,0.35000000000000003,0.6,13.37193,22.9233,return,4.243522399803624,,,,,,,,,,,,,,,,,912,20,male,left_right_width,2024-10-21_11h50.01.950,exp1,2023.1.0,60.108905290156606,
,,,,,,,,,,,,,,,,5,9,9.5,10,10.5,11,0.5,0.1,0.4,2.4,10,initial,36.05,324,342,361,379,397,9,9,9,9,9,,,,,,,0,0,0,0,0,47,47,49,,,,,,,,,,,,num_5,0.8771869998890907,num_5,0.45,0.8,0.35000000000000003,0.55,13.37193,21.01303,return,2.1940658998209983,,,,,,,,,,,,,,,,,912,20,male,left_right_width,2024-10-21_11h50.01.950,exp1,2023.1.0,60.108905290156606,
,,,,,,,,,,,,,,,,3,9.5,10,10.5,0,0,0.5,0.1,0.4,1.4000000000000001,10,initial,36.05,342,361,379,0,0,9,9,9,0,0,,,,,,,0,0,0,0,0,48,48,30,,,,,,,,,,,,num_3,0.803492299746722,num_3,0.2,1.1,0.3,0.45,11.46165,17.19248,return,4.631178499897942,,,,,,,,,,,,,,,,,912,20,male,left_right_width,2024-10-21_11h50.01.950,exp1,2023.1.0,60.108905290156606,
,,,,,,,,,,,,,,,,3,9.5,10,10.5,0,0,0.5,0.1,0.4,1.4000000000000001,10,initial,36.05,342,361,379,0,0,9,9,9,0,0,,,,,,,0,0,0,0,0,49,49,4,,,,,,,,,,,,num_3,0.7922811999451369,num_3,0.2,0.3,0.3,0.45,11.46165,17.19248,return,4.449193599866703,,,,,,,,,,,,,,,,,912,20,male,left_right_width,2024-10-21_11h50.01.950,exp1,2023.1.0,60.108905290156606,
,,,,,,,,,,,,,,,,4,9.25,9.75,10.25,10.75,0,0.5,0.1,0.4,1.9000000000000001,10,initial,36.05,333,351,370,388,0,9,9,9,9,0,,,,,,,0,0,0,0,0,50,50,39,,,,,,,,,,,,num_4,0.7808104997966439,num_4,0.3,1.2,0.2,0.3,7.6411,11.46165,return,4.9161447999067605,,,,,,,,,,,,,,,,,912,20,male,left_right_width,2024-10-21_11h50.01.950,exp1,2023.1.0,60.108905290156606,
,,,,,,,,,,,,,,,,4,9.25,9.75,10.25,10.75,0,0.5,0.1,0.4,1.9000000000000001,10,initial,36.05,333,351,370,388,0,9,9,9,9,0,,,,,,,0,0,0,0,0,51,51,13,,,,,,,,,,,,num_4,1.1996008998248726,num_4,0.3,0.7,0.25,0.4,9.55138,15.2822,return,1.9106865997891873,,,,,,,,,,,,,,,,,912,20,male,left_right_width,2024-10-21_11h50.01.950,exp1,2023.1.0,60.108905290156606,
,,,,,,,,,,,,,,,,3,9.5,10,10.5,0,0,0.5,0.1,0.4,1.4000000000000001,10,initial,36.05,342,361,379,0,0,9,9,9,0,0,,,,,,,0,0,0,0,0,52,52,33,,,,,,,,,,,,num_3,0.9246965998318046,num_3,0.35,1.1,0.3,0.45,11.46165,17.19248,return,4.405391399748623,,,,,,,,,,,,,,,,,912,20,male,left_right_width,2024-10-21_11h50.01.950,exp1,2023.1.0,60.108905290156606,
,,,,,,,,,,,,,,,,4,9.25,9.75,10.25,10.75,0,0.5,0.1,0.4,1.9000000000000001,10,initial,36.05,333,351,370,388,0,9,9,9,9,0,,,,,,,0,0,0,0,0,53,53,40,,,,,,,,,,,,num_3,0.8797431997954845,num_3,0.2,1,0.2,0.35,7.6411,13.37193,return,7.064085899852216,,,,,,,,,,,,,,,,,912,20,male,left_right_width,2024-10-21_11h50.01.950,exp1,2023.1.0,60.108905290156606,
,,,,,,,,,,,,,,,,,,,,,,,,,,,,,,,,,,,,,,,,,,,,,0,0,0,0,,,,,,,,,,,,,,,,,,,,,,,,,,,,,733.7098773000762,733.7098773000762,733.7098773000762,,,,,,,,,,,,912,20,male,left_right_width,2024-10-21_11h50.01.950,exp1,2023.1.0,60.108905290156606,
,,,,,,,,,,,,,,,,4,8.65,9.55,10.45,11.35,0,0.9,0.35,0.55,3.25,10,initial,36.05,312,344,377,409,0,9,9,9,9,0,,,,,,,1,0,1,0,0,0,0,14,,,,,,,,,,,,num_4,0.8537035000044852,num_4,0.5,0.6,0.30000000000000004,0.8,11.46165,30.5644,return,2.8825204998720437,,,,,,,,,,,,,,,,,912,20,male,left_right_width,2024-10-21_11h50.01.950,exp1,2023.1.0,60.108905290156606,
,,,,,,,,,,,,,,,,4,8.65,9.55,10.45,11.35,0,0.9,0.35,0.55,3.25,10,initial,36.05,312,344,377,409,0,9,9,9,9,0,,,,,,,1,0,1,0,0,1,1,37,,,,,,,,,,,,num_4,0.8283664998598397,num_4,0.5,0.6,0.30000000000000004,0.6,11.46165,22.9233,return,4.578125499887392,,,,,,,,,,,,,,,,,912,20,male,left_right_width,2024-10-21_11h50.01.950,exp1,2023.1.0,60.108905290156606,
,,,,,,,,,,,,,,,,4,8.65,9.55,10.45,11.35,0,0.9,0.35,0.55,3.25,10,initial,36.05,312,344,377,409,0,9,9,9,9,0,,,,,,,1,0,1,0,0,2,2,16,,,,,,,,,,,,num_4,0.9071982996538281,num_4,0.45,1.2,0.4,0.8,15.2822,30.5644,return,2.784796199761331,,,,,,,,,,,,,,,,,912,20,male,left_right_width,2024-10-21_11h50.01.950,exp1,2023.1.0,60.108905290156606,
,,,,,,,,,,,,,,,,3,9.1,10,10.9,0,0,0.9,0.35,0.55,2.35,10,initial,36.05,328,361,393,0,0,9,9,9,0,0,,,,,,,1,0,1,0,0,3,3,29,,,,,,,,,,,,num_3,0.7384128998965025,num_3,0.25,0.3,0.44999999999999996,0.8,17.19248,30.5644,return,6.579972399864346,,,,,,,,,,,,,,,,,912,20,male,left_right_width,2024-10-21_11h50.01.950,exp1,2023.1.0,60.108905290156606,
,,,,,,,,,,,,,,,,3,9.1,10,10.9,0,0,0.9,0.35,0.55,2.35,10,initial,36.05,328,361,393,0,0,9,9,9,0,0,,,,,,,1,0,1,0,0,4,4,0,,,,,,,,,,,,num_3,1.0857309999410063,num_3,0.5,1.1,0.5,1.05,19.10275,40.11578,return,2.5063172997906804,,,,,,,,,,,,,,,,,912,20,male,left_right_width,2024-10-21_11h50.01.950,exp1,2023.1.0,60.108905290156606,
,,,,,,,,,,,,,,,,3,9.1,10,10.9,0,0,0.9,0.35,0.55,2.35,10,initial,36.05,328,361,393,0,0,9,9,9,0,0,,,,,,,1,0,1,0,0,5,5,2,,,,,,,,,,,,num_3,0.8097287998534739,num_3,0.3,0.5,0.49999999999999994,0.85,19.10275,32.47468,return,6.503725699847564,,,,,,,,,,,,,,,,,912,20,male,left_right_width,2024-10-21_11h50.01.950,exp1,2023.1.0,60.108905290156606,
,,,,,,,,,,,,,,,,5,8.2,9.1,10,10.9,11.8,0.9,0.35,0.55,4.15,10,initial,36.05,296,328,361,393,425,9,9,9,9,9,,,,,,,1,0,1,0,0,6,6,21,,,,,,,,,,,,num_4,1.1415235998574644,num_4,0.2,0.4,0.39999999999999997,1.0,15.2822,38.2055,return,10.736885299906135,,,,,,,,,,,,,,,,,912,20,male,left_right_width,2024-10-21_11h50.01.950,exp1,2023.1.0,60.108905290156606,
,,,,,,,,,,,,,,,,3,9.1,10,10.9,0,0,0.9,0.35,0.55,2.35,10,initial,36.05,328,361,393,0,0,9,9,9,0,0,,,,,,,1,0,1,0,0,7,7,3,,,,,,,,,,,,num_3,0.9058090997859836,num_3,0.4,0.6,0.45,0.8,17.19248,30.5644,return,4.019933999981731,,,,,,,,,,,,,,,,,912,20,male,left_right_width,2024-10-21_11h50.01.950,exp1,2023.1.0,60.108905290156606,
,,,,,,,,,,,,,,,,3,9.1,10,10.9,0,0,0.9,0.35,0.55,2.35,10,initial,36.05,328,361,393,0,0,9,9,9,0,0,,,,,,,1,0,1,0,0,8,8,31,,,,,,,,,,,,num_3,0.7326741998549551,num_3,0.35,1.2,0.49999999999999994,1.05,19.10275,40.11578,return,4.3618113999255,,,,,,,,,,,,,,,,,912,20,male,left_right_width,2024-10-21_11h50.01.950,exp1,2023.1.0,60.108905290156606,
,,,,,,,,,,,,,,,,3,9.1,10,10.9,0,0,0.9,0.35,0.55,2.35,10,initial,36.05,328,361,393,0,0,9,9,9,0,0,,,,,,,1,0,1,0,0,9,9,28,,,,,,,,,,,,num_3,0.7590176998637617,num_3,0.4,1.3,0.45,1.2,17.19248,45.8466,return,3.6036352997180074,,,,,,,,,,,,,,,,,912,20,male,left_right_width,2024-10-21_11h50.01.950,exp1,2023.1.0,60.108905290156606,
,,,,,,,,,,,,,,,,3,9.1,10,10.9,0,0,0.9,0.35,0.55,2.35,10,initial,36.05,328,361,393,0,0,9,9,9,0,0,,,,,,,1,0,1,0,0,10,10,6,,,,,,,,,,,,num_3,0.8429352999664843,num_3,0.4,0.5,0.4,0.65,15.2822,24.83358,return,6.7714261000510305,,,,,,,,,,,,,,,,,912,20,male,left_right_width,2024-10-21_11h50.01.950,exp1,2023.1.0,60.108905290156606,
,,,,,,,,,,,,,,,,4,8.65,9.55,10.45,11.35,0,0.9,0.35,0.55,3.25,10,initial,36.05,312,344,377,409,0,9,9,9,9,0,,,,,,,1,0,1,0,0,11,11,42,,,,,,,,,,,,num_4,1.2610963999759406,num_4,0.3,1.3,0.44999999999999996,0.9,17.19248,34.38495,return,3.701221999945119,,,,,,,,,,,,,,,,,912,20,male,left_right_width,2024-10-21_11h50.01.950,exp1,2023.1.0,60.108905290156606,
,,,,,,,,,,,,,,,,4,8.65,9.55,10.45,11.35,0,0.9,0.35,0.55,3.25,10,initial,36.05,312,344,377,409,0,9,9,9,9,0,,,,,,,1,0,1,0,0,12,12,9,,,,,,,,,,,,num_4,0.8662897998001426,num_4,0.55,1.1,0.45,1.0,17.19248,38.2055,return,1.9792403997853398,,,,,,,,,,,,,,,,,912,20,male,left_right_width,2024-10-21_11h50.01.950,exp1,2023.1.0,60.108905290156606,
,,,,,,,,,,,,,,,,3,9.1,10,10.9,0,0,0.9,0.35,0.55,2.35,10,initial,36.05,328,361,393,0,0,9,9,9,0,0,,,,,,,1,0,1,0,0,13,13,30,,,,,,,,,,,,num_3,0.8007614000234753,num_3,0.3,1.2,0.44999999999999996,0.95,17.19248,36.29523,return,4.5224227998405695,,,,,,,,,,,,,,,,,912,20,male,left_right_width,2024-10-21_11h50.01.950,exp1,2023.1.0,60.108905290156606,
,,,,,,,,,,,,,,,,4,8.65,9.55,10.45,11.35,0,0.9,0.35,0.55,3.25,10,initial,36.05,312,344,377,409,0,9,9,9,9,0,,,,,,,1,0,1,0,0,14,14,12,,,,,,,,,,,,num_4,0.9316787999123335,num_4,0.3,0.4,0.44999999999999996,0.8,17.19248,30.5644,return,5.320023299893364,,,,,,,,,,,,,,,,,912,20,male,left_right_width,2024-10-21_11h50.01.950,exp1,2023.1.0,60.108905290156606,
,,,,,,,,,,,,,,,,5,8.2,9.1,10,10.9,11.8,0.9,0.35,0.55,4.15,10,initial,36.05,296,328,361,393,425,9,9,9,9,9,,,,,,,1,0,1,0,0,15,15,45,,,,,,,,,,,,num_5,0.9012952998746186,num_5,0.3,0.6,0.49999999999999994,0.75,19.10275,28.65413,return,4.5716030998155475,,,,,,,,,,,,,,,,,912,20,male,left_right_width,2024-10-21_11h50.01.950,exp1,2023.1.0,60.108905290156606,
,,,,,,,,,,,,,,,,4,8.65,9.55,10.45,11.35,0,0.9,0.35,0.55,3.25,10,initial,36.05,312,344,377,409,0,9,9,9,9,0,,,,,,,1,0,1,0,0,16,16,15,,,,,,,,,,,,num_4,0.9912280000280589,num_4,0.4,1.1,0.55,1.0,21.01303,38.2055,return,4.257675499888137,,,,,,,,,,,,,,,,,912,20,male,left_right_width,2024-10-21_11h50.01.950,exp1,2023.1.0,60.108905290156606,
,,,,,,,,,,,,,,,,4,8.65,9.55,10.45,11.35,0,0.9,0.35,0.55,3.25,10,initial,36.05,312,344,377,409,0,9,9,9,9,0,,,,,,,1,0,1,0,0,17,17,13,,,,,,,,,,,,num_4,0.8582740998826921,num_4,0.2,0.9,0.44999999999999996,0.8,17.19248,30.5644,return,4.398176399758086,,,,,,,,,,,,,,,,,912,20,male,left_right_width,2024-10-21_11h50.01.950,exp1,2023.1.0,60.108905290156606,
,,,,,,,,,,,,,,,,5,8.2,9.1,10,10.9,11.8,0.9,0.35,0.55,4.15,10,initial,36.05,296,328,361,393,425,9,9,9,9,9,,,,,,,1,0,1,0,0,18,18,49,,,,,,,,,,,,num_5,0.7918090999592096,num_5,0.55,1.2,0.55,1.15,21.01303,43.93633,return,2.1282361997291446,,,,,,,,,,,,,,,,,912,20,male,left_right_width,2024-10-21_11h50.01.950,exp1,2023.1.0,60.108905290156606,
,,,,,,,,,,,,,,,,5,8.2,9.1,10,10.9,11.8,0.9,0.35,0.55,4.15,10,initial,36.05,296,328,361,393,425,9,9,9,9,9,,,,,,,1,0,1,0,0,19,19,52,,,,,,,,,,,,num_5,1.1295875997748226,num_5,0.2,1.1,0.49999999999999994,1.05,19.10275,40.11578,return,4.645929999882355,,,,,,,,,,,,,,,,,912,20,male,left_right_width,2024-10-21_11h50.01.950,exp1,2023.1.0,60.108905290156606,
,,,,,,,,,,,,,,,,4,8.65,9.55,10.45,11.35,0,0.9,0.35,0.55,3.25,10,initial,36.05,312,344,377,409,0,9,9,9,9,0,,,,,,,1,0,1,0,0,20,20,44,,,,,,,,,,,,num_4,0.9120336999185383,num_4,0.25,0.6,0.44999999999999996,0.8,17.19248,30.5644,return,2.5346043999306858,,,,,,,,,,,,,,,,,912,20,male,left_right_width,2024-10-21_11h50.01.950,exp1,2023.1.0,60.108905290156606,
,,,,,,,,,,,,,,,,5,8.2,9.1,10,10.9,11.8,0.9,0.35,0.55,4.15,10,initial,36.05,296,328,361,393,425,9,9,9,9,9,,,,,,,1,0,1,0,0,21,21,53,,,,,,,,,,,,num_5,0.8437204998917878,num_5,0.4,0.6,0.35000000000000003,0.7,13.37193,26.74385,return,2.7259702999144793,,,,,,,,,,,,,,,,,912,20,male,left_right_width,2024-10-21_11h50.01.950,exp1,2023.1.0,60.108905290156606,
,,,,,,,,,,,,,,,,5,8.2,9.1,10,10.9,11.8,0.9,0.35,0.55,4.15,10,initial,36.05,296,328,361,393,425,9,9,9,9,9,,,,,,,1,0,1,0,0,22,22,26,,,,,,,,,,,,num_5,0.7190709998831153,num_5,0.5,1.2,0.4,0.85,15.2822,32.47468,return,2.636190799763426,,,,,,,,,,,,,,,,,912,20,male,left_right_width,2024-10-21_11h50.01.950,exp1,2023.1.0,60.108905290156606,
,,,,,,,,,,,,,,,,3,9.1,10,10.9,0,0,0.9,0.35,0.55,2.35,10,initial,36.05,328,361,393,0,0,9,9,9,0,0,,,,,,,1,0,1,0,0,23,23,1,,,,,,,,,,,,num_3,0.8105413997545838,num_3,0.45,0.8,0.45,0.8,17.19248,30.5644,return,0.9687025998719037,,,,,,,,,,,,,,,,,912,20,male,left_right_width,2024-10-21_11h50.01.950,exp1,2023.1.0,60.108905290156606,
,,,,,,,,,,,,,,,,4,8.65,9.55,10.45,11.35,0,0.9,0.35,0.55,3.25,10,initial,36.05,312,344,377,409,0,9,9,9,9,0,,,,,,,1,0,1,0,0,24,24,41,,,,,,,,,,,,num_4,0.7351581999100745,num_4,0.2,1.1,0.49999999999999994,0.9,19.10275,34.38495,return,3.5521384999156,,,,,,,,,,,,,,,,,912,20,male,left_right_width,2024-10-21_11h50.01.950,exp1,2023.1.0,60.108905290156606,
,,,,,,,,,,,,,,,,5,8.2,9.1,10,10.9,11.8,0.9,0.35,0.55,4.15,10,initial,36.05,296,328,361,393,425,9,9,9,9,9,,,,,,,1,0,1,0,0,25,25,18,,,,,,,,,,,,num_4,0.7631731999572366,num_4,0.2,0.3,0.35,0.7,13.37193,26.74385,return,5.237625200068578,,,,,,,,,,,,,,,,,912,20,male,left_right_width,2024-10-21_11h50.01.950,exp1,2023.1.0,60.108905290156606,
,,,,,,,,,,,,,,,,4,8.65,9.55,10.45,11.35,0,0.9,0.35,0.55,3.25,10,initial,36.05,312,344,377,409,0,9,9,9,9,0,,,,,,,1,0,1,0,0,26,26,43,,,,,,,,,,,,num_4,2.0820853996556252,num_4,0.55,1.3,0.4,0.8,15.2822,30.5644,return,3.021829899866134,,,,,,,,,,,,,,,,,912,20,male,left_right_width,2024-10-21_11h50.01.950,exp1,2023.1.0,60.108905290156606,
,,,,,,,,,,,,,,,,4,8.65,9.55,10.45,11.35,0,0.9,0.35,0.55,3.25,10,initial,36.05,312,344,377,409,0,9,9,9,9,0,,,,,,,1,0,1,0,0,27,27,10,,,,,,,,,,,,num_4,1.6754964999854565,num_4,0.2,0.9,0.3,0.6,11.46165,22.9233,return,5.473743299720809,,,,,,,,,,,,,,,,,912,20,male,left_right_width,2024-10-21_11h50.01.950,exp1,2023.1.0,60.108905290156606,
,,,,,,,,,,,,,,,,5,8.2,9.1,10,10.9,11.8,0.9,0.35,0.55,4.15,10,initial,36.05,296,328,361,393,425,9,9,9,9,9,,,,,,,1,0,1,0,0,28,28,23,,,,,,,,,,,,num_5,0.9610977999400347,num_5,0.3,1.1,0.39999999999999997,0.75,15.2822,28.65413,return,3.2370160999707878,,,,,,,,,,,,,,,,,912,20,male,left_right_width,2024-10-21_11h50.01.950,exp1,2023.1.0,60.108905290156606,
,,,,,,,,,,,,,,,,3,9.1,10,10.9,0,0,0.9,0.35,0.55,2.35,10,initial,36.05,328,361,393,0,0,9,9,9,0,0,,,,,,,1,0,1,0,0,29,29,35,,,,,,,,,,,,num_3,0.8326544999144971,num_3,0.3,0.8,0.39999999999999997,0.7,15.2822,26.74385,return,3.4991965999361128,,,,,,,,,,,,,,,,,912,20,male,left_right_width,2024-10-21_11h50.01.950,exp1,2023.1.0,60.108905290156606,
,,,,,,,,,,,,,,,,3,9.1,10,10.9,0,0,0.9,0.35,0.55,2.35,10,initial,36.05,328,361,393,0,0,9,9,9,0,0,,,,,,,1,0,1,0,0,30,30,8,,,,,,,,,,,,num_3,0.8101474998984486,num_3,0.2,0.6,0.39999999999999997,0.65,15.2822,24.83358,return,2.4036414998117834,,,,,,,,,,,,,,,,,912,20,male,left_right_width,2024-10-21_11h50.01.950,exp1,2023.1.0,60.108905290156606,
,,,,,,,,,,,,,,,,5,8.2,9.1,10,10.9,11.8,0.9,0.35,0.55,4.15,10,initial,36.05,296,328,361,393,425,9,9,9,9,9,,,,,,,1,0,1,0,0,31,31,22,,,,,,,,,,,,num_4,0.9691506999079138,num_4,0.3,1.3,0.5499999999999999,1.0,21.01303,38.2055,return,3.0252284000162035,,,,,,,,,,,,,,,,,912,20,male,left_right_width,2024-10-21_11h50.01.950,exp1,2023.1.0,60.108905290156606,
,,,,,,,,,,,,,,,,5,8.2,9.1,10,10.9,11.8,0.9,0.35,0.55,4.15,10,initial,36.05,296,328,361,393,425,9,9,9,9,9,,,,,,,1,0,1,0,0,32,32,47,,,,,,,,,,,,num_5,1.8228711998090148,num_5,0.5,1.3,0.5,1.0,19.10275,38.2055,return,3.092786999884993,,,,,,,,,,,,,,,,,912,20,male,left_right_width,2024-10-21_11h50.01.950,exp1,2023.1.0,60.108905290156606,
,,,,,,,,,,,,,,,,3,9.1,10,10.9,0,0,0.9,0.35,0.55,2.35,10,initial,36.05,328,361,393,0,0,9,9,9,0,0,,,,,,,1,0,1,0,0,33,33,4,,,,,,,,,,,,num_3,0.8285510998684913,num_3,0.2,0.6,0.49999999999999994,0.8,19.10275,30.5644,return,4.660332599887624,,,,,,,,,,,,,,,,,912,20,male,left_right_width,2024-10-21_11h50.01.950,exp1,2023.1.0,60.108905290156606,
,,,,,,,,,,,,,,,,4,8.65,9.55,10.45,11.35,0,0.9,0.35,0.55,3.25,10,initial,36.05,312,344,377,409,0,9,9,9,9,0,,,,,,,1,0,1,0,0,34,34,39,,,,,,,,,,,,num_4,0.822604299755767,num_4,0.3,0.5,0.49999999999999994,0.8,19.10275,30.5644,return,2.8847950999625027,,,,,,,,,,,,,,,,,912,20,male,left_right_width,2024-10-21_11h50.01.950,exp1,2023.1.0,60.108905290156606,
,,,,,,,,,,,,,,,,4,8.65,9.55,10.45,11.35,0,0.9,0.35,0.55,3.25,10,initial,36.05,312,344,377,409,0,9,9,9,9,0,,,,,,,1,0,1,0,0,35,35,11,,,,,,,,,,,,num_4,0.7994399997405708,num_4,0.25,0.3,0.44999999999999996,0.7,17.19248,26.74385,return,2.6824751999229193,,,,,,,,,,,,,,,,,912,20,male,left_right_width,2024-10-21_11h50.01.950,exp1,2023.1.0,60.108905290156606,
,,,,,,,,,,,,,,,,3,9.1,10,10.9,0,0,0.9,0.35,0.55,2.35,10,initial,36.05,328,361,393,0,0,9,9,9,0,0,,,,,,,1,0,1,0,0,36,36,34,,,,,,,,,,,,num_3,0.7942332997918129,num_3,0.5,0.7,0.6000000000000001,0.95,22.9233,36.29523,return,2.808581299846992,,,,,,,,,,,,,,,,,912,20,male,left_right_width,2024-10-21_11h50.01.950,exp1,2023.1.0,60.108905290156606,
,,,,,,,,,,,,,,,,5,8.2,9.1,10,10.9,11.8,0.9,0.35,0.55,4.15,10,initial,36.05,296,328,361,393,425,9,9,9,9,9,,,,,,,1,0,1,0,0,37,37,51,,,,,,,,,,,,num_5,0.8308088998310268,num_5,0.3,0.5,0.44999999999999996,0.85,17.19248,32.47468,return,5.838043799856678,,,,,,,,,,,,,,,,,912,20,male,left_right_width,2024-10-21_11h50.01.950,exp1,2023.1.0,60.108905290156606,
,,,,,,,,,,,,,,,,3,9.1,10,10.9,0,0,0.9,0.35,0.55,2.35,10,initial,36.05,328,361,393,0,0,9,9,9,0,0,,,,,,,1,0,1,0,0,38,38,7,,,,,,,,,,,,num_3,0.7258817998226732,num_3,0.2,0.6,0.5499999999999999,0.9,21.01303,34.38495,return,3.71829569991678,,,,,,,,,,,,,,,,,912,20,male,left_right_width,2024-10-21_11h50.01.950,exp1,2023.1.0,60.108905290156606,
,,,,,,,,,,,,,,,,5,8.2,9.1,10,10.9,11.8,0.9,0.35,0.55,4.15,10,initial,36.05,296,328,361,393,425,9,9,9,9,9,,,,,,,1,0,1,0,0,39,39,19,,,,,,,,,,,,num_5,1.4196397997438908,num_5,0.45,1.0,0.35000000000000003,0.75,13.37193,28.65413,return,31.868987299967557,,,,,,,,,,,,,,,,,912,20,male,left_right_width,2024-10-21_11h50.01.950,exp1,2023.1.0,60.108905290156606,
,,,,,,,,,,,,,,,,5,8.2,9.1,10,10.9,11.8,0.9,0.35,0.55,4.15,10,initial,36.05,296,328,361,393,425,9,9,9,9,9,,,,,,,1,0,1,0,0,40,40,46,,,,,,,,,,,,num_4,0.8724390000570565,num_4,0.45,1.3,0.45,0.8,17.19248,30.5644,return,2.283656799700111,,,,,,,,,,,,,,,,,912,20,male,left_right_width,2024-10-21_11h50.01.950,exp1,2023.1.0,60.108905290156606,
,,,,,,,,,,,,,,,,4,8.65,9.55,10.45,11.35,0,0.9,0.35,0.55,3.25,10,initial,36.05,312,344,377,409,0,9,9,9,9,0,,,,,,,1,0,1,0,0,41,41,40,,,,,,,,,,,,num_4,0.857634199783206,num_4,0.45,0.7,0.45,0.8,17.19248,30.5644,return,2.229110299842432,,,,,,,,,,,,,,,,,912,20,male,left_right_width,2024-10-21_11h50.01.950,exp1,2023.1.0,60.108905290156606,
,,,,,,,,,,,,,,,,5,8.2,9.1,10,10.9,11.8,0.9,0.35,0.55,4.15,10,initial,36.05,296,328,361,393,425,9,9,9,9,9,,,,,,,1,0,1,0,0,42,42,24,,,,,,,,,,,,num_5,0.7883488000370562,num_5,0.4,1.1,0.35000000000000003,0.8,13.37193,30.5644,return,2.659832099918276,,,,,,,,,,,,,,,,,912,20,male,left_right_width,2024-10-21_11h50.01.950,exp1,2023.1.0,60.108905290156606,
,,,,,,,,,,,,,,,,4,8.65,9.55,10.45,11.35,0,0.9,0.35,0.55,3.25,10,initial,36.05,312,344,377,409,0,9,9,9,9,0,,,,,,,1,0,1,0,0,43,43,38,,,,,,,,,,,,num_4,1.3918087997008115,num_4,0.4,0.5,0.25000000000000006,0.7,9.55138,26.74385,return,3.4468869999982417,,,,,,,,,,,,,,,,,912,20,male,left_right_width,2024-10-21_11h50.01.950,exp1,2023.1.0,60.108905290156606,
,,,,,,,,,,,,,,,,3,9.1,10,10.9,0,0,0.9,0.35,0.55,2.35,10,initial,36.05,328,361,393,0,0,9,9,9,0,0,,,,,,,1,0,1,0,0,44,44,32,,,,,,,,,,,,num_3,0.6383714999537915,num_3,0.35,1.1,0.44999999999999996,0.8,17.19248,30.5644,return,3.245722800027579,,,,,,,,,,,,,,,,,912,20,male,left_right_width,2024-10-21_11h50.01.950,exp1,2023.1.0,60.108905290156606,
,,,,,,,,,,,,,,,,5,8.2,9.1,10,10.9,11.8,0.9,0.35,0.55,4.15,10,initial,36.05,296,328,361,393,425,9,9,9,9,9,,,,,,,1,0,1,0,0,45,45,50,,,,,,,,,,,,num_5,0.7959526998456568,num_5,0.4,0.7,0.4,0.75,15.2822,28.65413,return,7.6421013998333365,,,,,,,,,,,,,,,,,912,20,male,left_right_width,2024-10-21_11h50.01.950,exp1,2023.1.0,60.108905290156606,
,,,,,,,,,,,,,,,,3,9.1,10,10.9,0,0,0.9,0.35,0.55,2.35,10,initial,36.05,328,361,393,0,0,9,9,9,0,0,,,,,,,1,0,1,0,0,46,46,5,,,,,,,,,,,,num_3,0.6492792000062764,num_3,0.35,0.6,0.39999999999999997,0.75,15.2822,28.65413,return,2.9246358999516815,,,,,,,,,,,,,,,,,912,20,male,left_right_width,2024-10-21_11h50.01.950,exp1,2023.1.0,60.108905290156606,
,,,,,,,,,,,,,,,,5,8.2,9.1,10,10.9,11.8,0.9,0.35,0.55,4.15,10,initial,36.05,296,328,361,393,425,9,9,9,9,9,,,,,,,1,0,1,0,0,47,47,20,,,,,,,,,,,,num_6,1.63479040004313,num_6,0.3,1.0,0.35,0.8,13.37193,30.5644,return,6.056846199790016,,,,,,,,,,,,,,,,,912,20,male,left_right_width,2024-10-21_11h50.01.950,exp1,2023.1.0,60.108905290156606,
,,,,,,,,,,,,,,,,5,8.2,9.1,10,10.9,11.8,0.9,0.35,0.55,4.15,10,initial,36.05,296,328,361,393,425,9,9,9,9,9,,,,,,,1,0,1,0,0,48,48,48,,,,,,,,,,,,num_5,0.8527418999001384,num_5,0.4,0.8,0.35000000000000003,0.75,13.37193,28.65413,return,1.9639695999212563,,,,,,,,,,,,,,,,,912,20,male,left_right_width,2024-10-21_11h50.01.950,exp1,2023.1.0,60.108905290156606,
,,,,,,,,,,,,,,,,4,8.65,9.55,10.45,11.35,0,0.9,0.35,0.55,3.25,10,initial,36.05,312,344,377,409,0,9,9,9,9,0,,,,,,,1,0,1,0,0,49,49,36,,,,,,,,,,,,num_3,1.604011599905789,num_3,0.2,0.9,0.35,0.6,13.37193,22.9233,return,5.2940479998942465,,,,,,,,,,,,,,,,,912,20,male,left_right_width,2024-10-21_11h50.01.950,exp1,2023.1.0,60.108905290156606,
,,,,,,,,,,,,,,,,5,8.2,9.1,10,10.9,11.8,0.9,0.35,0.55,4.15,10,initial,36.05,296,328,361,393,425,9,9,9,9,9,,,,,,,1,0,1,0,0,50,50,25,,,,,,,,,,,,num_5,1.1126452998723835,num_5,0.45,1.2,0.35000000000000003,0.8,13.37193,30.5644,return,3.463093599770218,,,,,,,,,,,,,,,,,912,20,male,left_right_width,2024-10-21_11h50.01.950,exp1,2023.1.0,60.108905290156606,
,,,,,,,,,,,,,,,,4,8.65,9.55,10.45,11.35,0,0.9,0.35,0.55,3.25,10,initial,36.05,312,344,377,409,0,9,9,9,9,0,,,,,,,1,0,1,0,0,51,51,17,,,,,,,,,,,,num_4,1.5341299998108298,num_4,0.35,0.5,0.3,0.6,11.46165,22.9233,return,3.22571779997088,,,,,,,,,,,,,,,,,912,20,male,left_right_width,2024-10-21_11h50.01.950,exp1,2023.1.0,60.108905290156606,
,,,,,,,,,,,,,,,,3,9.1,10,10.9,0,0,0.9,0.35,0.55,2.35,10,initial,36.05,328,361,393,0,0,9,9,9,0,0,,,,,,,1,0,1,0,0,52,52,27,,,,,,,,,,,,num_3,0.7279333998449147,num_3,0.35,0.4,0.39999999999999997,0.75,15.2822,28.65413,return,5.544730999972671,,,,,,,,,,,,,,,,,912,20,male,left_right_width,2024-10-21_11h50.01.950,exp1,2023.1.0,60.108905290156606,
,,,,,,,,,,,,,,,,3,9.1,10,10.9,0,0,0.9,0.35,0.55,2.35,10,initial,36.05,328,361,393,0,0,9,9,9,0,0,,,,,,,1,0,1,0,0,53,53,33,,,,,,,,,,,,num_3,0.7493180998135358,num_3,0.55,0.9,0.4,0.8,15.2822,30.5644,return,1.960722099756822,,,,,,,,,,,,,,,,,912,20,male,left_right_width,2024-10-21_11h50.01.950,exp1,2023.1.0,60.108905290156606,
,,,,,,,,,,,,,,,,,,,,,,,,,,,,,,,,,,,,,,,,,,,,,1,0,1,0,,,,,,,,,,,,,,,,,,,,,,,,,,,,,1142.5422787999269,1142.5422787999269,1142.5422787999269,,,,,,,,,,,,912,20,male,left_right_width,2024-10-21_11h50.01.950,exp1,2023.1.0,60.108905290156606,
,,,,,,,,,,,,,,,,3,9.5,10,10.5,0,0,0.5,0.25,0.25,1.25,10,initial,36.05,342,361,379,0,0,9,9,9,0,0,,,,,,,2,0,2,0,0,0,0,4,,,,,,,,,,,,num_3,1.4609935998450965,num_3,0.25,0.8,0.2,0.6,7.6411,22.9233,return,4.345502299955115,,,,,,,,,,,,,,,,,912,20,male,left_right_width,2024-10-21_11h50.01.950,exp1,2023.1.0,60.108905290156606,
,,,,,,,,,,,,,,,,3,9.5,10,10.5,0,0,0.5,0.25,0.25,1.25,10,initial,36.05,342,361,379,0,0,9,9,9,0,0,,,,,,,2,0,2,0,0,1,1,1,,,,,,,,,,,,num_3,1.1495599998161197,num_3,0.2,0.8,0.2,0.65,7.6411,24.83358,return,1.3830243998672813,,,,,,,,,,,,,,,,,912,20,male,left_right_width,2024-10-21_11h50.01.950,exp1,2023.1.0,60.108905290156606,
,,,,,,,,,,,,,,,,3,9.5,10,10.5,0,0,0.5,0.25,0.25,1.25,10,initial,36.05,342,361,379,0,0,9,9,9,0,0,,,,,,,2,0,2,0,0,2,2,30,,,,,,,,,,,,num_3,0.6925085999537259,num_3,0.25,1,0.2,0.7,7.6411,26.74385,return,2.84983509988524,,,,,,,,,,,,,,,,,912,20,male,left_right_width,2024-10-21_11h50.01.950,exp1,2023.1.0,60.108905290156606,
,,,,,,,,,,,,,,,,3,9.5,10,10.5,0,0,0.5,0.25,0.25,1.25,10,initial,36.05,342,361,379,0,0,9,9,9,0,0,,,,,,,2,0,2,0,0,3,3,5,,,,,,,,,,,,num_3,0.9679509999696165,num_3,0.25,0.4,0.2,0.45,7.6411,17.19248,return,4.112781999865547,,,,,,,,,,,,,,,,,912,20,male,left_right_width,2024-10-21_11h50.01.950,exp1,2023.1.0,60.108905290156606,
,,,,,,,,,,,,,,,,5,9,9.5,10,10.5,11,0.5,0.25,0.25,2.25,10,initial,36.05,324,342,361,379,397,9,9,9,9,9,,,,,,,2,0,2,0,0,4,4,19,,,,,,,,,,,,num_4,2.2073348998092115,num_4,0.35,0.6,0.15000000000000002,0.4,5.73083,15.2822,return,30.942569899838418,,,,,,,,,,,,,,,,,912,20,male,left_right_width,2024-10-21_11h50.01.950,exp1,2023.1.0,60.108905290156606,
,,,,,,,,,,,,,,,,4,9.25,9.75,10.25,10.75,0,0.5,0.25,0.25,1.75,10,initial,36.05,333,351,370,388,0,9,9,9,9,0,,,,,,,2,0,2,0,0,5,5,13,,,,,,,,,,,,num_4,1.2063911999575794,num_4,0.4,1.1,0.25000000000000006,0.5,9.55138,19.10275,return,2.621864999877289,,,,,,,,,,,,,,,,,912,20,male,left_right_width,2024-10-21_11h50.01.950,exp1,2023.1.0,60.108905290156606,
,,,,,,,,,,,,,,,,4,9.25,9.75,10.25,10.75,0,0.5,0.25,0.25,1.75,10,initial,36.05,333,351,370,388,0,9,9,9,9,0,,,,,,,2,0,2,0,0,6,6,43,,,,,,,,,,,,num_4,1.094011099776253,num_4,0.25,0.7,0.15000000000000002,0.4,5.73083,15.2822,return,3.1099622996989638,,,,,,,,,,,,,,,,,912,20,male,left_right_width,2024-10-21_11h50.01.950,exp1,2023.1.0,60.108905290156606,
,,,,,,,,,,,,,,,,5,9,9.5,10,10.5,11,0.5,0.25,0.25,2.25,10,initial,36.05,324,342,361,379,397,9,9,9,9,9,,,,,,,2,0,2,0,0,7,7,21,,,,,,,,,,,,num_5,0.89569849986583,num_5,0.45,1.1,0.30000000000000004,0.6,11.46165,22.9233,return,4.743576799752191,,,,,,,,,,,,,,,,,912,20,male,left_right_width,2024-10-21_11h50.01.950,exp1,2023.1.0,60.108905290156606,
,,,,,,,,,,,,,,,,5,9,9.5,10,10.5,11,0.5,0.25,0.25,2.25,10,initial,36.05,324,342,361,379,397,9,9,9,9,9,,,,,,,2,0,2,0,0,8,8,26,,,,,,,,,,,,num_5,0.9384082998149097,num_5,0.5,1.0,0.30000000000000004,0.6,11.46165,22.9233,return,3.986490299925208,,,,,,,,,,,,,,,,,912,20,male,left_right_width,2024-10-21_11h50.01.950,exp1,2023.1.0,60.108905290156606,
,,,,,,,,,,,,,,,,3,9.5,10,10.5,0,0,0.5,0.25,0.25,1.25,10,initial,36.05,342,361,379,0,0,9,9,9,0,0,,,,,,,2,0,2,0,0,9,9,31,,,,,,,,,,,,num_3,0.7497617998160422,num_3,0.25,0.4,0.15000000000000002,0.5,5.73083,19.10275,return,3.2777539999224246,,,,,,,,,,,,,,,,,912,20,male,left_right_width,2024-10-21_11h50.01.950,exp1,2023.1.0,60.108905290156606,
,,,,,,,,,,,,,,,,4,9.25,9.75,10.25,10.75,0,0.5,0.25,0.25,1.75,10,initial,36.05,333,351,370,388,0,9,9,9,9,0,,,,,,,2,0,2,0,0,10,10,36,,,,,,,,,,,,num_4,1.0932064999360591,num_4,0.25,0.3,0.15000000000000002,0.4,5.73083,15.2822,return,5.972341299755499,,,,,,,,,,,,,,,,,912,20,male,left_right_width,2024-10-21_11h50.01.950,exp1,2023.1.0,60.108905290156606,
,,,,,,,,,,,,,,,,3,9.5,10,10.5,0,0,0.5,0.25,0.25,1.25,10,initial,36.05,342,361,379,0,0,9,9,9,0,0,,,,,,,2,0,2,0,0,11,11,33,,,,,,,,,,,,num_3,0.8283058998640627,num_3,0.4,0.5,0.25000000000000006,0.55,9.55138,21.01303,return,4.057438699761406,,,,,,,,,,,,,,,,,912,20,male,left_right_width,2024-10-21_11h50.01.950,exp1,2023.1.0,60.108905290156606,
,,,,,,,,,,,,,,,,4,9.25,9.75,10.25,10.75,0,0.5,0.25,0.25,1.75,10,initial,36.05,333,351,370,388,0,9,9,9,9,0,,,,,,,2,0,2,0,0,12,12,11,,,,,,,,,,,,num_4,0.7827325998805463,num_4,0.2,0.8,0.15000000000000002,0.4,5.73083,15.2822,return,6.093190899817273,,,,,,,,,,,,,,,,,912,20,male,left_right_width,2024-10-21_11h50.01.950,exp1,2023.1.0,60.108905290156606,
,,,,,,,,,,,,,,,,3,9.5,10,10.5,0,0,0.5,0.25,0.25,1.25,10,initial,36.05,342,361,379,0,0,9,9,9,0,0,,,,,,,2,0,2,0,0,13,13,0,,,,,,,,,,,,num_3,0.753798299934715,num_3,0.25,1,0.15000000000000002,0.45,5.73083,17.19248,return,4.50895159994252,,,,,,,,,,,,,,,,,912,20,male,left_right_width,2024-10-21_11h50.01.950,exp1,2023.1.0,60.108905290156606,
,,,,,,,,,,,,,,,,5,9,9.5,10,10.5,11,0.5,0.25,0.25,2.25,10,initial,36.05,324,342,361,379,397,9,9,9,9,9,,,,,,,2,0,2,0,0,14,14,48,,,,,,,,,,,,num_4,0.7673914998304099,num_4,0.55,1.1,0.15000000000000008,0.5,5.73083,19.10275,return,4.331871699774638,,,,,,,,,,,,,,,,,912,20,male,left_right_width,2024-10-21_11h50.01.950,exp1,2023.1.0,60.108905290156606,
,,,,,,,,,,,,,,,,3,9.5,10,10.5,0,0,0.5,0.25,0.25,1.25,10,initial,36.05,342,361,379,0,0,9,9,9,0,0,,,,,,,2,0,2,0,0,15,15,29,,,,,,,,,,,,num_3,0.632596299983561,num_3,0.55,1.2,0.20000000000000007,0.8,7.6411,30.5644,return,5.467648799996823,,,,,,,,,,,,,,,,,912,20,male,left_right_width,2024-10-21_11h50.01.950,exp1,2023.1.0,60.108905290156606,
,,,,,,,,,,,,,,,,4,9.25,9.75,10.25,10.75,0,0.5,0.25,0.25,1.75,10,initial,36.05,333,351,370,388,0,9,9,9,9,0,,,,,,,2,0,2,0,0,16,16,14,,,,,,,,,,,,num_4,3.24545029993169,num_4,0.25,0.8,0.25,0.5,9.55138,19.10275,return,8.442508699838072,,,,,,,,,,,,,,,,,912,20,male,left_right_width,2024-10-21_11h50.01.950,exp1,2023.1.0,60.108905290156606,
,,,,,,,,,,,,,,,,5,9,9.5,10,10.5,11,0.5,0.25,0.25,2.25,10,initial,36.05,324,342,361,379,397,9,9,9,9,9,,,,,,,2,0,2,0,0,17,17,24,,,,,,,,,,,,num_5,0.9124864998739213,num_5,0.5,1.1,0.20000000000000007,0.5,7.6411,19.10275,return,5.050002999836579,,,,,,,,,,,,,,,,,912,20,male,left_right_width,2024-10-21_11h50.01.950,exp1,2023.1.0,60.108905290156606,
,,,,,,,,,,,,,,,,5,9,9.5,10,10.5,11,0.5,0.25,0.25,2.25,10,initial,36.05,324,342,361,379,397,9,9,9,9,9,,,,,,,2,0,2,0,0,18,18,25,,,,,,,,,,,,num_5,0.8821359998546541,num_5,0.3,1.3,0.25,0.5,9.55138,19.10275,return,4.680125700077042,,,,,,,,,,,,,,,,,912,20,male,left_right_width,2024-10-21_11h50.01.950,exp1,2023.1.0,60.108905290156606,
,,,,,,,,,,,,,,,,4,9.25,9.75,10.25,10.75,0,0.5,0.25,0.25,1.75,10,initial,36.05,333,351,370,388,0,9,9,9,9,0,,,,,,,2,0,2,0,0,19,19,37,,,,,,,,,,,,num_4,1.370983500033617,num_4,0.2,1.2,0.15000000000000002,0.4,5.73083,15.2822,return,3.1715989999938756,,,,,,,,,,,,,,,,,912,20,male,left_right_width,2024-10-21_11h50.01.950,exp1,2023.1.0,60.108905290156606,
,,,,,,,,,,,,,,,,5,9,9.5,10,10.5,11,0.5,0.25,0.25,2.25,10,initial,36.05,324,342,361,379,397,9,9,9,9,9,,,,,,,2,0,2,0,0,20,20,46,,,,,,,,,,,,num_5,0.9230124000459909,num_5,0.3,1.2,0.2,0.55,7.6411,21.01303,return,3.7431714998092502,,,,,,,,,,,,,,,,,912,20,male,left_right_width,2024-10-21_11h50.01.950,exp1,2023.1.0,60.108905290156606,
,,,,,,,,,,,,,,,,5,9,9.5,10,10.5,11,0.5,0.25,0.25,2.25,10,initial,36.05,324,342,361,379,397,9,9,9,9,9,,,,,,,2,0,2,0,0,21,21,47,,,,,,,,,,,,num_5,1.0414986999239773,num_5,0.35,0.9,0.2,0.55,7.6411,21.01303,return,2.688524399884045,,,,,,,,,,,,,,,,,912,20,male,left_right_width,2024-10-21_11h50.01.950,exp1,2023.1.0,60.108905290156606,
,,,,,,,,,,,,,,,,3,9.5,10,10.5,0,0,0.5,0.25,0.25,1.25,10,initial,36.05,342,361,379,0,0,9,9,9,0,0,,,,,,,2,0,2,0,0,22,22,27,,,,,,,,,,,,num_3,0.6251220998819917,num_3,0.45,1.1,0.20000000000000007,0.55,7.6411,21.01303,return,5.620325400028378,,,,,,,,,,,,,,,,,912,20,male,left_right_width,2024-10-21_11h50.01.950,exp1,2023.1.0,60.108905290156606,
,,,,,,,,,,,,,,,,5,9,9.5,10,10.5,11,0.5,0.25,0.25,2.25,10,initial,36.05,324,342,361,379,397,9,9,9,9,9,,,,,,,2,0,2,0,0,23,23,22,,,,,,,,,,,,num_5,0.782577799865976,num_5,0.5,1.0,0.20000000000000007,0.6,7.6411,22.9233,return,3.7721320998389274,,,,,,,,,,,,,,,,,912,20,male,left_right_width,2024-10-21_11h50.01.950,exp1,2023.1.0,60.108905290156606,
,,,,,,,,,,,,,,,,4,9.25,9.75,10.25,10.75,0,0.5,0.25,0.25,1.75,10,initial,36.05,333,351,370,388,0,9,9,9,9,0,,,,,,,2,0,2,0,0,24,24,17,,,,,,,,,,,,num_4,0.8083620998077095,num_4,0.25,1.0,0.2,0.5,7.6411,19.10275,return,1.9418106998782605,,,,,,,,,,,,,,,,,912,20,male,left_right_width,2024-10-21_11h50.01.950,exp1,2023.1.0,60.108905290156606,
,,,,,,,,,,,,,,,,4,9.25,9.75,10.25,10.75,0,0.5,0.25,0.25,1.75,10,initial,36.05,333,351,370,388,0,9,9,9,9,0,,,,,,,2,0,2,0,0,25,25,42,,,,,,,,,,,,num_4,1.084004299947992,num_4,0.3,0.4,0.15000000000000002,0.5,5.73083,19.10275,return,2.8607868999242783,,,,,,,,,,,,,,,,,912,20,male,left_right_width,2024-10-21_11h50.01.950,exp1,2023.1.0,60.108905290156606,
,,,,,,,,,,,,,,,,3,9.5,10,10.5,0,0,0.5,0.25,0.25,1.25,10,initial,36.05,342,361,379,0,0,9,9,9,0,0,,,,,,,2,0,2,0,0,26,26,8,,,,,,,,,,,,num_3,0.7197141000069678,num_3,0.35,1,0.2,0.5,7.6411,19.10275,return,3.227558600017801,,,,,,,,,,,,,,,,,912,20,male,left_right_width,2024-10-21_11h50.01.950,exp1,2023.1.0,60.108905290156606,
,,,,,,,,,,,,,,,,5,9,9.5,10,10.5,11,0.5,0.25,0.25,2.25,10,initial,36.05,324,342,361,379,397,9,9,9,9,9,,,,,,,2,0,2,0,0,27,27,53,,,,,,,,,,,,num_5,0.7173792999237776,num_5,0.3,0.7,0.2,0.55,7.6411,21.01303,return,1.7569196997210383,,,,,,,,,,,,,,,,,912,20,male,left_right_width,2024-10-21_11h50.01.950,exp1,2023.1.0,60.108905290156606,
,,,,,,,,,,,,,,,,3,9.5,10,10.5,0,0,0.5,0.25,0.25,1.25,10,initial,36.05,342,361,379,0,0,9,9,9,0,0,,,,,,,2,0,2,0,0,28,28,6,,,,,,,,,,,,num_3,0.6087314998731017,num_3,0.3,1.2,0.2,0.55,7.6411,21.01303,return,3.7641751000192016,,,,,,,,,,,,,,,,,912,20,male,left_right_width,2024-10-21_11h50.01.950,exp1,2023.1.0,60.108905290156606,
,,,,,,,,,,,,,,,,5,9,9.5,10,10.5,11,0.5,0.25,0.25,2.25,10,initial,36.05,324,342,361,379,397,9,9,9,9,9,,,,,,,2,0,2,0,0,29,29,23,,,,,,,,,,,,num_5,0.7602009999100119,num_5,0.5,1.3,0.20000000000000007,0.5,7.6411,19.10275,return,4.069068999961019,,,,,,,,,,,,,,,,,912,20,male,left_right_width,2024-10-21_11h50.01.950,exp1,2023.1.0,60.108905290156606,
,,,,,,,,,,,,,,,,4,9.25,9.75,10.25,10.75,0,0.5,0.25,0.25,1.75,10,initial,36.05,333,351,370,388,0,9,9,9,9,0,,,,,,,2,0,2,0,0,30,30,10,,,,,,,,,,,,num_4,0.7554409001022577,num_4,0.2,1.3,0.05000000000000002,0.4,1.91028,15.2822,return,14.55855599977076,,,,,,,,,,,,,,,,,912,20,male,left_right_width,2024-10-21_11h50.01.950,exp1,2023.1.0,60.108905290156606,
,,,,,,,,,,,,,,,,4,9.25,9.75,10.25,10.75,0,0.5,0.25,0.25,1.75,10,initial,36.05,333,351,370,388,0,9,9,9,9,0,,,,,,,2,0,2,0,0,31,31,15,,,,,,,,,,,,num_4,0.7626558998599648,num_4,0.3,1.2,0.10000000000000002,0.4,3.82055,15.2822,return,8.33087920001708,,,,,,,,,,,,,,,,,912,20,male,left_right_width,2024-10-21_11h50.01.950,exp1,2023.1.0,60.108905290156606,
,,,,,,,,,,,,,,,,4,9.25,9.75,10.25,10.75,0,0.5,0.25,0.25,1.75,10,initial,36.05,333,351,370,388,0,9,9,9,9,0,,,,,,,2,0,2,0,0,32,32,41,,,,,,,,,,,,num_4,0.689001299906522,num_4,0.35,0.5,0.15000000000000002,0.4,5.73083,15.2822,return,3.982698999810964,,,,,,,,,,,,,,,,,912,20,male,left_right_width,2024-10-21_11h50.01.950,exp1,2023.1.0,60.108905290156606,
,,,,,,,,,,,,,,,,4,9.25,9.75,10.25,10.75,0,0.5,0.25,0.25,1.75,10,initial,36.05,333,351,370,388,0,9,9,9,9,0,,,,,,,2,0,2,0,0,33,33,12,,,,,,,,,,,,num_4,0.9173505997750908,num_4,0.55,0.7,0.15000000000000008,0.4,5.73083,15.2822,return,3.932296299841255,,,,,,,,,,,,,,,,,912,20,male,left_right_width,2024-10-21_11h50.01.950,exp1,2023.1.0,60.108905290156606,
,,,,,,,,,,,,,,,,3,9.5,10,10.5,0,0,0.5,0.25,0.25,1.25,10,initial,36.05,342,361,379,0,0,9,9,9,0,0,,,,,,,2,0,2,0,0,34,34,34,,,,,,,,,,,,num_3,0.9705817997455597,num_3,0.4,0.7,0.15000000000000008,0.65,5.73083,24.83358,return,2.258990200003609,,,,,,,,,,,,,,,,,912,20,male,left_right_width,2024-10-21_11h50.01.950,exp1,2023.1.0,60.108905290156606,
,,,,,,,,,,,,,,,,3,9.5,10,10.5,0,0,0.5,0.25,0.25,1.25,10,initial,36.05,342,361,379,0,0,9,9,9,0,0,,,,,,,2,0,2,0,0,35,35,7,,,,,,,,,,,,num_3,0.7056724999565631,num_3,0.4,0.9,0.15000000000000008,0.8,5.73083,30.5644,return,2.228249999927357,,,,,,,,,,,,,,,,,912,20,male,left_right_width,2024-10-21_11h50.01.950,exp1,2023.1.0,60.108905290156606,
,,,,,,,,,,,,,,,,3,9.5,10,10.5,0,0,0.5,0.25,0.25,1.25,10,initial,36.05,342,361,379,0,0,9,9,9,0,0,,,,,,,2,0,2,0,0,36,36,32,,,,,,,,,,,,num_3,0.5733308000490069,num_3,0.35,0.9,0.15000000000000002,0.55,5.73083,21.01303,return,2.291806599823758,,,,,,,,,,,,,,,,,912,20,male,left_right_width,2024-10-21_11h50.01.950,exp1,2023.1.0,60.108905290156606,
,,,,,,,,,,,,,,,,5,9,9.5,10,10.5,11,0.5,0.25,0.25,2.25,10,initial,36.05,324,342,361,379,397,9,9,9,9,9,,,,,,,2,0,2,0,0,37,37,50,,,,,,,,,,,,num_5,2.1270049999002367,num_5,0.45,1.0,0.10000000000000007,0.55,3.82055,21.01303,return,5.028640699805692,,,,,,,,,,,,,,,,,912,20,male,left_right_width,2024-10-21_11h50.01.950,exp1,2023.1.0,60.108905290156606,
,,,,,,,,,,,,,,,,3,9.5,10,10.5,0,0,0.5,0.25,0.25,1.25,10,initial,36.05,342,361,379,0,0,9,9,9,0,0,,,,,,,2,0,2,0,0,38,38,3,,,,,,,,,,,,num_3,0.642706599785015,num_3,0.3,0.5,0.10000000000000002,0.35,3.82055,13.37193,return,2.0388640998862684,,,,,,,,,,,,,,,,,912,20,male,left_right_width,2024-10-21_11h50.01.950,exp1,2023.1.0,60.108905290156606,
,,,,,,,,,,,,,,,,4,9.25,9.75,10.25,10.75,0,0.5,0.25,0.25,1.75,10,initial,36.05,333,351,370,388,0,9,9,9,9,0,,,,,,,2,0,2,0,0,39,39,44,,,,,,,,,,,,num_4,0.7070628998335451,num_4,0.55,1.3,0.15000000000000008,0.5,5.73083,19.10275,return,4.944146899972111,,,,,,,,,,,,,,,,,912,20,male,left_right_width,2024-10-21_11h50.01.950,exp1,2023.1.0,60.108905290156606,
,,,,,,,,,,,,,,,,5,9,9.5,10,10.5,11,0.5,0.25,0.25,2.25,10,initial,36.05,324,342,361,379,397,9,9,9,9,9,,,,,,,2,0,2,0,0,40,40,45,,,,,,,,,,,,num_5,0.7851030996534973,num_5,0.2,1.2,0.15000000000000002,0.65,5.73083,24.83358,return,6.02843390009366,,,,,,,,,,,,,,,,,912,20,male,left_right_width,2024-10-21_11h50.01.950,exp1,2023.1.0,60.108905290156606,
,,,,,,,,,,,,,,,,5,9,9.5,10,10.5,11,0.5,0.25,0.25,2.25,10,initial,36.05,324,342,361,379,397,9,9,9,9,9,,,,,,,2,0,2,0,0,41,41,51,,,,,,,,,,,,num_5,0.7850977999623865,num_5,0.25,1.1,0.15000000000000002,0.6,5.73083,22.9233,return,5.217544100014493,,,,,,,,,,,,,,,,,912,20,male,left_right_width,2024-10-21_11h50.01.950,exp1,2023.1.0,60.108905290156606,
,,,,,,,,,,,,,,,,4,9.25,9.75,10.25,10.75,0,0.5,0.25,0.25,1.75,10,initial,36.05,333,351,370,388,0,9,9,9,9,0,,,,,,,2,0,2,0,0,42,42,39,,,,,,,,,,,,num_4,0.6852390998974442,num_4,0.4,0.5,0.15000000000000008,0.5,5.73083,19.10275,return,1.5802247999235988,,,,,,,,,,,,,,,,,912,20,male,left_right_width,2024-10-21_11h50.01.950,exp1,2023.1.0,60.108905290156606,
,,,,,,,,,,,,,,,,4,9.25,9.75,10.25,10.75,0,0.5,0.25,0.25,1.75,10,initial,36.05,333,351,370,388,0,9,9,9,9,0,,,,,,,2,0,2,0,0,43,43,16,,,,,,,,,,,,num_4,0.5683376998640597,num_4,0.3,1.0,0.15000000000000002,0.4,5.73083,15.2822,return,2.1257947999984026,,,,,,,,,,,,,,,,,912,20,male,left_right_width,2024-10-21_11h50.01.950,exp1,2023.1.0,60.108905290156606,
,,,,,,,,,,,,,,,,3,9.5,10,10.5,0,0,0.5,0.25,0.25,1.25,10,initial,36.05,342,361,379,0,0,9,9,9,0,0,,,,,,,2,0,2,0,0,44,44,28,,,,,,,,,,,,num_3,0.6803262000903487,num_3,0.4,1.2,0.15000000000000008,0.55,5.73083,21.01303,return,4.028514899779111,,,,,,,,,,,,,,,,,912,20,male,left_right_width,2024-10-21_11h50.01.950,exp1,2023.1.0,60.108905290156606,
,,,,,,,,,,,,,,,,5,9,9.5,10,10.5,11,0.5,0.25,0.25,2.25,10,initial,36.05,324,342,361,379,397,9,9,9,9,9,,,,,,,2,0,2,0,0,45,45,20,,,,,,,,,,,,num_6,1.141473799943924,num_6,0.2,1.1,0.2,0.4,7.6411,15.2822,return,4.005879899952561,,,,,,,,,,,,,,,,,912,20,male,left_right_width,2024-10-21_11h50.01.950,exp1,2023.1.0,60.108905290156606,
,,,,,,,,,,,,,,,,3,9.5,10,10.5,0,0,0.5,0.25,0.25,1.25,10,initial,36.05,342,361,379,0,0,9,9,9,0,0,,,,,,,2,0,2,0,0,46,46,35,,,,,,,,,,,,num_3,0.7238205997273326,num_3,0.25,1.1,0.2,0.5,7.6411,19.10275,return,4.111811299808323,,,,,,,,,,,,,,,,,912,20,male,left_right_width,2024-10-21_11h50.01.950,exp1,2023.1.0,60.108905290156606,
,,,,,,,,,,,,,,,,4,9.25,9.75,10.25,10.75,0,0.5,0.25,0.25,1.75,10,initial,36.05,333,351,370,388,0,9,9,9,9,0,,,,,,,2,0,2,0,0,47,47,40,,,,,,,,,,,,num_4,0.6419070998672396,num_4,0.5,1.3,0.15000000000000008,0.5,5.73083,19.10275,return,4.470853399951011,,,,,,,,,,,,,,,,,912,20,male,left_right_width,2024-10-21_11h50.01.950,exp1,2023.1.0,60.108905290156606,
,,,,,,,,,,,,,,,,4,9.25,9.75,10.25,10.75,0,0.5,0.25,0.25,1.75,10,initial,36.05,333,351,370,388,0,9,9,9,9,0,,,,,,,2,0,2,0,0,48,48,38,,,,,,,,,,,,num_4,0.6529206999111921,num_4,0.2,0.7,0.2,0.5,7.6411,19.10275,return,2.3974283998832107,,,,,,,,,,,,,,,,,912,20,male,left_right_width,2024-10-21_11h50.01.950,exp1,2023.1.0,60.108905290156606,
,,,,,,,,,,,,,,,,5,9,9.5,10,10.5,11,0.5,0.25,0.25,2.25,10,initial,36.05,324,342,361,379,397,9,9,9,9,9,,,,,,,2,0,2,0,0,49,49,18,,,,,,,,,,,,num_5,0.7732943000737578,num_5,0.2,1.1,0.15000000000000002,0.7,5.73083,26.74385,return,4.321644499897957,,,,,,,,,,,,,,,,,912,20,male,left_right_width,2024-10-21_11h50.01.950,exp1,2023.1.0,60.108905290156606,
,,,,,,,,,,,,,,,,5,9,9.5,10,10.5,11,0.5,0.25,0.25,2.25,10,initial,36.05,324,342,361,379,397,9,9,9,9,9,,,,,,,2,0,2,0,0,50,50,49,,,,,,,,,,,,num_5,0.7206766998860985,num_5,0.25,0.4,0.2,0.4,7.6411,15.2822,return,4.4784612997900695,,,,,,,,,,,,,,,,,912,20,male,left_right_width,2024-10-21_11h50.01.950,exp1,2023.1.0,60.108905290156606,
,,,,,,,,,,,,,,,,4,9.25,9.75,10.25,10.75,0,0.5,0.25,0.25,1.75,10,initial,36.05,333,351,370,388,0,9,9,9,9,0,,,,,,,2,0,2,0,0,51,51,9,,,,,,,,,,,,num_4,0.6630701997783035,num_4,0.55,1.0,0.15000000000000008,0.6,5.73083,22.9233,return,4.0111936999019235,,,,,,,,,,,,,,,,,912,20,male,left_right_width,2024-10-21_11h50.01.950,exp1,2023.1.0,60.108905290156606,
,,,,,,,,,,,,,,,,3,9.5,10,10.5,0,0,0.5,0.25,0.25,1.25,10,initial,36.05,342,361,379,0,0,9,9,9,0,0,,,,,,,2,0,2,0,0,52,52,2,,,,,,,,,,,,num_3,0.6286271999124438,num_3,0.55,0.9,0.15000000000000008,0.55,5.73083,21.01303,return,3.7644617999903858,,,,,,,,,,,,,,,,,912,20,male,left_right_width,2024-10-21_11h50.01.950,exp1,2023.1.0,60.108905290156606,
,,,,,,,,,,,,,,,,5,9,9.5,10,10.5,11,0.5,0.25,0.25,2.25,10,initial,36.05,324,342,361,379,397,9,9,9,9,9,,,,,,,2,0,2,0,0,53,53,52,,,,,,,,,,,,num_5,1.4829218999948353,num_5,0.2,1.3,0.25,0.5,9.55138,19.10275,return,6.694649699842557,,,,,,,,,,,,,,,,,912,20,male,left_right_width,2024-10-21_11h50.01.950,exp1,2023.1.0,60.108905290156606,
,,,,,,,,,,,,,,,,,,,,,,,,,,,,,,,,,,,,,,,,,,,,,2,0,2,0,,,,,,,,,,,,,,,,,,,,,,,,,,,,,1686.0578779999632,1686.0578779999632,1686.0578779999632,,,,,,,,,,,,912,20,male,left_right_width,2024-10-21_11h50.01.950,exp1,2023.1.0,60.108905290156606,
,,,,,,,,,,,,,,,,3,9.1,10,10.9,0,0,0.9,0.35,0.55,2.35,10,initial,36.05,328,361,393,0,0,9,9,9,0,0,,,,,,,3,0,3,0,0,0,0,30,,,,,,,,,,,,num_3,1.1662444998510182,num_3,0.45,0.5,0.4,0.75,15.2822,28.65413,return,3.7906237000133842,,,,,,,,,,,,,,,,,912,20,male,left_right_width,2024-10-21_11h50.01.950,exp1,2023.1.0,60.108905290156606,
,,,,,,,,,,,,,,,,4,8.65,9.55,10.45,11.35,0,0.9,0.35,0.55,3.25,10,initial,36.05,312,344,377,409,0,9,9,9,9,0,,,,,,,3,0,3,0,0,1,1,12,,,,,,,,,,,,num_4,0.6643650997430086,num_4,0.5,1.2,0.5,0.9,19.10275,34.38495,return,1.1744559998624027,,,,,,,,,,,,,,,,,912,20,male,left_right_width,2024-10-21_11h50.01.950,exp1,2023.1.0,60.108905290156606,
,,,,,,,,,,,,,,,,3,9.1,10,10.9,0,0,0.9,0.35,0.55,2.35,10,initial,36.05,328,361,393,0,0,9,9,9,0,0,,,,,,,3,0,3,0,0,2,2,28,,,,,,,,,,,,num_3,0.6287587999831885,num_3,0.25,0.4,0.39999999999999997,0.65,15.2822,24.83358,return,2.7754623000510037,,,,,,,,,,,,,,,,,912,20,male,left_right_width,2024-10-21_11h50.01.950,exp1,2023.1.0,60.108905290156606,
,,,,,,,,,,,,,,,,5,8.2,9.1,10,10.9,11.8,0.9,0.35,0.55,4.15,10,initial,36.05,296,328,361,393,425,9,9,9,9,9,,,,,,,3,0,3,0,0,3,3,23,,,,,,,,,,,,num_5,0.7573904998134822,num_5,0.25,1.0,0.49999999999999994,0.85,19.10275,32.47468,return,4.716764099895954,,,,,,,,,,,,,,,,,912,20,male,left_right_width,2024-10-21_11h50.01.950,exp1,2023.1.0,60.108905290156606,
,,,,,,,,,,,,,,,,5,8.2,9.1,10,10.9,11.8,0.9,0.35,0.55,4.15,10,initial,36.05,296,328,361,393,425,9,9,9,9,9,,,,,,,3,0,3,0,0,4,4,48,,,,,,,,,,,,num_5,0.6677489997819066,num_5,0.2,0.9,0.5499999999999999,0.85,21.01303,32.47468,return,2.77529829996638,,,,,,,,,,,,,,,,,912,20,male,left_right_width,2024-10-21_11h50.01.950,exp1,2023.1.0,60.108905290156606,
,,,,,,,,,,,,,,,,4,8.65,9.55,10.45,11.35,0,0.9,0.35,0.55,3.25,10,initial,36.05,312,344,377,409,0,9,9,9,9,0,,,,,,,3,0,3,0,0,5,5,43,,,,,,,,,,,,num_3,1.2966373998206109,num_3,0.35,1.2,0.6,1.05,22.9233,40.11578,return,3.2277641999535263,,,,,,,,,,,,,,,,,912,20,male,left_right_width,2024-10-21_11h50.01.950,exp1,2023.1.0,60.108905290156606,
,,,,,,,,,,,,,,,,5,8.2,9.1,10,10.9,11.8,0.9,0.35,0.55,4.15,10,initial,36.05,296,328,361,393,425,9,9,9,9,9,,,,,,,3,0,3,0,0,6,6,49,,,,,,,,,,,,num_5,0.7658734999131411,num_5,0.45,0.6,0.45,0.8,17.19248,30.5644,return,2.623042899882421,,,,,,,,,,,,,,,,,912,20,male,left_right_width,2024-10-21_11h50.01.950,exp1,2023.1.0,60.108905290156606,
,,,,,,,,,,,,,,,,5,8.2,9.1,10,10.9,11.8,0.9,0.35,0.55,4.15,10,initial,36.05,296,328,361,393,425,9,9,9,9,9,,,,,,,3,0,3,0,0,7,7,20,,,,,,,,,,,,num_4,1.0270026999060065,num_4,0.35,0.5,0.6,1.0,22.9233,38.2055,return,6.0373806999996305,,,,,,,,,,,,,,,,,912,20,male,left_right_width,2024-10-21_11h50.01.950,exp1,2023.1.0,60.108905290156606,
,,,,,,,,,,,,,,,,5,8.2,9.1,10,10.9,11.8,0.9,0.35,0.55,4.15,10,initial,36.05,296,328,361,393,425,9,9,9,9,9,,,,,,,3,0,3,0,0,8,8,19,,,,,,,,,,,,num_6,1.4410265998449177,num_6,0.2,1.2,0.49999999999999994,0.8,19.10275,30.5644,return,2.8858505997341126,,,,,,,,,,,,,,,,,912,20,male,left_right_width,2024-10-21_11h50.01.950,exp1,2023.1.0,60.108905290156606,
,,,,,,,,,,,,,,,,5,8.2,9.1,10,10.9,11.8,0.9,0.35,0.55,4.15,10,initial,36.05,296,328,361,393,425,9,9,9,9,9,,,,,,,3,0,3,0,0,9,9,50,,,,,,,,,,,,num_5,0.7424083000514656,num_5,0.35,0.8,0.49999999999999994,0.85,19.10275,32.47468,return,1.9892894998192787,,,,,,,,,,,,,,,,,912,20,male,left_right_width,2024-10-21_11h50.01.950,exp1,2023.1.0,60.108905290156606,
,,,,,,,,,,,,,,,,5,8.2,9.1,10,10.9,11.8,0.9,0.35,0.55,4.15,10,initial,36.05,296,328,361,393,425,9,9,9,9,9,,,,,,,3,0,3,0,0,10,10,47,,,,,,,,,,,,num_5,0.8079468000214547,num_5,0.25,0.3,0.44999999999999996,0.65,17.19248,24.83358,return,5.943283699918538,,,,,,,,,,,,,,,,,912,20,male,left_right_width,2024-10-21_11h50.01.950,exp1,2023.1.0,60.108905290156606,
,,,,,,,,,,,,,,,,4,8.65,9.55,10.45,11.35,0,0.9,0.35,0.55,3.25,10,initial,36.05,312,344,377,409,0,9,9,9,9,0,,,,,,,3,0,3,0,0,11,11,42,,,,,,,,,,,,num_4,1.0524707997683436,num_4,0.2,0.6,0.39999999999999997,0.7,15.2822,26.74385,return,1.7298034997656941,,,,,,,,,,,,,,,,,912,20,male,left_right_width,2024-10-21_11h50.01.950,exp1,2023.1.0,60.108905290156606,
,,,,,,,,,,,,,,,,4,8.65,9.55,10.45,11.35,0,0.9,0.35,0.55,3.25,10,initial,36.05,312,344,377,409,0,9,9,9,9,0,,,,,,,3,0,3,0,0,12,12,15,,,,,,,,,,,,num_4,0.6495717999059707,num_4,0.25,0.4,0.49999999999999994,0.7,19.10275,26.74385,return,2.6068807998672128,,,,,,,,,,,,,,,,,912,20,male,left_right_width,2024-10-21_11h50.01.950,exp1,2023.1.0,60.108905290156606,
,,,,,,,,,,,,,,,,3,9.1,10,10.9,0,0,0.9,0.35,0.55,2.35,10,initial,36.05,328,361,393,0,0,9,9,9,0,0,,,,,,,3,0,3,0,0,13,13,3,,,,,,,,,,,,num_3,0.6277338997460902,num_3,0.55,0.6,0.55,1.0,21.01303,38.2055,return,3.6365071998443455,,,,,,,,,,,,,,,,,912,20,male,left_right_width,2024-10-21_11h50.01.950,exp1,2023.1.0,60.108905290156606,
,,,,,,,,,,,,,,,,5,8.2,9.1,10,10.9,11.8,0.9,0.35,0.55,4.15,10,initial,36.05,296,328,361,393,425,9,9,9,9,9,,,,,,,3,0,3,0,0,14,14,22,,,,,,,,,,,,num_5,1.4543985999189317,num_5,0.4,0.6,0.4,0.8,15.2822,30.5644,return,3.1963086996693164,,,,,,,,,,,,,,,,,912,20,male,left_right_width,2024-10-21_11h50.01.950,exp1,2023.1.0,60.108905290156606,
,,,,,,,,,,,,,,,,4,8.65,9.55,10.45,11.35,0,0.9,0.35,0.55,3.25,10,initial,36.05,312,344,377,409,0,9,9,9,9,0,,,,,,,3,0,3,0,0,15,15,10,,,,,,,,,,,,num_4,0.7251564997714013,num_4,0.45,0.9,0.4,0.8,15.2822,30.5644,return,1.8025608998723328,,,,,,,,,,,,,,,,,912,20,male,left_right_width,2024-10-21_11h50.01.950,exp1,2023.1.0,60.108905290156606,
,,,,,,,,,,,,,,,,4,8.65,9.55,10.45,11.35,0,0.9,0.35,0.55,3.25,10,initial,36.05,312,344,377,409,0,9,9,9,9,0,,,,,,,3,0,3,0,0,16,16,41,,,,,,,,,,,,num_4,0.8237124998122454,num_4,0.2,1.1,0.49999999999999994,0.8,19.10275,30.5644,return,4.529026299715042,,,,,,,,,,,,,,,,,912,20,male,left_right_width,2024-10-21_11h50.01.950,exp1,2023.1.0,60.108905290156606,
,,,,,,,,,,,,,,,,4,8.65,9.55,10.45,11.35,0,0.9,0.35,0.55,3.25,10,initial,36.05,312,344,377,409,0,9,9,9,9,0,,,,,,,3,0,3,0,0,17,17,36,,,,,,,,,,,,num_4,0.6956995998043567,num_4,0.25,1.1,0.49999999999999994,0.7,19.10275,26.74385,return,2.2633316998835653,,,,,,,,,,,,,,,,,912,20,male,left_right_width,2024-10-21_11h50.01.950,exp1,2023.1.0,60.108905290156606,
,,,,,,,,,,,,,,,,4,8.65,9.55,10.45,11.35,0,0.9,0.35,0.55,3.25,10,initial,36.05,312,344,377,409,0,9,9,9,9,0,,,,,,,3,0,3,0,0,18,18,37,,,,,,,,,,,,num_4,0.6657814998179674,num_4,0.2,0.9,0.44999999999999996,0.7,17.19248,26.74385,return,2.472710899775848,,,,,,,,,,,,,,,,,912,20,male,left_right_width,2024-10-21_11h50.01.950,exp1,2023.1.0,60.108905290156606,
,,,,,,,,,,,,,,,,4,8.65,9.55,10.45,11.35,0,0.9,0.35,0.55,3.25,10,initial,36.05,312,344,377,409,0,9,9,9,9,0,,,,,,,3,0,3,0,0,19,19,16,,,,,,,,,,,,num_4,0.6377790998667479,num_4,0.45,0.8,0.45,0.8,17.19248,30.5644,return,0.8916376999113709,,,,,,,,,,,,,,,,,912,20,male,left_right_width,2024-10-21_11h50.01.950,exp1,2023.1.0,60.108905290156606,
,,,,,,,,,,,,,,,,3,9.1,10,10.9,0,0,0.9,0.35,0.55,2.35,10,initial,36.05,328,361,393,0,0,9,9,9,0,0,,,,,,,3,0,3,0,0,20,20,8,,,,,,,,,,,,num_3,0.6159716998226941,num_3,0.2,0.5,0.44999999999999996,0.65,17.19248,24.83358,return,2.089447299716994,,,,,,,,,,,,,,,,,912,20,male,left_right_width,2024-10-21_11h50.01.950,exp1,2023.1.0,60.108905290156606,
,,,,,,,,,,,,,,,,3,9.1,10,10.9,0,0,0.9,0.35,0.55,2.35,10,initial,36.05,328,361,393,0,0,9,9,9,0,0,,,,,,,3,0,3,0,0,21,21,29,,,,,,,,,,,,num_3,0.7017556999344379,num_3,0.3,0.8,0.5499999999999999,0.95,21.01303,36.29523,return,2.046049099881202,,,,,,,,,,,,,,,,,912,20,male,left_right_width,2024-10-21_11h50.01.950,exp1,2023.1.0,60.108905290156606,
,,,,,,,,,,,,,,,,4,8.65,9.55,10.45,11.35,0,0.9,0.35,0.55,3.25,10,initial,36.05,312,344,377,409,0,9,9,9,9,0,,,,,,,3,0,3,0,0,22,22,13,,,,,,,,,,,,num_4,0.5846857998985797,num_4,0.3,0.7,0.5499999999999999,0.9,21.01303,34.38495,return,1.6927092000842094,,,,,,,,,,,,,,,,,912,20,male,left_right_width,2024-10-21_11h50.01.950,exp1,2023.1.0,60.108905290156606,
,,,,,,,,,,,,,,,,4,8.65,9.55,10.45,11.35,0,0.9,0.35,0.55,3.25,10,initial,36.05,312,344,377,409,0,9,9,9,9,0,,,,,,,3,0,3,0,0,23,23,9,,,,,,,,,,,,num_4,0.7394568000454456,num_4,0.4,0.5,0.4,0.8,15.2822,30.5644,return,1.1368962998967618,,,,,,,,,,,,,,,,,912,20,male,left_right_width,2024-10-21_11h50.01.950,exp1,2023.1.0,60.108905290156606,
,,,,,,,,,,,,,,,,3,9.1,10,10.9,0,0,0.9,0.35,0.55,2.35,10,initial,36.05,328,361,393,0,0,9,9,9,0,0,,,,,,,3,0,3,0,0,24,24,7,,,,,,,,,,,,num_3,0.6246871999464929,num_3,0.5,0.8,0.55,0.95,21.01303,36.29523,return,2.5291579999029636,,,,,,,,,,,,,,,,,912,20,male,left_right_width,2024-10-21_11h50.01.950,exp1,2023.1.0,60.108905290156606,
,,,,,,,,,,,,,,,,5,8.2,9.1,10,10.9,11.8,0.9,0.35,0.55,4.15,10,initial,36.05,296,328,361,393,425,9,9,9,9,9,,,,,,,3,0,3,0,0,25,25,51,,,,,,,,,,,,num_5,0.8658684000838548,num_5,0.45,1.2,0.5,0.9,19.10275,34.38495,return,3.403490699827671,,,,,,,,,,,,,,,,,912,20,male,left_right_width,2024-10-21_11h50.01.950,exp1,2023.1.0,60.108905290156606,
,,,,,,,,,,,,,,,,3,9.1,10,10.9,0,0,0.9,0.35,0.55,2.35,10,initial,36.05,328,361,393,0,0,9,9,9,0,0,,,,,,,3,0,3,0,0,26,26,2,,,,,,,,,,,,num_3,0.6812175998929888,num_3,0.2,0.3,0.44999999999999996,0.8,17.19248,30.5644,return,4.055712600005791,,,,,,,,,,,,,,,,,912,20,male,left_right_width,2024-10-21_11h50.01.950,exp1,2023.1.0,60.108905290156606,
,,,,,,,,,,,,,,,,5,8.2,9.1,10,10.9,11.8,0.9,0.35,0.55,4.15,10,initial,36.05,296,328,361,393,425,9,9,9,9,9,,,,,,,3,0,3,0,0,27,27,53,,,,,,,,,,,,num_5,0.7059611997101456,num_5,0.45,0.8,0.45,0.75,17.19248,28.65413,return,1.9361155999358743,,,,,,,,,,,,,,,,,912,20,male,left_right_width,2024-10-21_11h50.01.950,exp1,2023.1.0,60.108905290156606,
,,,,,,,,,,,,,,,,5,8.2,9.1,10,10.9,11.8,0.9,0.35,0.55,4.15,10,initial,36.05,296,328,361,393,425,9,9,9,9,9,,,,,,,3,0,3,0,0,28,28,46,,,,,,,,,,,,num_6,0.8351121998857707,num_6,0.35,0.6,0.44999999999999996,0.8,17.19248,30.5644,return,2.3529581998009235,,,,,,,,,,,,,,,,,912,20,male,left_right_width,2024-10-21_11h50.01.950,exp1,2023.1.0,60.108905290156606,
,,,,,,,,,,,,,,,,5,8.2,9.1,10,10.9,11.8,0.9,0.35,0.55,4.15,10,initial,36.05,296,328,361,393,425,9,9,9,9,9,,,,,,,3,0,3,0,0,29,29,45,,,,,,,,,,,,num_5,0.7644402997102588,num_5,0.3,1.2,0.44999999999999996,0.9,17.19248,34.38495,return,3.800039399880916,,,,,,,,,,,,,,,,,912,20,male,left_right_width,2024-10-21_11h50.01.950,exp1,2023.1.0,60.108905290156606,
,,,,,,,,,,,,,,,,4,8.65,9.55,10.45,11.35,0,0.9,0.35,0.55,3.25,10,initial,36.05,312,344,377,409,0,9,9,9,9,0,,,,,,,3,0,3,0,0,30,30,11,,,,,,,,,,,,num_4,0.7379763999488205,num_4,0.45,0.7,0.55,0.9,21.01303,34.38495,return,2.5748995998874307,,,,,,,,,,,,,,,,,912,20,male,left_right_width,2024-10-21_11h50.01.950,exp1,2023.1.0,60.108905290156606,
,,,,,,,,,,,,,,,,3,9.1,10,10.9,0,0,0.9,0.35,0.55,2.35,10,initial,36.05,328,361,393,0,0,9,9,9,0,0,,,,,,,3,0,3,0,0,31,31,32,,,,,,,,,,,,num_3,0.6138925997074693,num_3,0.45,1.3,0.5,0.9,19.10275,34.38495,return,2.939277899917215,,,,,,,,,,,,,,,,,912,20,male,left_right_width,2024-10-21_11h50.01.950,exp1,2023.1.0,60.108905290156606,
,,,,,,,,,,,,,,,,5,8.2,9.1,10,10.9,11.8,0.9,0.35,0.55,4.15,10,initial,36.05,296,328,361,393,425,9,9,9,9,9,,,,,,,3,0,3,0,0,32,32,52,,,,,,,,,,,,num_5,1.0206418000161648,num_5,0.2,1.1,0.49999999999999994,0.85,19.10275,32.47468,return,4.048409499926493,,,,,,,,,,,,,,,,,912,20,male,left_right_width,2024-10-21_11h50.01.950,exp1,2023.1.0,60.108905290156606,
,,,,,,,,,,,,,,,,4,8.65,9.55,10.45,11.35,0,0.9,0.35,0.55,3.25,10,initial,36.05,312,344,377,409,0,9,9,9,9,0,,,,,,,3,0,3,0,0,33,33,38,,,,,,,,,,,,num_4,0.69090859987773,num_4,0.55,0.7,0.4,0.7,15.2822,26.74385,return,2.2567413998767734,,,,,,,,,,,,,,,,,912,20,male,left_right_width,2024-10-21_11h50.01.950,exp1,2023.1.0,60.108905290156606,
,,,,,,,,,,,,,,,,4,8.65,9.55,10.45,11.35,0,0.9,0.35,0.55,3.25,10,initial,36.05,312,344,377,409,0,9,9,9,9,0,,,,,,,3,0,3,0,0,34,34,17,,,,,,,,,,,,num_3,0.8351938999257982,num_3,0.4,1.3,0.35000000000000003,0.75,13.37193,28.65413,return,2.9870909999590367,,,,,,,,,,,,,,,,,912,20,male,left_right_width,2024-10-21_11h50.01.950,exp1,2023.1.0,60.108905290156606,
,,,,,,,,,,,,,,,,4,8.65,9.55,10.45,11.35,0,0.9,0.35,0.55,3.25,10,initial,36.05,312,344,377,409,0,9,9,9,9,0,,,,,,,3,0,3,0,0,35,35,44,,,,,,,,,,,,num_4,0.697866799775511,num_4,0.55,0.9,0.35000000000000003,1.0,13.37193,38.2055,return,1.9706974998116493,,,,,,,,,,,,,,,,,912,20,male,left_right_width,2024-10-21_11h50.01.950,exp1,2023.1.0,60.108905290156606,
,,,,,,,,,,,,,,,,5,8.2,9.1,10,10.9,11.8,0.9,0.35,0.55,4.15,10,initial,36.05,296,328,361,393,425,9,9,9,9,9,,,,,,,3,0,3,0,0,36,36,25,,,,,,,,,,,,num_5,0.7149845000822097,num_5,0.5,0.8,0.4,0.75,15.2822,28.65413,return,1.288739199982956,,,,,,,,,,,,,,,,,912,20,male,left_right_width,2024-10-21_11h50.01.950,exp1,2023.1.0,60.108905290156606,
,,,,,,,,,,,,,,,,3,9.1,10,10.9,0,0,0.9,0.35,0.55,2.35,10,initial,36.05,328,361,393,0,0,9,9,9,0,0,,,,,,,3,0,3,0,0,37,37,6,,,,,,,,,,,,num_3,0.5605820000637323,num_3,0.25,1.2,0.49999999999999994,0.8,19.10275,30.5644,return,3.3964714999310672,,,,,,,,,,,,,,,,,912,20,male,left_right_width,2024-10-21_11h50.01.950,exp1,2023.1.0,60.108905290156606,
,,,,,,,,,,,,,,,,3,9.1,10,10.9,0,0,0.9,0.35,0.55,2.35,10,initial,36.05,328,361,393,0,0,9,9,9,0,0,,,,,,,3,0,3,0,0,38,38,33,,,,,,,,,,,,num_3,0.6178673999384046,num_3,0.25,1.1,0.49999999999999994,0.75,19.10275,28.65413,return,2.8620754997245967,,,,,,,,,,,,,,,,,912,20,male,left_right_width,2024-10-21_11h50.01.950,exp1,2023.1.0,60.108905290156606,
,,,,,,,,,,,,,,,,3,9.1,10,10.9,0,0,0.9,0.35,0.55,2.35,10,initial,36.05,328,361,393,0,0,9,9,9,0,0,,,,,,,3,0,3,0,0,39,39,35,,,,,,,,,,,,num_3,0.671521799871698,num_3,0.35,0.5,0.49999999999999994,0.85,19.10275,32.47468,return,5.135383399901912,,,,,,,,,,,,,,,,,912,20,male,left_right_width,2024-10-21_11h50.01.950,exp1,2023.1.0,60.108905290156606,
,,,,,,,,,,,,,,,,3,9.1,10,10.9,0,0,0.9,0.35,0.55,2.35,10,initial,36.05,328,361,393,0,0,9,9,9,0,0,,,,,,,3,0,3,0,0,40,40,34,,,,,,,,,,,,num_3,0.5951754997950047,num_3,0.3,0.8,0.5499999999999999,0.75,21.01303,28.65413,return,2.709094299701974,,,,,,,,,,,,,,,,,912,20,male,left_right_width,2024-10-21_11h50.01.950,exp1,2023.1.0,60.108905290156606,
,,,,,,,,,,,,,,,,3,9.1,10,10.9,0,0,0.9,0.35,0.55,2.35,10,initial,36.05,328,361,393,0,0,9,9,9,0,0,,,,,,,3,0,3,0,0,41,41,5,,,,,,,,,,,,num_3,0.9272570998873562,num_3,0.35,1.3,0.6,0.9,22.9233,34.38495,return,3.1287272998597473,,,,,,,,,,,,,,,,,912,20,male,left_right_width,2024-10-21_11h50.01.950,exp1,2023.1.0,60.108905290156606,
,,,,,,,,,,,,,,,,3,9.1,10,10.9,0,0,0.9,0.35,0.55,2.35,10,initial,36.05,328,361,393,0,0,9,9,9,0,0,,,,,,,3,0,3,0,0,42,42,0,,,,,,,,,,,,num_3,0.5950871997047216,num_3,0.35,0.5,0.44999999999999996,0.65,17.19248,24.83358,return,2.1212318998295814,,,,,,,,,,,,,,,,,912,20,male,left_right_width,2024-10-21_11h50.01.950,exp1,2023.1.0,60.108905290156606,
,,,,,,,,,,,,,,,,3,9.1,10,10.9,0,0,0.9,0.35,0.55,2.35,10,initial,36.05,328,361,393,0,0,9,9,9,0,0,,,,,,,3,0,3,0,0,43,43,1,,,,,,,,,,,,num_3,0.5091330998111516,num_3,0.3,0.8,0.5499999999999999,0.75,21.01303,28.65413,return,1.7003064998425543,,,,,,,,,,,,,,,,,912,20,male,left_right_width,2024-10-21_11h50.01.950,exp1,2023.1.0,60.108905290156606,
,,,,,,,,,,,,,,,,3,9.1,10,10.9,0,0,0.9,0.35,0.55,2.35,10,initial,36.05,328,361,393,0,0,9,9,9,0,0,,,,,,,3,0,3,0,0,44,44,31,,,,,,,,,,,,num_3,0.8377360999584198,num_3,0.25,0.6,0.44999999999999996,0.75,17.19248,28.65413,return,1.8736838998738676,,,,,,,,,,,,,,,,,912,20,male,left_right_width,2024-10-21_11h50.01.950,exp1,2023.1.0,60.108905290156606,
,,,,,,,,,,,,,,,,3,9.1,10,10.9,0,0,0.9,0.35,0.55,2.35,10,initial,36.05,328,361,393,0,0,9,9,9,0,0,,,,,,,3,0,3,0,0,45,45,27,,,,,,,,,,,,num_3,0.5130187999457121,num_3,0.3,0.9,0.5499999999999999,0.85,21.01303,32.47468,return,1.735819899942726,,,,,,,,,,,,,,,,,912,20,male,left_right_width,2024-10-21_11h50.01.950,exp1,2023.1.0,60.108905290156606,
,,,,,,,,,,,,,,,,5,8.2,9.1,10,10.9,11.8,0.9,0.35,0.55,4.15,10,initial,36.05,296,328,361,393,425,9,9,9,9,9,,,,,,,3,0,3,0,0,46,46,18,,,,,,,,,,,,num_5,1.9493487998843193,num_5,0.55,1.2,0.45,0.95,17.19248,36.29523,return,2.760515699861571,,,,,,,,,,,,,,,,,912,20,male,left_right_width,2024-10-21_11h50.01.950,exp1,2023.1.0,60.108905290156606,
,,,,,,,,,,,,,,,,5,8.2,9.1,10,10.9,11.8,0.9,0.35,0.55,4.15,10,initial,36.05,296,328,361,393,425,9,9,9,9,9,,,,,,,3,0,3,0,0,47,47,26,,,,,,,,,,,,num_5,1.0248592998832464,num_5,0.45,1.3,0.4,0.8,15.2822,30.5644,return,2.7416844998952,,,,,,,,,,,,,,,,,912,20,male,left_right_width,2024-10-21_11h50.01.950,exp1,2023.1.0,60.108905290156606,
,,,,,,,,,,,,,,,,4,8.65,9.55,10.45,11.35,0,0.9,0.35,0.55,3.25,10,initial,36.05,312,344,377,409,0,9,9,9,9,0,,,,,,,3,0,3,0,0,48,48,14,,,,,,,,,,,,num_4,1.0583592997863889,num_4,0.5,0.9,0.35000000000000003,0.6,13.37193,22.9233,return,1.6345253998879343,,,,,,,,,,,,,,,,,912,20,male,left_right_width,2024-10-21_11h50.01.950,exp1,2023.1.0,60.108905290156606,
,,,,,,,,,,,,,,,,5,8.2,9.1,10,10.9,11.8,0.9,0.35,0.55,4.15,10,initial,36.05,296,328,361,393,425,9,9,9,9,9,,,,,,,3,0,3,0,0,49,49,21,,,,,,,,,,,,num_6,1.1175531998742372,num_6,0.35,0.7,0.5499999999999999,0.9,21.01303,34.38495,return,2.506794899934903,,,,,,,,,,,,,,,,,912,20,male,left_right_width,2024-10-21_11h50.01.950,exp1,2023.1.0,60.108905290156606,
,,,,,,,,,,,,,,,,4,8.65,9.55,10.45,11.35,0,0.9,0.35,0.55,3.25,10,initial,36.05,312,344,377,409,0,9,9,9,9,0,,,,,,,3,0,3,0,0,50,50,39,,,,,,,,,,,,num_5,0.8917417000047863,num_5,0.3,1.1,0.49999999999999994,0.8,19.10275,30.5644,return,3.399502999847755,,,,,,,,,,,,,,,,,912,20,male,left_right_width,2024-10-21_11h50.01.950,exp1,2023.1.0,60.108905290156606,
,,,,,,,,,,,,,,,,4,8.65,9.55,10.45,11.35,0,0.9,0.35,0.55,3.25,10,initial,36.05,312,344,377,409,0,9,9,9,9,0,,,,,,,3,0,3,0,0,51,51,40,,,,,,,,,,,,num_4,1.0326942999381572,num_4,0.45,0.7,0.35000000000000003,0.6,13.37193,22.9233,return,2.9061887997668236,,,,,,,,,,,,,,,,,912,20,male,left_right_width,2024-10-21_11h50.01.950,exp1,2023.1.0,60.108905290156606,
,,,,,,,,,,,,,,,,3,9.1,10,10.9,0,0,0.9,0.35,0.55,2.35,10,initial,36.05,328,361,393,0,0,9,9,9,0,0,,,,,,,3,0,3,0,0,52,52,4,,,,,,,,,,,,num_3,0.6384005998261273,num_3,0.3,1.3,0.44999999999999996,0.95,17.19248,36.29523,return,6.141106799943373,,,,,,,,,,,,,,,,,912,20,male,left_right_width,2024-10-21_11h50.01.950,exp1,2023.1.0,60.108905290156606,
,,,,,,,,,,,,,,,,5,8.2,9.1,10,10.9,11.8,0.9,0.35,0.55,4.15,10,initial,36.05,296,328,361,393,425,9,9,9,9,9,,,,,,,3,0,3,0,0,53,53,24,,,,,,,,,,,,num_6,0.9268118997570127,num_6,0.25,1.2,0.44999999999999996,0.9,17.19248,34.38495,return,6.211960299871862,,,,,,,,,,,,,,,,,912,20,male,left_right_width,2024-10-21_11h50.01.950,exp1,2023.1.0,60.108905290156606,
,,,,,,,,,,,,,,,,,,,,,,,,,,,,,,,,,,,,,,,,,,,,,3,0,3,0,,,,,,,,,,,,,,,,,,,,,,,,,,,,,1984.123927900102,1984.123927900102,1984.123927900102,,,,,,,,,,,,912,20,male,left_right_width,2024-10-21_11h50.01.950,exp1,2023.1.0,60.108905290156606,
,,,,,,,,,,,,,,,,4,9.25,9.75,10.25,10.75,0,0.5,0.1,0.4,1.9000000000000001,10,initial,36.05,333,351,370,388,0,9,9,9,9,0,,,,,,,4,0,4,0,0,0,0,12,,,,,,,,,,,,num_3,0.6882888998370618,num_3,0.35,0.7,0.39999999999999997,0.55,15.2822,21.01303,return,1.6193260999862105,,,,,,,,,,,,,,,,,912,20,male,left_right_width,2024-10-21_11h50.01.950,exp1,2023.1.0,60.108905290156606,
,,,,,,,,,,,,,,,,5,9,9.5,10,10.5,11,0.5,0.1,0.4,2.4,10,initial,36.05,324,342,361,379,397,9,9,9,9,9,,,,,,,4,0,4,0,0,1,1,46,,,,,,,,,,,,num_4,0.7326221999246627,num_4,0.5,0.6,0.35000000000000003,0.5,13.37193,19.10275,return,3.2102278999518603,,,,,,,,,,,,,,,,,912,20,male,left_right_width,2024-10-21_11h50.01.950,exp1,2023.1.0,60.108905290156606,
,,,,,,,,,,,,,,,,5,9,9.5,10,10.5,11,0.5,0.1,0.4,2.4,10,initial,36.05,324,342,361,379,397,9,9,9,9,9,,,,,,,4,0,4,0,0,2,2,48,,,,,,,,,,,,num_4,0.9068779998924583,num_4,0.3,0.8,0.35,0.5,13.37193,19.10275,return,1.444941699737683,,,,,,,,,,,,,,,,,912,20,male,left_right_width,2024-10-21_11h50.01.950,exp1,2023.1.0,60.108905290156606,
,,,,,,,,,,,,,,,,5,9,9.5,10,10.5,11,0.5,0.1,0.4,2.4,10,initial,36.05,324,342,361,379,397,9,9,9,9,9,,,,,,,4,0,4,0,0,3,3,53,,,,,,,,,,,,num_4,0.7347958998288959,num_4,0.25,1.2,0.25,0.4,9.55138,15.2822,return,2.1562235997989774,,,,,,,,,,,,,,,,,912,20,male,left_right_width,2024-10-21_11h50.01.950,exp1,2023.1.0,60.108905290156606,
,,,,,,,,,,,,,,,,3,9.5,10,10.5,0,0,0.5,0.1,0.4,1.4000000000000001,10,initial,36.05,342,361,379,0,0,9,9,9,0,0,,,,,,,4,0,4,0,0,4,4,35,,,,,,,,,,,,num_3,0.7270128997042775,num_3,0.35,1.3,0.3,0.45,11.46165,17.19248,return,3.9924979999195784,,,,,,,,,,,,,,,,,912,20,male,left_right_width,2024-10-21_11h50.01.950,exp1,2023.1.0,60.108905290156606,
,,,,,,,,,,,,,,,,3,9.5,10,10.5,0,0,0.5,0.1,0.4,1.4000000000000001,10,initial,36.05,342,361,379,0,0,9,9,9,0,0,,,,,,,4,0,4,0,0,5,5,30,,,,,,,,,,,,num_3,1.0516908997669816,num_3,0.45,0.9,0.35000000000000003,0.5,13.37193,19.10275,return,2.5404540000017732,,,,,,,,,,,,,,,,,912,20,male,left_right_width,2024-10-21_11h50.01.950,exp1,2023.1.0,60.108905290156606,
,,,,,,,,,,,,,,,,4,9.25,9.75,10.25,10.75,0,0.5,0.1,0.4,1.9000000000000001,10,initial,36.05,333,351,370,388,0,9,9,9,9,0,,,,,,,4,0,4,0,0,6,6,16,,,,,,,,,,,,num_3,0.7603692000266165,num_3,0.4,0.6,0.4,0.55,15.2822,21.01303,return,1.7003726998809725,,,,,,,,,,,,,,,,,912,20,male,left_right_width,2024-10-21_11h50.01.950,exp1,2023.1.0,60.108905290156606,
,,,,,,,,,,,,,,,,3,9.5,10,10.5,0,0,0.5,0.1,0.4,1.4000000000000001,10,initial,36.05,342,361,379,0,0,9,9,9,0,0,,,,,,,4,0,4,0,0,7,7,29,,,,,,,,,,,,num_3,0.6587102999910712,num_3,0.55,1,0.35000000000000003,0.5,13.37193,19.10275,return,3.1107884999364614,,,,,,,,,,,,,,,,,912,20,male,left_right_width,2024-10-21_11h50.01.950,exp1,2023.1.0,60.108905290156606,
,,,,,,,,,,,,,,,,3,9.5,10,10.5,0,0,0.5,0.1,0.4,1.4000000000000001,10,initial,36.05,342,361,379,0,0,9,9,9,0,0,,,,,,,4,0,4,0,0,8,8,3,,,,,,,,,,,,num_3,0.6729364998172969,num_3,0.55,0.9,0.30000000000000004,0.4,11.46165,15.2822,return,3.167862500064075,,,,,,,,,,,,,,,,,912,20,male,left_right_width,2024-10-21_11h50.01.950,exp1,2023.1.0,60.108905290156606,
,,,,,,,,,,,,,,,,5,9,9.5,10,10.5,11,0.5,0.1,0.4,2.4,10,initial,36.05,324,342,361,379,397,9,9,9,9,9,,,,,,,4,0,4,0,0,9,9,51,,,,,,,,,,,,num_4,0.8079355999361724,num_4,0.3,0.6,0.35,0.5,13.37193,19.10275,return,2.9429544997401536,,,,,,,,,,,,,,,,,912,20,male,left_right_width,2024-10-21_11h50.01.950,exp1,2023.1.0,60.108905290156606,
,,,,,,,,,,,,,,,,3,9.5,10,10.5,0,0,0.5,0.1,0.4,1.4000000000000001,10,initial,36.05,342,361,379,0,0,9,9,9,0,0,,,,,,,4,0,4,0,0,10,10,31,,,,,,,,,,,,num_3,0.5724896998144686,num_3,0.2,0.8,0.44999999999999996,0.55,17.19248,21.01303,return,2.6569811997469515,,,,,,,,,,,,,,,,,912,20,male,left_right_width,2024-10-21_11h50.01.950,exp1,2023.1.0,60.108905290156606,
,,,,,,,,,,,,,,,,5,9,9.5,10,10.5,11,0.5,0.1,0.4,2.4,10,initial,36.05,324,342,361,379,397,9,9,9,9,9,,,,,,,4,0,4,0,0,11,11,20,,,,,,,,,,,,num_4,0.7211330998688936,num_4,0.2,0.6,0.3,0.4,11.46165,15.2822,return,1.7799899999517947,,,,,,,,,,,,,,,,,912,20,male,left_right_width,2024-10-21_11h50.01.950,exp1,2023.1.0,60.108905290156606,
,,,,,,,,,,,,,,,,4,9.25,9.75,10.25,10.75,0,0.5,0.1,0.4,1.9000000000000001,10,initial,36.05,333,351,370,388,0,9,9,9,9,0,,,,,,,4,0,4,0,0,12,12,15,,,,,,,,,,,,num_4,0.8159363998565823,num_4,0.25,1.0,0.49999999999999994,0.7,19.10275,26.74385,return,2.3955440998543054,,,,,,,,,,,,,,,,,912,20,male,left_right_width,2024-10-21_11h50.01.950,exp1,2023.1.0,60.108905290156606,
,,,,,,,,,,,,,,,,5,9,9.5,10,10.5,11,0.5,0.1,0.4,2.4,10,initial,36.05,324,342,361,379,397,9,9,9,9,9,,,,,,,4,0,4,0,0,13,13,52,,,,,,,,,,,,num_4,0.6678078998811543,num_4,0.25,1.1,0.44999999999999996,0.6,17.19248,22.9233,return,2.8911778000183403,,,,,,,,,,,,,,,,,912,20,male,left_right_width,2024-10-21_11h50.01.950,exp1,2023.1.0,60.108905290156606,
,,,,,,,,,,,,,,,,4,9.25,9.75,10.25,10.75,0,0.5,0.1,0.4,1.9000000000000001,10,initial,36.05,333,351,370,388,0,9,9,9,9,0,,,,,,,4,0,4,0,0,14,14,44,,,,,,,,,,,,num_4,0.8034468998666853,num_4,0.5,0.8,0.4,0.6,15.2822,22.9233,return,6.6691671998705715,,,,,,,,,,,,,,,,,912,20,male,left_right_width,2024-10-21_11h50.01.950,exp1,2023.1.0,60.108905290156606,
,,,,,,,,,,,,,,,,3,9.5,10,10.5,0,0,0.5,0.1,0.4,1.4000000000000001,10,initial,36.05,342,361,379,0,0,9,9,9,0,0,,,,,,,4,0,4,0,0,15,15,6,,,,,,,,,,,,num_3,0.7200322998687625,num_3,0.35,1.2,0.25,0.4,9.55138,15.2822,return,3.9546030999626964,,,,,,,,,,,,,,,,,912,20,male,left_right_width,2024-10-21_11h50.01.950,exp1,2023.1.0,60.108905290156606,
,,,,,,,,,,,,,,,,5,9,9.5,10,10.5,11,0.5,0.1,0.4,2.4,10,initial,36.05,324,342,361,379,397,9,9,9,9,9,,,,,,,4,0,4,0,0,16,16,23,,,,,,,,,,,,num_4,0.6049456996843219,num_4,0.4,1.2,0.30000000000000004,0.4,11.46165,15.2822,return,2.335877499775961,,,,,,,,,,,,,,,,,912,20,male,left_right_width,2024-10-21_11h50.01.950,exp1,2023.1.0,60.108905290156606,
,,,,,,,,,,,,,,,,3,9.5,10,10.5,0,0,0.5,0.1,0.4,1.4000000000000001,10,initial,36.05,342,361,379,0,0,9,9,9,0,0,,,,,,,4,0,4,0,0,17,17,2,,,,,,,,,,,,num_3,0.6862844999413937,num_3,0.55,0.8,0.35000000000000003,0.6,13.37193,22.9233,return,2.1267656998243183,,,,,,,,,,,,,,,,,912,20,male,left_right_width,2024-10-21_11h50.01.950,exp1,2023.1.0,60.108905290156606,
,,,,,,,,,,,,,,,,5,9,9.5,10,10.5,11,0.5,0.1,0.4,2.4,10,initial,36.05,324,342,361,379,397,9,9,9,9,9,,,,,,,4,0,4,0,0,18,18,22,,,,,,,,,,,,num_4,0.6721671000123024,num_4,0.3,1.3,0.3,0.5,11.46165,19.10275,return,4.564045999664813,,,,,,,,,,,,,,,,,912,20,male,left_right_width,2024-10-21_11h50.01.950,exp1,2023.1.0,60.108905290156606,
,,,,,,,,,,,,,,,,3,9.5,10,10.5,0,0,0.5,0.1,0.4,1.4000000000000001,10,initial,36.05,342,361,379,0,0,9,9,9,0,0,,,,,,,4,0,4,0,0,19,19,5,,,,,,,,,,,,num_3,0.6091514998115599,num_3,0.25,0.4,0.3,0.4,11.46165,15.2822,return,3.506420199992135,,,,,,,,,,,,,,,,,912,20,male,left_right_width,2024-10-21_11h50.01.950,exp1,2023.1.0,60.108905290156606,
,,,,,,,,,,,,,,,,5,9,9.5,10,10.5,11,0.5,0.1,0.4,2.4,10,initial,36.05,324,342,361,379,397,9,9,9,9,9,,,,,,,4,0,4,0,0,20,20,49,,,,,,,,,,,,num_4,0.626725799869746,num_4,0.5,1.2,0.4,0.5,15.2822,19.10275,return,2.4244909998960793,,,,,,,,,,,,,,,,,912,20,male,left_right_width,2024-10-21_11h50.01.950,exp1,2023.1.0,60.108905290156606,
,,,,,,,,,,,,,,,,4,9.25,9.75,10.25,10.75,0,0.5,0.1,0.4,1.9000000000000001,10,initial,36.05,333,351,370,388,0,9,9,9,9,0,,,,,,,4,0,4,0,0,21,21,41,,,,,,,,,,,,num_4,0.670053199864924,num_4,0.55,0.8,0.35000000000000003,0.5,13.37193,19.10275,return,6.079936099704355,,,,,,,,,,,,,,,,,912,20,male,left_right_width,2024-10-21_11h50.01.950,exp1,2023.1.0,60.108905290156606,
,,,,,,,,,,,,,,,,4,9.25,9.75,10.25,10.75,0,0.5,0.1,0.4,1.9000000000000001,10,initial,36.05,333,351,370,388,0,9,9,9,9,0,,,,,,,4,0,4,0,0,22,22,14,,,,,,,,,,,,num_4,0.9018033999018371,num_4,0.4,1.0,0.25000000000000006,0.3,9.55138,11.46165,return,2.3842932998668402,,,,,,,,,,,,,,,,,912,20,male,left_right_width,2024-10-21_11h50.01.950,exp1,2023.1.0,60.108905290156606,
,,,,,,,,,,,,,,,,3,9.5,10,10.5,0,0,0.5,0.1,0.4,1.4000000000000001,10,initial,36.05,342,361,379,0,0,9,9,9,0,0,,,,,,,4,0,4,0,0,23,23,32,,,,,,,,,,,,num_3,0.6182106998749077,num_3,0.35,0.7,0.25,0.45,9.55138,17.19248,return,3.5045918999239802,,,,,,,,,,,,,,,,,912,20,male,left_right_width,2024-10-21_11h50.01.950,exp1,2023.1.0,60.108905290156606,
,,,,,,,,,,,,,,,,3,9.5,10,10.5,0,0,0.5,0.1,0.4,1.4000000000000001,10,initial,36.05,342,361,379,0,0,9,9,9,0,0,,,,,,,4,0,4,0,0,24,24,8,,,,,,,,,,,,num_3,1.270829999819398,num_3,0.55,1.3,0.30000000000000004,0.5,11.46165,19.10275,return,5.386818799888715,,,,,,,,,,,,,,,,,912,20,male,left_right_width,2024-10-21_11h50.01.950,exp1,2023.1.0,60.108905290156606,
,,,,,,,,,,,,,,,,4,9.25,9.75,10.25,10.75,0,0.5,0.1,0.4,1.9000000000000001,10,initial,36.05,333,351,370,388,0,9,9,9,9,0,,,,,,,4,0,4,0,0,25,25,39,,,,,,,,,,,,num_4,1.0860587998759001,num_4,0.45,0.6,0.45,0.6,17.19248,22.9233,return,0.9258391000330448,,,,,,,,,,,,,,,,,912,20,male,left_right_width,2024-10-21_11h50.01.950,exp1,2023.1.0,60.108905290156606,
,,,,,,,,,,,,,,,,5,9,9.5,10,10.5,11,0.5,0.1,0.4,2.4,10,initial,36.05,324,342,361,379,397,9,9,9,9,9,,,,,,,4,0,4,0,0,26,26,24,,,,,,,,,,,,num_5,0.8543824998196214,num_5,0.2,0.6,0.39999999999999997,0.55,15.2822,21.01303,return,2.8625458998139948,,,,,,,,,,,,,,,,,912,20,male,left_right_width,2024-10-21_11h50.01.950,exp1,2023.1.0,60.108905290156606,
,,,,,,,,,,,,,,,,3,9.5,10,10.5,0,0,0.5,0.1,0.4,1.4000000000000001,10,initial,36.05,342,361,379,0,0,9,9,9,0,0,,,,,,,4,0,4,0,0,27,27,0,,,,,,,,,,,,num_3,0.6315935000311583,num_3,0.4,0.5,0.4,0.5,15.2822,19.10275,return,0.7975468998774886,,,,,,,,,,,,,,,,,912,20,male,left_right_width,2024-10-21_11h50.01.950,exp1,2023.1.0,60.108905290156606,
,,,,,,,,,,,,,,,,4,9.25,9.75,10.25,10.75,0,0.5,0.1,0.4,1.9000000000000001,10,initial,36.05,333,351,370,388,0,9,9,9,9,0,,,,,,,4,0,4,0,0,28,28,40,,,,,,,,,,,,num_4,0.7631310999859124,num_4,0.2,0.8,0.49999999999999994,0.7,19.10275,26.74385,return,3.8624536998104304,,,,,,,,,,,,,,,,,912,20,male,left_right_width,2024-10-21_11h50.01.950,exp1,2023.1.0,60.108905290156606,
,,,,,,,,,,,,,,,,5,9,9.5,10,10.5,11,0.5,0.1,0.4,2.4,10,initial,36.05,324,342,361,379,397,9,9,9,9,9,,,,,,,4,0,4,0,0,29,29,25,,,,,,,,,,,,num_5,0.6263118998613209,num_5,0.5,0.9,0.45,0.7,17.19248,26.74385,return,4.151556099997833,,,,,,,,,,,,,,,,,912,20,male,left_right_width,2024-10-21_11h50.01.950,exp1,2023.1.0,60.108905290156606,
,,,,,,,,,,,,,,,,4,9.25,9.75,10.25,10.75,0,0.5,0.1,0.4,1.9000000000000001,10,initial,36.05,333,351,370,388,0,9,9,9,9,0,,,,,,,4,0,4,0,0,30,30,11,,,,,,,,,,,,num_4,0.9476467999629676,num_4,0.25,1.2,0.49999999999999994,0.7,19.10275,26.74385,return,3.132964299991727,,,,,,,,,,,,,,,,,912,20,male,left_right_width,2024-10-21_11h50.01.950,exp1,2023.1.0,60.108905290156606,
,,,,,,,,,,,,,,,,5,9,9.5,10,10.5,11,0.5,0.1,0.4,2.4,10,initial,36.05,324,342,361,379,397,9,9,9,9,9,,,,,,,4,0,4,0,0,31,31,50,,,,,,,,,,,,num_5,0.8606489999219775,num_5,0.35,1.3,0.44999999999999996,0.7,17.19248,26.74385,return,5.945294799981639,,,,,,,,,,,,,,,,,912,20,male,left_right_width,2024-10-21_11h50.01.950,exp1,2023.1.0,60.108905290156606,
,,,,,,,,,,,,,,,,3,9.5,10,10.5,0,0,0.5,0.1,0.4,1.4000000000000001,10,initial,36.05,342,361,379,0,0,9,9,9,0,0,,,,,,,4,0,4,0,0,32,32,4,,,,,,,,,,,,num_3,0.7540831998921931,num_3,0.25,0.3,0.39999999999999997,0.55,15.2822,21.01303,return,3.27749489992857,,,,,,,,,,,,,,,,,912,20,male,left_right_width,2024-10-21_11h50.01.950,exp1,2023.1.0,60.108905290156606,
,,,,,,,,,,,,,,,,5,9,9.5,10,10.5,11,0.5,0.1,0.4,2.4,10,initial,36.05,324,342,361,379,397,9,9,9,9,9,,,,,,,4,0,4,0,0,33,33,47,,,,,,,,,,,,num_5,0.8344200998544693,num_5,0.2,1.3,0.49999999999999994,0.65,19.10275,24.83358,return,6.032757199835032,,,,,,,,,,,,,,,,,912,20,male,left_right_width,2024-10-21_11h50.01.950,exp1,2023.1.0,60.108905290156606,
,,,,,,,,,,,,,,,,4,9.25,9.75,10.25,10.75,0,0.5,0.1,0.4,1.9000000000000001,10,initial,36.05,333,351,370,388,0,9,9,9,9,0,,,,,,,4,0,4,0,0,34,34,9,,,,,,,,,,,,num_3,1.5905233998782933,num_3,0.5,1,0.6000000000000001,0.75,22.9233,28.65413,return,2.3057971000671387,,,,,,,,,,,,,,,,,912,20,male,left_right_width,2024-10-21_11h50.01.950,exp1,2023.1.0,60.108905290156606,
,,,,,,,,,,,,,,,,3,9.5,10,10.5,0,0,0.5,0.1,0.4,1.4000000000000001,10,initial,36.05,342,361,379,0,0,9,9,9,0,0,,,,,,,4,0,4,0,0,35,35,1,,,,,,,,,,,,num_2,1.0826472998596728,num_2,0.5,1.4,0.5,0.7,19.10275,26.74385,return,2.26796089974232,,,,,,,,,,,,,,,,,912,20,male,left_right_width,2024-10-21_11h50.01.950,exp1,2023.1.0,60.108905290156606,
,,,,,,,,,,,,,,,,4,9.25,9.75,10.25,10.75,0,0.5,0.1,0.4,1.9000000000000001,10,initial,36.05,333,351,370,388,0,9,9,9,9,0,,,,,,,4,0,4,0,0,36,36,36,,,,,,,,,,,,num_3,0.752040300052613,num_3,0.5,0.8,0.5,0.7,19.10275,26.74385,return,0.9211125997826457,,,,,,,,,,,,,,,,,912,20,male,left_right_width,2024-10-21_11h50.01.950,exp1,2023.1.0,60.108905290156606,
,,,,,,,,,,,,,,,,5,9,9.5,10,10.5,11,0.5,0.1,0.4,2.4,10,initial,36.05,324,342,361,379,397,9,9,9,9,9,,,,,,,4,0,4,0,0,37,37,21,,,,,,,,,,,,num_5,0.8061331999488175,num_5,0.2,1.0,0.39999999999999997,0.6,15.2822,22.9233,return,2.941771799698472,,,,,,,,,,,,,,,,,912,20,male,left_right_width,2024-10-21_11h50.01.950,exp1,2023.1.0,60.108905290156606,
,,,,,,,,,,,,,,,,5,9,9.5,10,10.5,11,0.5,0.1,0.4,2.4,10,initial,36.05,324,342,361,379,397,9,9,9,9,9,,,,,,,4,0,4,0,0,38,38,26,,,,,,,,,,,,num_4,0.7573161998298019,num_4,0.55,0.9,0.45,0.6,17.19248,22.9233,return,1.9038364998996258,,,,,,,,,,,,,,,,,912,20,male,left_right_width,2024-10-21_11h50.01.950,exp1,2023.1.0,60.108905290156606,
,,,,,,,,,,,,,,,,3,9.5,10,10.5,0,0,0.5,0.1,0.4,1.4000000000000001,10,initial,36.05,342,361,379,0,0,9,9,9,0,0,,,,,,,4,0,4,0,0,39,39,33,,,,,,,,,,,,num_2,1.5750415998045355,num_2,0.2,0.6,0.3,0.4,11.46165,15.2822,return,1.7344321000855416,,,,,,,,,,,,,,,,,912,20,male,left_right_width,2024-10-21_11h50.01.950,exp1,2023.1.0,60.108905290156606,
,,,,,,,,,,,,,,,,4,9.25,9.75,10.25,10.75,0,0.5,0.1,0.4,1.9000000000000001,10,initial,36.05,333,351,370,388,0,9,9,9,9,0,,,,,,,4,0,4,0,0,40,40,13,,,,,,,,,,,,num_3,0.7957083999644965,num_3,0.5,0.8,0.4,0.65,15.2822,24.83358,return,1.8461125998292118,,,,,,,,,,,,,,,,,912,20,male,left_right_width,2024-10-21_11h50.01.950,exp1,2023.1.0,60.108905290156606,
,,,,,,,,,,,,,,,,3,9.5,10,10.5,0,0,0.5,0.1,0.4,1.4000000000000001,10,initial,36.05,342,361,379,0,0,9,9,9,0,0,,,,,,,4,0,4,0,0,41,41,27,,,,,,,,,,,,num_2,0.6570232000667602,num_2,0.2,0.4,0.39999999999999997,0.6,15.2822,22.9233,return,2.245356199797243,,,,,,,,,,,,,,,,,912,20,male,left_right_width,2024-10-21_11h50.01.950,exp1,2023.1.0,60.108905290156606,
,,,,,,,,,,,,,,,,5,9,9.5,10,10.5,11,0.5,0.1,0.4,2.4,10,initial,36.05,324,342,361,379,397,9,9,9,9,9,,,,,,,4,0,4,0,0,42,42,19,,,,,,,,,,,,num_4,0.7874633998144418,num_4,0.55,0.9,0.4,0.5,15.2822,19.10275,return,1.7905714998487383,,,,,,,,,,,,,,,,,912,20,male,left_right_width,2024-10-21_11h50.01.950,exp1,2023.1.0,60.108905290156606,
,,,,,,,,,,,,,,,,4,9.25,9.75,10.25,10.75,0,0.5,0.1,0.4,1.9000000000000001,10,initial,36.05,333,351,370,388,0,9,9,9,9,0,,,,,,,4,0,4,0,0,43,43,42,,,,,,,,,,,,num_4,0.7443979999516159,num_4,0.25,0.9,0.39999999999999997,0.6,15.2822,22.9233,return,3.491207599872723,,,,,,,,,,,,,,,,,912,20,male,left_right_width,2024-10-21_11h50.01.950,exp1,2023.1.0,60.108905290156606,
,,,,,,,,,,,,,,,,3,9.5,10,10.5,0,0,0.5,0.1,0.4,1.4000000000000001,10,initial,36.05,342,361,379,0,0,9,9,9,0,0,,,,,,,4,0,4,0,0,44,44,28,,,,,,,,,,,,num_2,0.6126293998677284,num_2,0.35,0.6,0.39999999999999997,0.5,15.2822,19.10275,return,1.3657932998612523,,,,,,,,,,,,,,,,,912,20,male,left_right_width,2024-10-21_11h50.01.950,exp1,2023.1.0,60.108905290156606,
,,,,,,,,,,,,,,,,5,9,9.5,10,10.5,11,0.5,0.1,0.4,2.4,10,initial,36.05,324,342,361,379,397,9,9,9,9,9,,,,,,,4,0,4,0,0,45,45,45,,,,,,,,,,,,num_5,0.794527699938044,num_5,0.25,0.5,0.39999999999999997,0.55,15.2822,21.01303,return,3.1438742999453098,,,,,,,,,,,,,,,,,912,20,male,left_right_width,2024-10-21_11h50.01.950,exp1,2023.1.0,60.108905290156606,
,,,,,,,,,,,,,,,,4,9.25,9.75,10.25,10.75,0,0.5,0.1,0.4,1.9000000000000001,10,initial,36.05,333,351,370,388,0,9,9,9,9,0,,,,,,,4,0,4,0,0,46,46,10,,,,,,,,,,,,num_3,0.8706093998625875,num_3,0.2,0.5,0.39999999999999997,0.5,15.2822,19.10275,return,1.982860299758613,,,,,,,,,,,,,,,,,912,20,male,left_right_width,2024-10-21_11h50.01.950,exp1,2023.1.0,60.108905290156606,
,,,,,,,,,,,,,,,,4,9.25,9.75,10.25,10.75,0,0.5,0.1,0.4,1.9000000000000001,10,initial,36.05,333,351,370,388,0,9,9,9,9,0,,,,,,,4,0,4,0,0,47,47,37,,,,,,,,,,,,num_4,0.7472558997105807,num_4,0.3,1.1,0.6,0.8,22.9233,30.5644,return,2.36586879985407,,,,,,,,,,,,,,,,,912,20,male,left_right_width,2024-10-21_11h50.01.950,exp1,2023.1.0,60.108905290156606,
,,,,,,,,,,,,,,,,4,9.25,9.75,10.25,10.75,0,0.5,0.1,0.4,1.9000000000000001,10,initial,36.05,333,351,370,388,0,9,9,9,9,0,,,,,,,4,0,4,0,0,48,48,17,,,,,,,,,,,,num_4,0.7045507999137044,num_4,0.5,0.7,0.4,0.6,15.2822,22.9233,return,1.6780390997882932,,,,,,,,,,,,,,,,,912,20,male,left_right_width,2024-10-21_11h50.01.950,exp1,2023.1.0,60.108905290156606,
,,,,,,,,,,,,,,,,4,9.25,9.75,10.25,10.75,0,0.5,0.1,0.4,1.9000000000000001,10,initial,36.05,333,351,370,388,0,9,9,9,9,0,,,,,,,4,0,4,0,0,49,49,38,,,,,,,,,,,,num_4,0.8559499997645617,num_4,0.45,1.1,0.6000000000000001,0.7,22.9233,26.74385,return,2.1289506999310106,,,,,,,,,,,,,,,,,912,20,male,left_right_width,2024-10-21_11h50.01.950,exp1,2023.1.0,60.108905290156606,
,,,,,,,,,,,,,,,,5,9,9.5,10,10.5,11,0.5,0.1,0.4,2.4,10,initial,36.05,324,342,361,379,397,9,9,9,9,9,,,,,,,4,0,4,0,0,50,50,18,,,,,,,,,,,,num_4,0.6245628998149186,num_4,0.2,0.5,0.44999999999999996,0.6,17.19248,22.9233,return,2.27859149989672,,,,,,,,,,,,,,,,,912,20,male,left_right_width,2024-10-21_11h50.01.950,exp1,2023.1.0,60.108905290156606,
,,,,,,,,,,,,,,,,3,9.5,10,10.5,0,0,0.5,0.1,0.4,1.4000000000000001,10,initial,36.05,342,361,379,0,0,9,9,9,0,0,,,,,,,4,0,4,0,0,51,51,7,,,,,,,,,,,,num_2,1.155357499839738,num_2,0.45,1.4,0.5,0.7,19.10275,26.74385,return,2.8785204000305384,,,,,,,,,,,,,,,,,912,20,male,left_right_width,2024-10-21_11h50.01.950,exp1,2023.1.0,60.108905290156606,
,,,,,,,,,,,,,,,,3,9.5,10,10.5,0,0,0.5,0.1,0.4,1.4000000000000001,10,initial,36.05,342,361,379,0,0,9,9,9,0,0,,,,,,,4,0,4,0,0,52,52,34,,,,,,,,,,,,num_2,0.8267858999315649,num_2,0.35,0.8,0.39999999999999997,0.5,15.2822,19.10275,return,1.446131199831143,,,,,,,,,,,,,,,,,912,20,male,left_right_width,2024-10-21_11h50.01.950,exp1,2023.1.0,60.108905290156606,
,,,,,,,,,,,,,,,,4,9.25,9.75,10.25,10.75,0,0.5,0.1,0.4,1.9000000000000001,10,initial,36.05,333,351,370,388,0,9,9,9,9,0,,,,,,,4,0,4,0,0,53,53,43,,,,,,,,,,,,num_3,0.8111276999115944,num_3,0.55,1.2,0.5,0.7,19.10275,26.74385,return,3.796745599946007,,,,,,,,,,,,,,,,,912,20,male,left_right_width,2024-10-21_11h50.01.950,exp1,2023.1.0,60.108905290156606,
,,,,,,,,,,,,,,,,,,,,,,,,,,,,,,,,,,,,,,,,,,,,,4,0,4,0,,,,,,,,,,,,,,,,,,,,,,,,,,,,,2287.2732766000554,2287.2732766000554,2287.2732766000554,,,,,,,,,,,,912,20,male,left_right_width,2024-10-21_11h50.01.950,exp1,2023.1.0,60.108905290156606,
,,,,,,,,,,,,,,,,3,9.5,10,10.5,0,0,0.5,0.25,0.25,1.25,10,initial,36.05,342,361,379,0,0,9,9,9,0,0,,,,,,,5,0,5,0,0,0,0,32,,,,,,,,,,,,num_2,0.8021830997895449,num_2,0.25,1.4,0.25,0.5,9.55138,19.10275,return,2.7154460998717695,,,,,,,,,,,,,,,,,912,20,male,left_right_width,2024-10-21_11h50.01.950,exp1,2023.1.0,60.108905290156606,
,,,,,,,,,,,,,,,,5,9,9.5,10,10.5,11,0.5,0.25,0.25,2.25,10,initial,36.05,324,342,361,379,397,9,9,9,9,9,,,,,,,5,0,5,0,0,1,1,18,,,,,,,,,,,,num_4,0.6993909997399896,num_4,0.2,0.3,0.10000000000000002,0.5,3.82055,19.10275,return,8.246398099930957,,,,,,,,,,,,,,,,,912,20,male,left_right_width,2024-10-21_11h50.01.950,exp1,2023.1.0,60.108905290156606,
,,,,,,,,,,,,,,,,5,9,9.5,10,10.5,11,0.5,0.25,0.25,2.25,10,initial,36.05,324,342,361,379,397,9,9,9,9,9,,,,,,,5,0,5,0,0,2,2,23,,,,,,,,,,,,num_5,0.7493018999230117,num_5,0.45,0.8,0.15000000000000008,0.65,5.73083,24.83358,return,4.558194499928504,,,,,,,,,,,,,,,,,912,20,male,left_right_width,2024-10-21_11h50.01.950,exp1,2023.1.0,60.108905290156606,
,,,,,,,,,,,,,,,,5,9,9.5,10,10.5,11,0.5,0.25,0.25,2.25,10,initial,36.05,324,342,361,379,397,9,9,9,9,9,,,,,,,5,0,5,0,0,3,3,19,,,,,,,,,,,,num_6,0.93760159984231,num_6,0.25,0.7,0.10000000000000002,0.5,3.82055,19.10275,return,1.9548481998499483,,,,,,,,,,,,,,,,,912,20,male,left_right_width,2024-10-21_11h50.01.950,exp1,2023.1.0,60.108905290156606,
,,,,,,,,,,,,,,,,4,9.25,9.75,10.25,10.75,0,0.5,0.25,0.25,1.75,10,initial,36.05,333,351,370,388,0,9,9,9,9,0,,,,,,,5,0,5,0,0,4,4,12,,,,,,,,,,,,num_4,0.8237248999066651,num_4,0.35,1.3,0.15000000000000002,0.4,5.73083,15.2822,return,3.78151089977473,,,,,,,,,,,,,,,,,912,20,male,left_right_width,2024-10-21_11h50.01.950,exp1,2023.1.0,60.108905290156606,
,,,,,,,,,,,,,,,,3,9.5,10,10.5,0,0,0.5,0.25,0.25,1.25,10,initial,36.05,342,361,379,0,0,9,9,9,0,0,,,,,,,5,0,5,0,0,5,5,2,,,,,,,,,,,,num_3,0.8817445996683091,num_3,0.25,1.3,0.2,0.6,7.6411,22.9233,return,3.901298299897462,,,,,,,,,,,,,,,,,912,20,male,left_right_width,2024-10-21_11h50.01.950,exp1,2023.1.0,60.108905290156606,
,,,,,,,,,,,,,,,,3,9.5,10,10.5,0,0,0.5,0.25,0.25,1.25,10,initial,36.05,342,361,379,0,0,9,9,9,0,0,,,,,,,5,0,5,0,0,6,6,34,,,,,,,,,,,,num_3,0.6747624997515231,num_3,0.35,0.5,0.15000000000000002,0.5,5.73083,19.10275,return,2.065886599710211,,,,,,,,,,,,,,,,,912,20,male,left_right_width,2024-10-21_11h50.01.950,exp1,2023.1.0,60.108905290156606,
,,,,,,,,,,,,,,,,5,9,9.5,10,10.5,11,0.5,0.25,0.25,2.25,10,initial,36.05,324,342,361,379,397,9,9,9,9,9,,,,,,,5,0,5,0,0,7,7,52,,,,,,,,,,,,num_4,1.0126055998262018,num_4,0.25,0.3,0.3,0.7,11.46165,26.74385,return,5.172910499852151,,,,,,,,,,,,,,,,,912,20,male,left_right_width,2024-10-21_11h50.01.950,exp1,2023.1.0,60.108905290156606,
,,,,,,,,,,,,,,,,4,9.25,9.75,10.25,10.75,0,0.5,0.25,0.25,1.75,10,initial,36.05,333,351,370,388,0,9,9,9,9,0,,,,,,,5,0,5,0,0,8,8,38,,,,,,,,,,,,num_4,0.7030343997757882,num_4,0.3,1.1,0.15000000000000002,0.5,5.73083,19.10275,return,2.189514999743551,,,,,,,,,,,,,,,,,912,20,male,left_right_width,2024-10-21_11h50.01.950,exp1,2023.1.0,60.108905290156606,
