amount_p,posx1_p,posx2_p,posx3_p,posx4_p,posx5_p,center_to_center_p,edge_to_edge_p,w_p,stim_length_p,eccentricity_p,line1_p,line2_p,line3_p,line4_p,line5_p,amount,posx1,posx2,posx3,posx4,posx5,center_to_center,edge_to_edge,w,stim_length,eccentricity,trial_type,deg_to_pix_index,posx1_in_pix,posx2_in_pix,posx3_in_pix,posx4_in_pix,posx5_in_pix,line1,line2,line3,line4,line5,posx,setsize_cobdi,trials.thisRepN,trials.thisTrialN,trials.thisN,trials.thisIndex,blocks.thisRepN,blocks.thisTrialN,blocks.thisN,blocks.thisIndex,loop.thisRepN,loop.thisTrialN,loop.thisN,loop.thisIndex,first.thisRepN,first.thisTrialN,first.thisN,first.thisIndex,second.thisRepN,second.thisTrialN,second.thisN,second.thisIndex,key_resp_3.started,key_resp_3.keys,key_resp_3.rt,key_resp.keys,key_resp.rt,response,starting_width_deg,starting_space_deg,response_width_degree,response_spacing_degree,response_width_pixel,response_spacing_pixel,next_5.keys,next_5.rt,key_resp_4.keys,key_resp_4.rt,text_3.started,text_4.started,key_resp_2.started,text_2.started,key_resp_2.keys,key_resp_2.rt,adjusting.started,next.keys,next.rt,text_control2.started,key_resp.started,key_resp.corr,text_bye.started,text_bye.stopped,participant,age,gender,resp_group,date,expName,psychopyVersion,frameRate,
,,,,,,,,,,,,,,,,,,,,,,,,,,,,,,,,,,,,,,,,,,,,,,,,,,,,,,,,,,,,,46.78509719995782,c,171.5561836999841,,,,,,,,,,,,,,,,,,,,,,,,,,,,913,22,female,up_down_width,2024-10-22_12h38.18.976,exp1,2023.1.0,60.13894501238615,
4,9.25,9.75,10.25,10.75,0,0.5,0.1,0.4,1.9000000000000001,10,9,9,9,9,0,,,,,,,,,,,,,,,,,,,,,,,,,,0,0,0,4,,,,,,,,,,,,,,,,,,,,num_3,3.951098900055513,num_3,0.45,0.8,0.45,0.8,17.19248,30.5644,return,9.134697200031951,,,,,,,,,,,,,,,,,913,22,female,up_down_width,2024-10-22_12h38.18.976,exp1,2023.1.0,60.13894501238615,
5,8.2,9.1,10,10.9,11.8,0.9,0.35,0.55,4.15,10,9,9,9,9,9,,,,,,,,,,,,,,,,,,,,,,,,,,0,1,1,2,,,,,,,,,,,,,,,,,,,,num_4,4.00425780005753,num_4,0.5,1.1,0.5,0.8,19.10275,30.5644,return,6.461021400056779,,,,,,,,,,,,,,,,,913,22,female,up_down_width,2024-10-22_12h38.18.976,exp1,2023.1.0,60.13894501238615,
3,9.1,10,10.9,0,0,0.9,0.35,0.55,2.35,10,9,9,9,0,0,,,,,,,,,,,,,,,,,,,,,,,,,,0,2,2,3,,,,,,,,,,,,,,,,,,,,num_2,2.404094000114128,num_2,0.35,1.2,0.8000000000000002,1.2,30.5644,45.8466,return,7.854952899971977,,,,,,,,,,,,,,,,,913,22,female,up_down_width,2024-10-22_12h38.18.976,exp1,2023.1.0,60.13894501238615,
5,9,9.5,10,10.5,11,0.5,0.1,0.4,2.4,10,9,9,9,9,9,,,,,,,,,,,,,,,,,,,,,,,,,,0,3,3,5,,,,,,,,,,,,,,,,,,,,num_4,2.0100807000417262,num_4,0.25,0.5,0.35,0.6,13.37193,22.9233,return,5.587515200022608,,,,,,,,,,,,,,,,,913,22,female,up_down_width,2024-10-22_12h38.18.976,exp1,2023.1.0,60.13894501238615,
3,9.5,10,10.5,0,0,0.5,0.25,0.25,1.25,10,9,9,9,0,0,,,,,,,,,,,,,,,,,,,,,,,,,,0,4,4,0,,,,,,,,,,,,,,,,,,,,num_3,1.7457384997978806,num_3,0.35,0.5,0.25,0.5,9.55138,19.10275,return,5.332931100158021,,,,,,,,,,,,,,,,,913,22,female,up_down_width,2024-10-22_12h38.18.976,exp1,2023.1.0,60.13894501238615,
4,9.25,9.75,10.25,10.75,0,0.5,0.25,0.25,1.75,10,9,9,9,9,0,,,,,,,,,,,,,,,,,,,,,,,,,,0,5,5,1,,,,,,,,,,,,,,,,,,,,num_4,1.5103727001696825,num_4,0.5,0.6,0.25000000000000006,0.7,9.55138,26.74385,return,11.84604340000078,,,,,,,,,,,,,,,,,913,22,female,up_down_width,2024-10-22_12h38.18.976,exp1,2023.1.0,60.13894501238615,
,,,,,,,,,,,,,,,,,,,,,,,,,,,,,,,,,,,,,,,,,,,,,,,,,,,,,,,,,,,,,,,,,,,,,,,,,,,c,77.7898228999693,,,,,,,,,,,,,,,913,22,female,up_down_width,2024-10-22_12h38.18.976,exp1,2023.1.0,60.13894501238615,
,,,,,,,,,,,,,,,,4,8.65,9.55,10.45,11.35,0,0.9,0.35,0.55,3.25,10,initial,36.05,312,344,377,409,0,9,9,9,9,0,,,,,,,0,0,0,0,0,0,0,17,,,,,,,,,,,,num_4,2.657650399953127,num_4,0.3,1.1,0.5499999999999999,0.9,21.01303,34.38495,return,5.007676600012928,,,,,,,,,,,,,,,,,913,22,female,up_down_width,2024-10-22_12h38.18.976,exp1,2023.1.0,60.13894501238615,
,,,,,,,,,,,,,,,,4,8.65,9.55,10.45,11.35,0,0.9,0.35,0.55,3.25,10,initial,36.05,312,344,377,409,0,9,9,9,9,0,,,,,,,0,0,0,0,0,1,1,40,,,,,,,,,,,,num_4,2.2551645000930876,num_4,0.2,0.4,0.44999999999999996,0.7,17.19248,26.74385,return,4.851013200124726,,,,,,,,,,,,,,,,,913,22,female,up_down_width,2024-10-22_12h38.18.976,exp1,2023.1.0,60.13894501238615,
,,,,,,,,,,,,,,,,4,8.65,9.55,10.45,11.35,0,0.9,0.35,0.55,3.25,10,initial,36.05,312,344,377,409,0,9,9,9,9,0,,,,,,,0,0,0,0,0,2,2,42,,,,,,,,,,,,num_4,1.6825268000829965,num_4,0.4,0.8,0.6000000000000001,0.8,22.9233,30.5644,return,2.686241899849847,,,,,,,,,,,,,,,,,913,22,female,up_down_width,2024-10-22_12h38.18.976,exp1,2023.1.0,60.13894501238615,
,,,,,,,,,,,,,,,,3,9.1,10,10.9,0,0,0.9,0.35,0.55,2.35,10,initial,36.05,328,361,393,0,0,9,9,9,0,0,,,,,,,0,0,0,0,0,3,3,29,,,,,,,,,,,,num_3,1.6166226000059396,num_3,0.55,1,0.55,1,21.01303,38.2055,return,1.4675523000769317,,,,,,,,,,,,,,,,,913,22,female,up_down_width,2024-10-22_12h38.18.976,exp1,2023.1.0,60.13894501238615,
,,,,,,,,,,,,,,,,4,8.65,9.55,10.45,11.35,0,0.9,0.35,0.55,3.25,10,initial,36.05,312,344,377,409,0,9,9,9,9,0,,,,,,,0,0,0,0,0,4,4,11,,,,,,,,,,,,num_4,1.0852102001663297,num_4,0.5,1.0,0.6000000000000001,0.8,22.9233,30.5644,return,5.6429713000543416,,,,,,,,,,,,,,,,,913,22,female,up_down_width,2024-10-22_12h38.18.976,exp1,2023.1.0,60.13894501238615,
,,,,,,,,,,,,,,,,5,8.2,9.1,10,10.9,11.8,0.9,0.35,0.55,4.15,10,initial,36.05,296,328,361,393,425,9,9,9,9,9,,,,,,,0,0,0,0,0,5,5,20,,,,,,,,,,,,num_5,1.552457199897617,num_5,0.35,0.6,0.49999999999999994,0.75,19.10275,28.65413,return,5.464205899974331,,,,,,,,,,,,,,,,,913,22,female,up_down_width,2024-10-22_12h38.18.976,exp1,2023.1.0,60.13894501238615,
,,,,,,,,,,,,,,,,4,8.65,9.55,10.45,11.35,0,0.9,0.35,0.55,3.25,10,initial,36.05,312,344,377,409,0,9,9,9,9,0,,,,,,,0,0,0,0,0,6,6,44,,,,,,,,,,,,num_4,1.2391031999140978,num_4,0.5,0.8,0.5,0.8,19.10275,30.5644,return,1.3806441000197083,,,,,,,,,,,,,,,,,913,22,female,up_down_width,2024-10-22_12h38.18.976,exp1,2023.1.0,60.13894501238615,
,,,,,,,,,,,,,,,,4,8.65,9.55,10.45,11.35,0,0.9,0.35,0.55,3.25,10,initial,36.05,312,344,377,409,0,9,9,9,9,0,,,,,,,0,0,0,0,0,7,7,43,,,,,,,,,,,,num_4,1.9191160998307168,num_4,0.25,0.6,0.5499999999999999,0.8,21.01303,30.5644,return,5.681274099973962,,,,,,,,,,,,,,,,,913,22,female,up_down_width,2024-10-22_12h38.18.976,exp1,2023.1.0,60.13894501238615,
,,,,,,,,,,,,,,,,4,8.65,9.55,10.45,11.35,0,0.9,0.35,0.55,3.25,10,initial,36.05,312,344,377,409,0,9,9,9,9,0,,,,,,,0,0,0,0,0,8,8,16,,,,,,,,,,,,num_4,1.0991573999635875,num_4,0.55,0.7,0.6500000000000001,0.9,24.83358,34.38495,return,5.405480700079352,,,,,,,,,,,,,,,,,913,22,female,up_down_width,2024-10-22_12h38.18.976,exp1,2023.1.0,60.13894501238615,
,,,,,,,,,,,,,,,,4,8.65,9.55,10.45,11.35,0,0.9,0.35,0.55,3.25,10,initial,36.05,312,344,377,409,0,9,9,9,9,0,,,,,,,0,0,0,0,0,9,9,37,,,,,,,,,,,,num_4,1.0307122999802232,num_4,0.25,0.4,0.5499999999999999,0.8,21.01303,30.5644,return,4.456123400013894,,,,,,,,,,,,,,,,,913,22,female,up_down_width,2024-10-22_12h38.18.976,exp1,2023.1.0,60.13894501238615,
,,,,,,,,,,,,,,,,3,9.1,10,10.9,0,0,0.9,0.35,0.55,2.35,10,initial,36.05,328,361,393,0,0,9,9,9,0,0,,,,,,,0,0,0,0,0,10,10,27,,,,,,,,,,,,num_4,1.1684598000720143,num_4,0.25,0.7,0.49999999999999994,0.7,19.10275,26.74385,return,5.102058699820191,,,,,,,,,,,,,,,,,913,22,female,up_down_width,2024-10-22_12h38.18.976,exp1,2023.1.0,60.13894501238615,
,,,,,,,,,,,,,,,,3,9.1,10,10.9,0,0,0.9,0.35,0.55,2.35,10,initial,36.05,328,361,393,0,0,9,9,9,0,0,,,,,,,0,0,0,0,0,11,11,2,,,,,,,,,,,,num_3,1.1124228001572192,num_3,0.2,1,0.5499999999999999,0.8,21.01303,30.5644,return,7.07486950000748,,,,,,,,,,,,,,,,,913,22,female,up_down_width,2024-10-22_12h38.18.976,exp1,2023.1.0,60.13894501238615,
,,,,,,,,,,,,,,,,3,9.1,10,10.9,0,0,0.9,0.35,0.55,2.35,10,initial,36.05,328,361,393,0,0,9,9,9,0,0,,,,,,,0,0,0,0,0,12,12,6,,,,,,,,,,,,num_3,1.024609599960968,num_3,0.45,0.7,0.5,0.75,19.10275,28.65413,return,3.922786199953407,,,,,,,,,,,,,,,,,913,22,female,up_down_width,2024-10-22_12h38.18.976,exp1,2023.1.0,60.13894501238615,
,,,,,,,,,,,,,,,,5,8.2,9.1,10,10.9,11.8,0.9,0.35,0.55,4.15,10,initial,36.05,296,328,361,393,425,9,9,9,9,9,,,,,,,0,0,0,0,0,13,13,53,,,,,,,,,,,,num_6,1.2591287000104785,num_6,0.2,0.3,0.49999999999999994,0.7,19.10275,26.74385,return,8.242611499968916,,,,,,,,,,,,,,,,,913,22,female,up_down_width,2024-10-22_12h38.18.976,exp1,2023.1.0,60.13894501238615,
,,,,,,,,,,,,,,,,3,9.1,10,10.9,0,0,0.9,0.35,0.55,2.35,10,initial,36.05,328,361,393,0,0,9,9,9,0,0,,,,,,,0,0,0,0,0,14,14,1,,,,,,,,,,,,num_3,1.0064312999602407,num_3,0.4,1,0.6500000000000001,0.95,24.83358,36.29523,return,2.733607000205666,,,,,,,,,,,,,,,,,913,22,female,up_down_width,2024-10-22_12h38.18.976,exp1,2023.1.0,60.13894501238615,
,,,,,,,,,,,,,,,,5,8.2,9.1,10,10.9,11.8,0.9,0.35,0.55,4.15,10,initial,36.05,296,328,361,393,425,9,9,9,9,9,,,,,,,0,0,0,0,0,15,15,47,,,,,,,,,,,,num_5,1.0443206999916583,num_5,0.45,1.1,0.7500000000000002,1.05,28.65413,40.11578,return,4.665720900055021,,,,,,,,,,,,,,,,,913,22,female,up_down_width,2024-10-22_12h38.18.976,exp1,2023.1.0,60.13894501238615,
,,,,,,,,,,,,,,,,5,8.2,9.1,10,10.9,11.8,0.9,0.35,0.55,4.15,10,initial,36.05,296,328,361,393,425,9,9,9,9,9,,,,,,,0,0,0,0,0,16,16,23,,,,,,,,,,,,num_5,1.3789707000833005,num_5,0.3,0.7,0.5499999999999999,0.7,21.01303,26.74385,return,6.474133099894971,,,,,,,,,,,,,,,,,913,22,female,up_down_width,2024-10-22_12h38.18.976,exp1,2023.1.0,60.13894501238615,
,,,,,,,,,,,,,,,,5,8.2,9.1,10,10.9,11.8,0.9,0.35,0.55,4.15,10,initial,36.05,296,328,361,393,425,9,9,9,9,9,,,,,,,0,0,0,0,0,17,17,50,,,,,,,,,,,,num_5,1.7159554997924715,num_5,0.5,1.2,0.7000000000000002,1.2,26.74385,45.8466,return,2.748593100113794,,,,,,,,,,,,,,,,,913,22,female,up_down_width,2024-10-22_12h38.18.976,exp1,2023.1.0,60.13894501238615,
,,,,,,,,,,,,,,,,4,8.65,9.55,10.45,11.35,0,0.9,0.35,0.55,3.25,10,initial,36.05,312,344,377,409,0,9,9,9,9,0,,,,,,,0,0,0,0,0,18,18,13,,,,,,,,,,,,num_5,0.9786327998153865,num_5,0.3,0.4,0.5499999999999999,0.8,21.01303,30.5644,return,5.817581800045446,,,,,,,,,,,,,,,,,913,22,female,up_down_width,2024-10-22_12h38.18.976,exp1,2023.1.0,60.13894501238615,
,,,,,,,,,,,,,,,,4,8.65,9.55,10.45,11.35,0,0.9,0.35,0.55,3.25,10,initial,36.05,312,344,377,409,0,9,9,9,9,0,,,,,,,0,0,0,0,0,19,19,15,,,,,,,,,,,,num_4,0.9917482999153435,num_4,0.3,0.5,0.49999999999999994,0.7,19.10275,26.74385,return,2.7004792999941856,,,,,,,,,,,,,,,,,913,22,female,up_down_width,2024-10-22_12h38.18.976,exp1,2023.1.0,60.13894501238615,
,,,,,,,,,,,,,,,,3,9.1,10,10.9,0,0,0.9,0.35,0.55,2.35,10,initial,36.05,328,361,393,0,0,9,9,9,0,0,,,,,,,0,0,0,0,0,20,20,0,,,,,,,,,,,,num_3,0.9717266000807285,num_3,0.4,1.2,0.6500000000000001,0.95,24.83358,36.29523,return,3.5559840998612344,,,,,,,,,,,,,,,,,913,22,female,up_down_width,2024-10-22_12h38.18.976,exp1,2023.1.0,60.13894501238615,
,,,,,,,,,,,,,,,,3,9.1,10,10.9,0,0,0.9,0.35,0.55,2.35,10,initial,36.05,328,361,393,0,0,9,9,9,0,0,,,,,,,0,0,0,0,0,21,21,4,,,,,,,,,,,,num_3,0.9661850000265986,num_3,0.25,1,0.6,1,22.9233,38.2055,return,2.534520300105214,,,,,,,,,,,,,,,,,913,22,female,up_down_width,2024-10-22_12h38.18.976,exp1,2023.1.0,60.13894501238615,
,,,,,,,,,,,,,,,,5,8.2,9.1,10,10.9,11.8,0.9,0.35,0.55,4.15,10,initial,36.05,296,328,361,393,425,9,9,9,9,9,,,,,,,0,0,0,0,0,22,22,25,,,,,,,,,,,,num_5,1.1424169999081641,num_5,0.2,0.4,0.6,0.8,22.9233,30.5644,return,8.564288600115106,,,,,,,,,,,,,,,,,913,22,female,up_down_width,2024-10-22_12h38.18.976,exp1,2023.1.0,60.13894501238615,
,,,,,,,,,,,,,,,,5,8.2,9.1,10,10.9,11.8,0.9,0.35,0.55,4.15,10,initial,36.05,296,328,361,393,425,9,9,9,9,9,,,,,,,0,0,0,0,0,23,23,49,,,,,,,,,,,,num_5,0.9137409999966621,num_5,0.25,0.6,0.44999999999999996,0.7,17.19248,26.74385,return,2.7644843999296427,,,,,,,,,,,,,,,,,913,22,female,up_down_width,2024-10-22_12h38.18.976,exp1,2023.1.0,60.13894501238615,
,,,,,,,,,,,,,,,,4,8.65,9.55,10.45,11.35,0,0.9,0.35,0.55,3.25,10,initial,36.05,312,344,377,409,0,9,9,9,9,0,,,,,,,0,0,0,0,0,24,24,9,,,,,,,,,,,,num_4,0.7826207999605685,num_4,0.2,0.8,0.5499999999999999,0.8,21.01303,30.5644,return,3.1640292999800295,,,,,,,,,,,,,,,,,913,22,female,up_down_width,2024-10-22_12h38.18.976,exp1,2023.1.0,60.13894501238615,
,,,,,,,,,,,,,,,,3,9.1,10,10.9,0,0,0.9,0.35,0.55,2.35,10,initial,36.05,328,361,393,0,0,9,9,9,0,0,,,,,,,0,0,0,0,0,25,25,7,,,,,,,,,,,,num_3,0.9681247000116855,num_3,0.2,1.3,0.49999999999999994,0.9,19.10275,34.38495,return,4.448093199869618,,,,,,,,,,,,,,,,,913,22,female,up_down_width,2024-10-22_12h38.18.976,exp1,2023.1.0,60.13894501238615,
,,,,,,,,,,,,,,,,5,8.2,9.1,10,10.9,11.8,0.9,0.35,0.55,4.15,10,initial,36.05,296,328,361,393,425,9,9,9,9,9,,,,,,,0,0,0,0,0,26,26,46,,,,,,,,,,,,num_5,0.943730799946934,num_5,0.35,1.1,0.7500000000000001,1.1,28.65413,42.02605,return,3.7279802998527884,,,,,,,,,,,,,,,,,913,22,female,up_down_width,2024-10-22_12h38.18.976,exp1,2023.1.0,60.13894501238615,
,,,,,,,,,,,,,,,,4,8.65,9.55,10.45,11.35,0,0.9,0.35,0.55,3.25,10,initial,36.05,312,344,377,409,0,9,9,9,9,0,,,,,,,0,0,0,0,0,27,27,36,,,,,,,,,,,,num_4,0.8768684999085963,num_4,0.35,0.9,0.65,0.9,24.83358,34.38495,return,2.76956420019269,,,,,,,,,,,,,,,,,913,22,female,up_down_width,2024-10-22_12h38.18.976,exp1,2023.1.0,60.13894501238615,
,,,,,,,,,,,,,,,,5,8.2,9.1,10,10.9,11.8,0.9,0.35,0.55,4.15,10,initial,36.05,296,328,361,393,425,9,9,9,9,9,,,,,,,0,0,0,0,0,28,28,51,,,,,,,,,,,,num_5,0.8271356001496315,num_5,0.2,0.3,0.44999999999999996,0.65,17.19248,24.83358,return,4.654099900042638,,,,,,,,,,,,,,,,,913,22,female,up_down_width,2024-10-22_12h38.18.976,exp1,2023.1.0,60.13894501238615,
,,,,,,,,,,,,,,,,3,9.1,10,10.9,0,0,0.9,0.35,0.55,2.35,10,initial,36.05,328,361,393,0,0,9,9,9,0,0,,,,,,,0,0,0,0,0,29,29,34,,,,,,,,,,,,num_3,0.8473477000370622,num_3,0.2,0.9,0.65,0.95,24.83358,36.29523,return,3.4635367000009865,,,,,,,,,,,,,,,,,913,22,female,up_down_width,2024-10-22_12h38.18.976,exp1,2023.1.0,60.13894501238615,
,,,,,,,,,,,,,,,,5,8.2,9.1,10,10.9,11.8,0.9,0.35,0.55,4.15,10,initial,36.05,296,328,361,393,425,9,9,9,9,9,,,,,,,0,0,0,0,0,30,30,48,,,,,,,,,,,,num_5,0.8182920999825001,num_5,0.2,0.9,0.6,0.9,22.9233,34.38495,return,3.723376200068742,,,,,,,,,,,,,,,,,913,22,female,up_down_width,2024-10-22_12h38.18.976,exp1,2023.1.0,60.13894501238615,
,,,,,,,,,,,,,,,,3,9.1,10,10.9,0,0,0.9,0.35,0.55,2.35,10,initial,36.05,328,361,393,0,0,9,9,9,0,0,,,,,,,0,0,0,0,0,31,31,8,,,,,,,,,,,,num_3,0.9173874000553042,num_3,0.35,0.6,0.5499999999999999,0.8,21.01303,30.5644,return,3.5789930999744684,,,,,,,,,,,,,,,,,913,22,female,up_down_width,2024-10-22_12h38.18.976,exp1,2023.1.0,60.13894501238615,
,,,,,,,,,,,,,,,,5,8.2,9.1,10,10.9,11.8,0.9,0.35,0.55,4.15,10,initial,36.05,296,328,361,393,425,9,9,9,9,9,,,,,,,0,0,0,0,0,32,32,22,,,,,,,,,,,,num_6,1.0008810001891106,num_6,0.55,0.7,0.45,0.8,17.19248,30.5644,return,4.53641920001246,,,,,,,,,,,,,,,,,913,22,female,up_down_width,2024-10-22_12h38.18.976,exp1,2023.1.0,60.13894501238615,
,,,,,,,,,,,,,,,,5,8.2,9.1,10,10.9,11.8,0.9,0.35,0.55,4.15,10,initial,36.05,296,328,361,393,425,9,9,9,9,9,,,,,,,0,0,0,0,0,33,33,19,,,,,,,,,,,,num_5,1.0430015998426825,num_5,0.3,0.7,0.49999999999999994,0.8,19.10275,30.5644,return,2.7927843001671135,,,,,,,,,,,,,,,,,913,22,female,up_down_width,2024-10-22_12h38.18.976,exp1,2023.1.0,60.13894501238615,
,,,,,,,,,,,,,,,,3,9.1,10,10.9,0,0,0.9,0.35,0.55,2.35,10,initial,36.05,328,361,393,0,0,9,9,9,0,0,,,,,,,0,0,0,0,0,34,34,30,,,,,,,,,,,,num_2,0.9082780000753701,num_2,0.25,0.6,0.44999999999999996,0.8,17.19248,30.5644,return,2.7357373000122607,,,,,,,,,,,,,,,,,913,22,female,up_down_width,2024-10-22_12h38.18.976,exp1,2023.1.0,60.13894501238615,
,,,,,,,,,,,,,,,,3,9.1,10,10.9,0,0,0.9,0.35,0.55,2.35,10,initial,36.05,328,361,393,0,0,9,9,9,0,0,,,,,,,0,0,0,0,0,35,35,3,,,,,,,,,,,,num_3,1.196631999919191,num_3,0.5,0.8,0.5,0.9,19.10275,34.38495,return,2.5681984000839293,,,,,,,,,,,,,,,,,913,22,female,up_down_width,2024-10-22_12h38.18.976,exp1,2023.1.0,60.13894501238615,
,,,,,,,,,,,,,,,,5,8.2,9.1,10,10.9,11.8,0.9,0.35,0.55,4.15,10,initial,36.05,296,328,361,393,425,9,9,9,9,9,,,,,,,0,0,0,0,0,36,36,26,,,,,,,,,,,,num_5,0.8073070999234915,num_5,0.3,0.9,0.65,1.0,24.83358,38.2055,return,3.5154091001022607,,,,,,,,,,,,,,,,,913,22,female,up_down_width,2024-10-22_12h38.18.976,exp1,2023.1.0,60.13894501238615,
,,,,,,,,,,,,,,,,4,8.65,9.55,10.45,11.35,0,0.9,0.35,0.55,3.25,10,initial,36.05,312,344,377,409,0,9,9,9,9,0,,,,,,,0,0,0,0,0,37,37,41,,,,,,,,,,,,num_4,0.9140236999373883,num_4,0.2,0.4,0.5499999999999999,0.8,21.01303,30.5644,return,4.487924000015482,,,,,,,,,,,,,,,,,913,22,female,up_down_width,2024-10-22_12h38.18.976,exp1,2023.1.0,60.13894501238615,
,,,,,,,,,,,,,,,,5,8.2,9.1,10,10.9,11.8,0.9,0.35,0.55,4.15,10,initial,36.05,296,328,361,393,425,9,9,9,9,9,,,,,,,0,0,0,0,0,38,38,21,,,,,,,,,,,,num_5,0.9125806998927146,num_5,0.5,0.9,0.6500000000000001,0.95,24.83358,36.29523,return,2.5450960998423398,,,,,,,,,,,,,,,,,913,22,female,up_down_width,2024-10-22_12h38.18.976,exp1,2023.1.0,60.13894501238615,
,,,,,,,,,,,,,,,,3,9.1,10,10.9,0,0,0.9,0.35,0.55,2.35,10,initial,36.05,328,361,393,0,0,9,9,9,0,0,,,,,,,0,0,0,0,0,39,39,33,,,,,,,,,,,,num_2,0.7417822999414057,num_2,0.45,0.6,0.6000000000000001,0.9,22.9233,34.38495,return,3.1370212000329047,,,,,,,,,,,,,,,,,913,22,female,up_down_width,2024-10-22_12h38.18.976,exp1,2023.1.0,60.13894501238615,
,,,,,,,,,,,,,,,,3,9.1,10,10.9,0,0,0.9,0.35,0.55,2.35,10,initial,36.05,328,361,393,0,0,9,9,9,0,0,,,,,,,0,0,0,0,0,40,40,5,,,,,,,,,,,,num_3,1.039979499997571,num_3,0.4,1,0.6500000000000001,1,24.83358,38.2055,return,2.0846074000000954,,,,,,,,,,,,,,,,,913,22,female,up_down_width,2024-10-22_12h38.18.976,exp1,2023.1.0,60.13894501238615,
,,,,,,,,,,,,,,,,5,8.2,9.1,10,10.9,11.8,0.9,0.35,0.55,4.15,10,initial,36.05,296,328,361,393,425,9,9,9,9,9,,,,,,,0,0,0,0,0,41,41,52,,,,,,,,,,,,num_5,0.7251545998733491,num_5,0.4,0.7,0.55,0.8,21.01303,30.5644,return,2.766512000001967,,,,,,,,,,,,,,,,,913,22,female,up_down_width,2024-10-22_12h38.18.976,exp1,2023.1.0,60.13894501238615,
,,,,,,,,,,,,,,,,3,9.1,10,10.9,0,0,0.9,0.35,0.55,2.35,10,initial,36.05,328,361,393,0,0,9,9,9,0,0,,,,,,,0,0,0,0,0,42,42,35,,,,,,,,,,,,num_3,0.8051128000952303,num_3,0.55,1,0.6000000000000001,1,22.9233,38.2055,return,1.9196208000648767,,,,,,,,,,,,,,,,,913,22,female,up_down_width,2024-10-22_12h38.18.976,exp1,2023.1.0,60.13894501238615,
,,,,,,,,,,,,,,,,4,8.65,9.55,10.45,11.35,0,0.9,0.35,0.55,3.25,10,initial,36.05,312,344,377,409,0,9,9,9,9,0,,,,,,,0,0,0,0,0,43,43,14,,,,,,,,,,,,num_4,0.9161503000650555,num_4,0.4,1.2,0.8500000000000003,1.2,32.47468,45.8466,return,4.861653900006786,,,,,,,,,,,,,,,,,913,22,female,up_down_width,2024-10-22_12h38.18.976,exp1,2023.1.0,60.13894501238615,
,,,,,,,,,,,,,,,,4,8.65,9.55,10.45,11.35,0,0.9,0.35,0.55,3.25,10,initial,36.05,312,344,377,409,0,9,9,9,9,0,,,,,,,0,0,0,0,0,44,44,12,,,,,,,,,,,,num_4,1.045265099965036,num_4,0.5,1.1,0.7000000000000002,1.1,26.74385,42.02605,return,1.715946399839595,,,,,,,,,,,,,,,,,913,22,female,up_down_width,2024-10-22_12h38.18.976,exp1,2023.1.0,60.13894501238615,
,,,,,,,,,,,,,,,,4,8.65,9.55,10.45,11.35,0,0.9,0.35,0.55,3.25,10,initial,36.05,312,344,377,409,0,9,9,9,9,0,,,,,,,0,0,0,0,0,45,45,39,,,,,,,,,,,,num_4,0.9185337999369949,num_4,0.3,0.8,0.5499999999999999,0.8,21.01303,30.5644,return,3.516803199891001,,,,,,,,,,,,,,,,,913,22,female,up_down_width,2024-10-22_12h38.18.976,exp1,2023.1.0,60.13894501238615,
,,,,,,,,,,,,,,,,5,8.2,9.1,10,10.9,11.8,0.9,0.35,0.55,4.15,10,initial,36.05,296,328,361,393,425,9,9,9,9,9,,,,,,,0,0,0,0,0,46,46,45,,,,,,,,,,,,num_5,0.791254400042817,num_5,0.5,1.1,0.7500000000000002,1.1,28.65413,42.02605,return,2.2590299998410046,,,,,,,,,,,,,,,,,913,22,female,up_down_width,2024-10-22_12h38.18.976,exp1,2023.1.0,60.13894501238615,
,,,,,,,,,,,,,,,,5,8.2,9.1,10,10.9,11.8,0.9,0.35,0.55,4.15,10,initial,36.05,296,328,361,393,425,9,9,9,9,9,,,,,,,0,0,0,0,0,47,47,24,,,,,,,,,,,,num_5,1.5351062999106944,num_5,0.45,1.3,0.8500000000000003,1.3,32.47468,49.66716,return,2.6082081000786275,,,,,,,,,,,,,,,,,913,22,female,up_down_width,2024-10-22_12h38.18.976,exp1,2023.1.0,60.13894501238615,
,,,,,,,,,,,,,,,,3,9.1,10,10.9,0,0,0.9,0.35,0.55,2.35,10,initial,36.05,328,361,393,0,0,9,9,9,0,0,,,,,,,0,0,0,0,0,48,48,32,,,,,,,,,,,,num_3,1.0777948999311775,num_3,0.55,0.8,0.55,0.8,21.01303,30.5644,return,1.396178999915719,,,,,,,,,,,,,,,,,913,22,female,up_down_width,2024-10-22_12h38.18.976,exp1,2023.1.0,60.13894501238615,
,,,,,,,,,,,,,,,,4,8.65,9.55,10.45,11.35,0,0.9,0.35,0.55,3.25,10,initial,36.05,312,344,377,409,0,9,9,9,9,0,,,,,,,0,0,0,0,0,49,49,38,,,,,,,,,,,,num_4,0.8569071998354048,num_4,0.3,1.3,0.6,1.0,22.9233,38.2055,return,3.3974929000250995,,,,,,,,,,,,,,,,,913,22,female,up_down_width,2024-10-22_12h38.18.976,exp1,2023.1.0,60.13894501238615,
,,,,,,,,,,,,,,,,3,9.1,10,10.9,0,0,0.9,0.35,0.55,2.35,10,initial,36.05,328,361,393,0,0,9,9,9,0,0,,,,,,,0,0,0,0,0,50,50,31,,,,,,,,,,,,num_3,0.8327474999241531,num_3,0.3,0.4,0.49999999999999994,0.8,19.10275,30.5644,return,3.8954387998674065,,,,,,,,,,,,,,,,,913,22,female,up_down_width,2024-10-22_12h38.18.976,exp1,2023.1.0,60.13894501238615,
,,,,,,,,,,,,,,,,5,8.2,9.1,10,10.9,11.8,0.9,0.35,0.55,4.15,10,initial,36.05,296,328,361,393,425,9,9,9,9,9,,,,,,,0,0,0,0,0,51,51,18,,,,,,,,,,,,num_5,0.7965098000131547,num_5,0.25,1.0,0.7000000000000001,1.0,26.74385,38.2055,return,3.047757799969986,,,,,,,,,,,,,,,,,913,22,female,up_down_width,2024-10-22_12h38.18.976,exp1,2023.1.0,60.13894501238615,
,,,,,,,,,,,,,,,,3,9.1,10,10.9,0,0,0.9,0.35,0.55,2.35,10,initial,36.05,328,361,393,0,0,9,9,9,0,0,,,,,,,0,0,0,0,0,52,52,28,,,,,,,,,,,,num_3,0.8344038999639452,num_3,0.2,1,0.44999999999999996,0.9,17.19248,34.38495,return,2.746749199926853,,,,,,,,,,,,,,,,,913,22,female,up_down_width,2024-10-22_12h38.18.976,exp1,2023.1.0,60.13894501238615,
,,,,,,,,,,,,,,,,4,8.65,9.55,10.45,11.35,0,0.9,0.35,0.55,3.25,10,initial,36.05,312,344,377,409,0,9,9,9,9,0,,,,,,,0,0,0,0,0,53,53,10,,,,,,,,,,,,num_4,0.9015425001271069,num_4,0.45,1.2,0.55,0.9,21.01303,34.38495,return,2.319288100115955,,,,,,,,,,,,,,,,,913,22,female,up_down_width,2024-10-22_12h38.18.976,exp1,2023.1.0,60.13894501238615,
,,,,,,,,,,,,,,,,,,,,,,,,,,,,,,,,,,,,,,,,,,,,,0,0,0,0,,,,,,,,,,,,,,,,,,,,,,,,,,,,,718.1459029000252,718.1459029000252,718.1459029000252,,,,,,,,,,,,913,22,female,up_down_width,2024-10-22_12h38.18.976,exp1,2023.1.0,60.13894501238615,
,,,,,,,,,,,,,,,,3,9.5,10,10.5,0,0,0.5,0.25,0.25,1.25,10,initial,36.05,342,361,379,0,0,9,9,9,0,0,,,,,,,1,0,1,0,0,0,0,32,,,,,,,,,,,,num_3,1.2733251000754535,num_3,0.3,0.6,0.2,0.55,7.6411,21.01303,return,4.308385599870235,,,,,,,,,,,,,,,,,913,22,female,up_down_width,2024-10-22_12h38.18.976,exp1,2023.1.0,60.13894501238615,
,,,,,,,,,,,,,,,,3,9.5,10,10.5,0,0,0.5,0.25,0.25,1.25,10,initial,36.05,342,361,379,0,0,9,9,9,0,0,,,,,,,1,0,1,0,0,1,1,6,,,,,,,,,,,,num_3,1.2276320001110435,num_3,0.2,0.7,0.2,0.45,7.6411,17.19248,return,3.2728907000273466,,,,,,,,,,,,,,,,,913,22,female,up_down_width,2024-10-22_12h38.18.976,exp1,2023.1.0,60.13894501238615,
,,,,,,,,,,,,,,,,5,9,9.5,10,10.5,11,0.5,0.25,0.25,2.25,10,initial,36.05,324,342,361,379,397,9,9,9,9,9,,,,,,,1,0,1,0,0,2,2,49,,,,,,,,,,,,num_4,1.0216291998513043,num_4,0.3,0.3,0.25,0.4,9.55138,15.2822,return,11.892830800032243,,,,,,,,,,,,,,,,,913,22,female,up_down_width,2024-10-22_12h38.18.976,exp1,2023.1.0,60.13894501238615,
,,,,,,,,,,,,,,,,4,9.25,9.75,10.25,10.75,0,0.5,0.25,0.25,1.75,10,initial,36.05,333,351,370,388,0,9,9,9,9,0,,,,,,,1,0,1,0,0,3,3,14,,,,,,,,,,,,num_4,0.7687948001548648,num_4,0.55,1.2,0.30000000000000004,0.6,11.46165,22.9233,return,4.96922260010615,,,,,,,,,,,,,,,,,913,22,female,up_down_width,2024-10-22_12h38.18.976,exp1,2023.1.0,60.13894501238615,
,,,,,,,,,,,,,,,,3,9.5,10,10.5,0,0,0.5,0.25,0.25,1.25,10,initial,36.05,342,361,379,0,0,9,9,9,0,0,,,,,,,1,0,1,0,0,4,4,1,,,,,,,,,,,,num_3,1.1867509000003338,num_3,0.2,0.8,0.2,0.45,7.6411,17.19248,return,3.9013295001350343,,,,,,,,,,,,,,,,,913,22,female,up_down_width,2024-10-22_12h38.18.976,exp1,2023.1.0,60.13894501238615,
,,,,,,,,,,,,,,,,4,9.25,9.75,10.25,10.75,0,0.5,0.25,0.25,1.75,10,initial,36.05,333,351,370,388,0,9,9,9,9,0,,,,,,,1,0,1,0,0,5,5,9,,,,,,,,,,,,num_4,0.8796341000124812,num_4,0.5,1.2,0.20000000000000007,0.5,7.6411,19.10275,return,6.874254499794915,,,,,,,,,,,,,,,,,913,22,female,up_down_width,2024-10-22_12h38.18.976,exp1,2023.1.0,60.13894501238615,
,,,,,,,,,,,,,,,,4,9.25,9.75,10.25,10.75,0,0.5,0.25,0.25,1.75,10,initial,36.05,333,351,370,388,0,9,9,9,9,0,,,,,,,1,0,1,0,0,6,6,17,,,,,,,,,,,,num_4,1.1186108000110835,num_4,0.25,1.0,0.2,0.4,7.6411,15.2822,return,6.624497799901292,,,,,,,,,,,,,,,,,913,22,female,up_down_width,2024-10-22_12h38.18.976,exp1,2023.1.0,60.13894501238615,
,,,,,,,,,,,,,,,,4,9.25,9.75,10.25,10.75,0,0.5,0.25,0.25,1.75,10,initial,36.05,333,351,370,388,0,9,9,9,9,0,,,,,,,1,0,1,0,0,7,7,13,,,,,,,,,,,,num_4,0.8651781999506056,num_4,0.55,0.8,0.25000000000000006,0.5,9.55138,19.10275,return,3.9793552001938224,,,,,,,,,,,,,,,,,913,22,female,up_down_width,2024-10-22_12h38.18.976,exp1,2023.1.0,60.13894501238615,
,,,,,,,,,,,,,,,,4,9.25,9.75,10.25,10.75,0,0.5,0.25,0.25,1.75,10,initial,36.05,333,351,370,388,0,9,9,9,9,0,,,,,,,1,0,1,0,0,8,8,42,,,,,,,,,,,,num_4,0.7475132998079062,num_4,0.3,0.9,0.2,0.5,7.6411,19.10275,return,3.492444399977103,,,,,,,,,,,,,,,,,913,22,female,up_down_width,2024-10-22_12h38.18.976,exp1,2023.1.0,60.13894501238615,
,,,,,,,,,,,,,,,,5,9,9.5,10,10.5,11,0.5,0.25,0.25,2.25,10,initial,36.05,324,342,361,379,397,9,9,9,9,9,,,,,,,1,0,1,0,0,9,9,20,,,,,,,,,,,,num_5,0.7931282001081854,num_5,0.55,0.9,0.25000000000000006,0.6,9.55138,22.9233,return,4.659093099879101,,,,,,,,,,,,,,,,,913,22,female,up_down_width,2024-10-22_12h38.18.976,exp1,2023.1.0,60.13894501238615,
,,,,,,,,,,,,,,,,4,9.25,9.75,10.25,10.75,0,0.5,0.25,0.25,1.75,10,initial,36.05,333,351,370,388,0,9,9,9,9,0,,,,,,,1,0,1,0,0,10,10,12,,,,,,,,,,,,num_4,0.8371607998851687,num_4,0.4,1.0,0.20000000000000007,0.5,7.6411,19.10275,return,3.185309100197628,,,,,,,,,,,,,,,,,913,22,female,up_down_width,2024-10-22_12h38.18.976,exp1,2023.1.0,60.13894501238615,
,,,,,,,,,,,,,,,,5,9,9.5,10,10.5,11,0.5,0.25,0.25,2.25,10,initial,36.05,324,342,361,379,397,9,9,9,9,9,,,,,,,1,0,1,0,0,11,11,46,,,,,,,,,,,,num_5,1.4070096001960337,num_5,0.3,0.7,0.25,0.5,9.55138,19.10275,return,3.20622570021078,,,,,,,,,,,,,,,,,913,22,female,up_down_width,2024-10-22_12h38.18.976,exp1,2023.1.0,60.13894501238615,
,,,,,,,,,,,,,,,,3,9.5,10,10.5,0,0,0.5,0.25,0.25,1.25,10,initial,36.05,342,361,379,0,0,9,9,9,0,0,,,,,,,1,0,1,0,0,12,12,30,,,,,,,,,,,,num_3,0.8130520000122488,num_3,0.45,1.2,0.20000000000000007,0.8,7.6411,30.5644,return,4.183205200126395,,,,,,,,,,,,,,,,,913,22,female,up_down_width,2024-10-22_12h38.18.976,exp1,2023.1.0,60.13894501238615,
,,,,,,,,,,,,,,,,3,9.5,10,10.5,0,0,0.5,0.25,0.25,1.25,10,initial,36.05,342,361,379,0,0,9,9,9,0,0,,,,,,,1,0,1,0,0,13,13,35,,,,,,,,,,,,num_2,1.05699329986237,num_2,0.4,1.2,0.25000000000000006,0.7,9.55138,26.74385,return,5.414660800015554,,,,,,,,,,,,,,,,,913,22,female,up_down_width,2024-10-22_12h38.18.976,exp1,2023.1.0,60.13894501238615,
,,,,,,,,,,,,,,,,3,9.5,10,10.5,0,0,0.5,0.25,0.25,1.25,10,initial,36.05,342,361,379,0,0,9,9,9,0,0,,,,,,,1,0,1,0,0,14,14,33,,,,,,,,,,,,num_2,0.8695799999404699,num_2,0.25,0.8,0.25,0.5,9.55138,19.10275,return,3.374858600087464,,,,,,,,,,,,,,,,,913,22,female,up_down_width,2024-10-22_12h38.18.976,exp1,2023.1.0,60.13894501238615,
,,,,,,,,,,,,,,,,5,9,9.5,10,10.5,11,0.5,0.25,0.25,2.25,10,initial,36.05,324,342,361,379,397,9,9,9,9,9,,,,,,,1,0,1,0,0,15,15,21,,,,,,,,,,,,num_4,0.7821470000781119,num_4,0.25,1.0,0.2,0.5,7.6411,19.10275,return,4.062330800108612,,,,,,,,,,,,,,,,,913,22,female,up_down_width,2024-10-22_12h38.18.976,exp1,2023.1.0,60.13894501238615,
,,,,,,,,,,,,,,,,4,9.25,9.75,10.25,10.75,0,0.5,0.25,0.25,1.75,10,initial,36.05,333,351,370,388,0,9,9,9,9,0,,,,,,,1,0,1,0,0,16,16,11,,,,,,,,,,,,num_4,0.9576416998170316,num_4,0.35,0.5,0.2,0.5,7.6411,19.10275,return,1.9258821997791529,,,,,,,,,,,,,,,,,913,22,female,up_down_width,2024-10-22_12h38.18.976,exp1,2023.1.0,60.13894501238615,
,,,,,,,,,,,,,,,,3,9.5,10,10.5,0,0,0.5,0.25,0.25,1.25,10,initial,36.05,342,361,379,0,0,9,9,9,0,0,,,,,,,1,0,1,0,0,17,17,4,,,,,,,,,,,,num_3,1.0984080999623984,num_3,0.35,1.2,0.2,0.6,7.6411,22.9233,return,6.440317099913955,,,,,,,,,,,,,,,,,913,22,female,up_down_width,2024-10-22_12h38.18.976,exp1,2023.1.0,60.13894501238615,
,,,,,,,,,,,,,,,,4,9.25,9.75,10.25,10.75,0,0.5,0.25,0.25,1.75,10,initial,36.05,333,351,370,388,0,9,9,9,9,0,,,,,,,1,0,1,0,0,18,18,36,,,,,,,,,,,,num_4,0.9847031000535935,num_4,0.5,0.8,0.30000000000000004,0.6,11.46165,22.9233,return,3.241837600013241,,,,,,,,,,,,,,,,,913,22,female,up_down_width,2024-10-22_12h38.18.976,exp1,2023.1.0,60.13894501238615,
,,,,,,,,,,,,,,,,5,9,9.5,10,10.5,11,0.5,0.25,0.25,2.25,10,initial,36.05,324,342,361,379,397,9,9,9,9,9,,,,,,,1,0,1,0,0,19,19,22,,,,,,,,,,,,num_5,0.8528569999616593,num_5,0.45,0.7,0.25000000000000006,0.5,9.55138,19.10275,return,3.037118599982932,,,,,,,,,,,,,,,,,913,22,female,up_down_width,2024-10-22_12h38.18.976,exp1,2023.1.0,60.13894501238615,
,,,,,,,,,,,,,,,,5,9,9.5,10,10.5,11,0.5,0.25,0.25,2.25,10,initial,36.05,324,342,361,379,397,9,9,9,9,9,,,,,,,1,0,1,0,0,20,20,48,,,,,,,,,,,,num_5,0.9210487001109868,num_5,0.4,0.6,0.25000000000000006,0.45,9.55138,17.19248,return,2.3234995000530034,,,,,,,,,,,,,,,,,913,22,female,up_down_width,2024-10-22_12h38.18.976,exp1,2023.1.0,60.13894501238615,
,,,,,,,,,,,,,,,,5,9,9.5,10,10.5,11,0.5,0.25,0.25,2.25,10,initial,36.05,324,342,361,379,397,9,9,9,9,9,,,,,,,1,0,1,0,0,21,21,24,,,,,,,,,,,,num_5,0.9536524000577629,num_5,0.3,0.5,0.2,0.45,7.6411,17.19248,return,2.7848612000234425,,,,,,,,,,,,,,,,,913,22,female,up_down_width,2024-10-22_12h38.18.976,exp1,2023.1.0,60.13894501238615,
,,,,,,,,,,,,,,,,4,9.25,9.75,10.25,10.75,0,0.5,0.25,0.25,1.75,10,initial,36.05,333,351,370,388,0,9,9,9,9,0,,,,,,,1,0,1,0,0,22,22,40,,,,,,,,,,,,num_4,0.8350345001090318,num_4,0.5,0.6,0.25000000000000006,0.6,9.55138,22.9233,return,2.3654775000177324,,,,,,,,,,,,,,,,,913,22,female,up_down_width,2024-10-22_12h38.18.976,exp1,2023.1.0,60.13894501238615,
,,,,,,,,,,,,,,,,5,9,9.5,10,10.5,11,0.5,0.25,0.25,2.25,10,initial,36.05,324,342,361,379,397,9,9,9,9,9,,,,,,,1,0,1,0,0,23,23,50,,,,,,,,,,,,num_5,0.8220110000111163,num_5,0.45,0.6,0.30000000000000004,0.5,11.46165,19.10275,return,2.0031246000435203,,,,,,,,,,,,,,,,,913,22,female,up_down_width,2024-10-22_12h38.18.976,exp1,2023.1.0,60.13894501238615,
,,,,,,,,,,,,,,,,4,9.25,9.75,10.25,10.75,0,0.5,0.25,0.25,1.75,10,initial,36.05,333,351,370,388,0,9,9,9,9,0,,,,,,,1,0,1,0,0,24,24,10,,,,,,,,,,,,num_4,0.8391099001746625,num_4,0.2,0.6,0.35,0.5,13.37193,19.10275,return,5.092645399970934,,,,,,,,,,,,,,,,,913,22,female,up_down_width,2024-10-22_12h38.18.976,exp1,2023.1.0,60.13894501238615,
,,,,,,,,,,,,,,,,5,9,9.5,10,10.5,11,0.5,0.25,0.25,2.25,10,initial,36.05,324,342,361,379,397,9,9,9,9,9,,,,,,,1,0,1,0,0,25,25,45,,,,,,,,,,,,num_4,1.0400131000205874,num_4,0.5,0.9,0.30000000000000004,0.6,11.46165,22.9233,return,2.7484011000487953,,,,,,,,,,,,,,,,,913,22,female,up_down_width,2024-10-22_12h38.18.976,exp1,2023.1.0,60.13894501238615,
,,,,,,,,,,,,,,,,3,9.5,10,10.5,0,0,0.5,0.25,0.25,1.25,10,initial,36.05,342,361,379,0,0,9,9,9,0,0,,,,,,,1,0,1,0,0,26,26,7,,,,,,,,,,,,num_3,1.0343841998837888,num_3,0.3,0.7,0.25,0.65,9.55138,24.83358,return,1.723198899999261,,,,,,,,,,,,,,,,,913,22,female,up_down_width,2024-10-22_12h38.18.976,exp1,2023.1.0,60.13894501238615,
,,,,,,,,,,,,,,,,5,9,9.5,10,10.5,11,0.5,0.25,0.25,2.25,10,initial,36.05,324,342,361,379,397,9,9,9,9,9,,,,,,,1,0,1,0,0,27,27,52,,,,,,,,,,,,num_5,0.9291775000747293,num_5,0.5,1.2,0.30000000000000004,0.8,11.46165,30.5644,return,5.169408299960196,,,,,,,,,,,,,,,,,913,22,female,up_down_width,2024-10-22_12h38.18.976,exp1,2023.1.0,60.13894501238615,
,,,,,,,,,,,,,,,,5,9,9.5,10,10.5,11,0.5,0.25,0.25,2.25,10,initial,36.05,324,342,361,379,397,9,9,9,9,9,,,,,,,1,0,1,0,0,28,28,26,,,,,,,,,,,,num_4,0.7829227999318391,num_4,0.5,0.6,0.25000000000000006,0.6,9.55138,22.9233,return,2.4785400999244303,,,,,,,,,,,,,,,,,913,22,female,up_down_width,2024-10-22_12h38.18.976,exp1,2023.1.0,60.13894501238615,
,,,,,,,,,,,,,,,,5,9,9.5,10,10.5,11,0.5,0.25,0.25,2.25,10,initial,36.05,324,342,361,379,397,9,9,9,9,9,,,,,,,1,0,1,0,0,29,29,51,,,,,,,,,,,,num_5,0.7995140999555588,num_5,0.5,1.2,0.20000000000000007,0.65,7.6411,24.83358,return,5.501920500071719,,,,,,,,,,,,,,,,,913,22,female,up_down_width,2024-10-22_12h38.18.976,exp1,2023.1.0,60.13894501238615,
,,,,,,,,,,,,,,,,4,9.25,9.75,10.25,10.75,0,0.5,0.25,0.25,1.75,10,initial,36.05,333,351,370,388,0,9,9,9,9,0,,,,,,,1,0,1,0,0,30,30,43,,,,,,,,,,,,num_4,0.7419833999592811,num_4,0.45,0.6,0.25000000000000006,0.5,9.55138,19.10275,return,2.5809556001331657,,,,,,,,,,,,,,,,,913,22,female,up_down_width,2024-10-22_12h38.18.976,exp1,2023.1.0,60.13894501238615,
,,,,,,,,,,,,,,,,3,9.5,10,10.5,0,0,0.5,0.25,0.25,1.25,10,initial,36.05,342,361,379,0,0,9,9,9,0,0,,,,,,,1,0,1,0,0,31,31,2,,,,,,,,,,,,num_3,0.871359399985522,num_3,0.3,0.8,0.2,0.55,7.6411,21.01303,return,2.4026370998471975,,,,,,,,,,,,,,,,,913,22,female,up_down_width,2024-10-22_12h38.18.976,exp1,2023.1.0,60.13894501238615,
,,,,,,,,,,,,,,,,5,9,9.5,10,10.5,11,0.5,0.25,0.25,2.25,10,initial,36.05,324,342,361,379,397,9,9,9,9,9,,,,,,,1,0,1,0,0,32,32,19,,,,,,,,,,,,num_5,0.8036065001506358,num_5,0.5,1.2,0.20000000000000007,0.65,7.6411,24.83358,return,4.604160899994895,,,,,,,,,,,,,,,,,913,22,female,up_down_width,2024-10-22_12h38.18.976,exp1,2023.1.0,60.13894501238615,
,,,,,,,,,,,,,,,,3,9.5,10,10.5,0,0,0.5,0.25,0.25,1.25,10,initial,36.05,342,361,379,0,0,9,9,9,0,0,,,,,,,1,0,1,0,0,33,33,31,,,,,,,,,,,,num_3,0.7826173999346793,num_3,0.3,1.2,0.25,0.6,9.55138,22.9233,return,5.402591299964115,,,,,,,,,,,,,,,,,913,22,female,up_down_width,2024-10-22_12h38.18.976,exp1,2023.1.0,60.13894501238615,
,,,,,,,,,,,,,,,,3,9.5,10,10.5,0,0,0.5,0.25,0.25,1.25,10,initial,36.05,342,361,379,0,0,9,9,9,0,0,,,,,,,1,0,1,0,0,34,34,5,,,,,,,,,,,,num_2,0.7608606999274343,num_2,0.35,1.6,0.25,0.7,9.55138,26.74385,return,6.488560399971902,,,,,,,,,,,,,,,,,913,22,female,up_down_width,2024-10-22_12h38.18.976,exp1,2023.1.0,60.13894501238615,
,,,,,,,,,,,,,,,,4,9.25,9.75,10.25,10.75,0,0.5,0.25,0.25,1.75,10,initial,36.05,333,351,370,388,0,9,9,9,9,0,,,,,,,1,0,1,0,0,35,35,15,,,,,,,,,,,,num_4,0.8762326000723988,num_4,0.4,0.8,0.25000000000000006,0.5,9.55138,19.10275,return,2.6810097999405116,,,,,,,,,,,,,,,,,913,22,female,up_down_width,2024-10-22_12h38.18.976,exp1,2023.1.0,60.13894501238615,
,,,,,,,,,,,,,,,,3,9.5,10,10.5,0,0,0.5,0.25,0.25,1.25,10,initial,36.05,342,361,379,0,0,9,9,9,0,0,,,,,,,1,0,1,0,0,36,36,3,,,,,,,,,,,,num_3,0.8394935999531299,num_3,0.4,1,0.20000000000000007,0.55,7.6411,21.01303,return,3.888307400047779,,,,,,,,,,,,,,,,,913,22,female,up_down_width,2024-10-22_12h38.18.976,exp1,2023.1.0,60.13894501238615,
,,,,,,,,,,,,,,,,3,9.5,10,10.5,0,0,0.5,0.25,0.25,1.25,10,initial,36.05,342,361,379,0,0,9,9,9,0,0,,,,,,,1,0,1,0,0,37,37,0,,,,,,,,,,,,num_3,0.74108190019615,num_3,0.45,1.3,0.25000000000000006,0.7,9.55138,26.74385,return,4.739111399976537,,,,,,,,,,,,,,,,,913,22,female,up_down_width,2024-10-22_12h38.18.976,exp1,2023.1.0,60.13894501238615,
,,,,,,,,,,,,,,,,4,9.25,9.75,10.25,10.75,0,0.5,0.25,0.25,1.75,10,initial,36.05,333,351,370,388,0,9,9,9,9,0,,,,,,,1,0,1,0,0,38,38,39,,,,,,,,,,,,num_4,0.7938312001060694,num_4,0.35,1.2,0.25,0.5,9.55138,19.10275,return,4.94704580004327,,,,,,,,,,,,,,,,,913,22,female,up_down_width,2024-10-22_12h38.18.976,exp1,2023.1.0,60.13894501238615,
,,,,,,,,,,,,,,,,4,9.25,9.75,10.25,10.75,0,0.5,0.25,0.25,1.75,10,initial,36.05,333,351,370,388,0,9,9,9,9,0,,,,,,,1,0,1,0,0,39,39,44,,,,,,,,,,,,num_4,0.9714959000702947,num_4,0.5,0.9,0.35000000000000003,0.6,13.37193,22.9233,return,2.435103999916464,,,,,,,,,,,,,,,,,913,22,female,up_down_width,2024-10-22_12h38.18.976,exp1,2023.1.0,60.13894501238615,
,,,,,,,,,,,,,,,,5,9,9.5,10,10.5,11,0.5,0.25,0.25,2.25,10,initial,36.05,324,342,361,379,397,9,9,9,9,9,,,,,,,1,0,1,0,0,40,40,47,,,,,,,,,,,,num_5,0.8184768999926746,num_5,0.45,1.2,0.30000000000000004,0.6,11.46165,22.9233,return,4.812535299919546,,,,,,,,,,,,,,,,,913,22,female,up_down_width,2024-10-22_12h38.18.976,exp1,2023.1.0,60.13894501238615,
,,,,,,,,,,,,,,,,3,9.5,10,10.5,0,0,0.5,0.25,0.25,1.25,10,initial,36.05,342,361,379,0,0,9,9,9,0,0,,,,,,,1,0,1,0,0,41,41,28,,,,,,,,,,,,num_3,1.0325481998734176,num_3,0.55,1,0.30000000000000004,0.6,11.46165,22.9233,return,3.467893300112337,,,,,,,,,,,,,,,,,913,22,female,up_down_width,2024-10-22_12h38.18.976,exp1,2023.1.0,60.13894501238615,
,,,,,,,,,,,,,,,,4,9.25,9.75,10.25,10.75,0,0.5,0.25,0.25,1.75,10,initial,36.05,333,351,370,388,0,9,9,9,9,0,,,,,,,1,0,1,0,0,42,42,16,,,,,,,,,,,,num_4,1.1383356000296772,num_4,0.3,0.7,0.25,0.6,9.55138,22.9233,return,3.7592847999185324,,,,,,,,,,,,,,,,,913,22,female,up_down_width,2024-10-22_12h38.18.976,exp1,2023.1.0,60.13894501238615,
,,,,,,,,,,,,,,,,5,9,9.5,10,10.5,11,0.5,0.25,0.25,2.25,10,initial,36.05,324,342,361,379,397,9,9,9,9,9,,,,,,,1,0,1,0,0,43,43,23,,,,,,,,,,,,num_5,0.9731030999682844,num_5,0.25,0.6,0.25,0.6,9.55138,22.9233,return,1.1490262001752853,,,,,,,,,,,,,,,,,913,22,female,up_down_width,2024-10-22_12h38.18.976,exp1,2023.1.0,60.13894501238615,
,,,,,,,,,,,,,,,,4,9.25,9.75,10.25,10.75,0,0.5,0.25,0.25,1.75,10,initial,36.05,333,351,370,388,0,9,9,9,9,0,,,,,,,1,0,1,0,0,44,44,41,,,,,,,,,,,,num_4,0.8034115999471396,num_4,0.4,0.5,0.30000000000000004,0.6,11.46165,22.9233,return,3.823385399999097,,,,,,,,,,,,,,,,,913,22,female,up_down_width,2024-10-22_12h38.18.976,exp1,2023.1.0,60.13894501238615,
,,,,,,,,,,,,,,,,5,9,9.5,10,10.5,11,0.5,0.25,0.25,2.25,10,initial,36.05,324,342,361,379,397,9,9,9,9,9,,,,,,,1,0,1,0,0,45,45,53,,,,,,,,,,,,num_5,0.7586600000504404,num_5,0.55,1.3,0.20000000000000007,0.5,7.6411,19.10275,return,7.382348299957812,,,,,,,,,,,,,,,,,913,22,female,up_down_width,2024-10-22_12h38.18.976,exp1,2023.1.0,60.13894501238615,
,,,,,,,,,,,,,,,,4,9.25,9.75,10.25,10.75,0,0.5,0.25,0.25,1.75,10,initial,36.05,333,351,370,388,0,9,9,9,9,0,,,,,,,1,0,1,0,0,46,46,38,,,,,,,,,,,,num_4,0.8580229000654072,num_4,0.5,0.7,0.30000000000000004,0.5,11.46165,19.10275,return,3.1096358001232147,,,,,,,,,,,,,,,,,913,22,female,up_down_width,2024-10-22_12h38.18.976,exp1,2023.1.0,60.13894501238615,
,,,,,,,,,,,,,,,,3,9.5,10,10.5,0,0,0.5,0.25,0.25,1.25,10,initial,36.05,342,361,379,0,0,9,9,9,0,0,,,,,,,1,0,1,0,0,47,47,27,,,,,,,,,,,,num_3,0.9717071999330074,num_3,0.45,0.7,0.30000000000000004,0.65,11.46165,24.83358,return,3.0916686998680234,,,,,,,,,,,,,,,,,913,22,female,up_down_width,2024-10-22_12h38.18.976,exp1,2023.1.0,60.13894501238615,
,,,,,,,,,,,,,,,,3,9.5,10,10.5,0,0,0.5,0.25,0.25,1.25,10,initial,36.05,342,361,379,0,0,9,9,9,0,0,,,,,,,1,0,1,0,0,48,48,8,,,,,,,,,,,,num_3,0.9383340000640601,num_3,0.2,0.4,0.3,0.55,11.46165,21.01303,return,3.714464400196448,,,,,,,,,,,,,,,,,913,22,female,up_down_width,2024-10-22_12h38.18.976,exp1,2023.1.0,60.13894501238615,
,,,,,,,,,,,,,,,,5,9,9.5,10,10.5,11,0.5,0.25,0.25,2.25,10,initial,36.05,324,342,361,379,397,9,9,9,9,9,,,,,,,1,0,1,0,0,49,49,25,,,,,,,,,,,,num_6,0.9494535999838263,num_6,0.2,0.4,0.2,0.6,7.6411,22.9233,return,3.0702710000332445,,,,,,,,,,,,,,,,,913,22,female,up_down_width,2024-10-22_12h38.18.976,exp1,2023.1.0,60.13894501238615,
,,,,,,,,,,,,,,,,3,9.5,10,10.5,0,0,0.5,0.25,0.25,1.25,10,initial,36.05,342,361,379,0,0,9,9,9,0,0,,,,,,,1,0,1,0,0,50,50,34,,,,,,,,,,,,num_3,0.727758000139147,num_3,0.3,0.7,0.25,0.7,9.55138,26.74385,return,1.6095039998181164,,,,,,,,,,,,,,,,,913,22,female,up_down_width,2024-10-22_12h38.18.976,exp1,2023.1.0,60.13894501238615,
,,,,,,,,,,,,,,,,3,9.5,10,10.5,0,0,0.5,0.25,0.25,1.25,10,initial,36.05,342,361,379,0,0,9,9,9,0,0,,,,,,,1,0,1,0,0,51,51,29,,,,,,,,,,,,num_3,0.7296842001378536,num_3,0.35,0.4,0.2,0.55,7.6411,21.01303,return,4.182490800041705,,,,,,,,,,,,,,,,,913,22,female,up_down_width,2024-10-22_12h38.18.976,exp1,2023.1.0,60.13894501238615,
,,,,,,,,,,,,,,,,4,9.25,9.75,10.25,10.75,0,0.5,0.25,0.25,1.75,10,initial,36.05,333,351,370,388,0,9,9,9,9,0,,,,,,,1,0,1,0,0,52,52,37,,,,,,,,,,,,num_4,0.8616551000159234,num_4,0.55,1.3,0.30000000000000004,0.6,11.46165,22.9233,return,5.53059359989129,,,,,,,,,,,,,,,,,913,22,female,up_down_width,2024-10-22_12h38.18.976,exp1,2023.1.0,60.13894501238615,
,,,,,,,,,,,,,,,,5,9,9.5,10,10.5,11,0.5,0.25,0.25,2.25,10,initial,36.05,324,342,361,379,397,9,9,9,9,9,,,,,,,1,0,1,0,0,53,53,18,,,,,,,,,,,,num_5,0.8197778998874128,num_5,0.3,0.5,0.3,0.75,11.46165,28.65413,return,4.9874225000385195,,,,,,,,,,,,,,,,,913,22,female,up_down_width,2024-10-22_12h38.18.976,exp1,2023.1.0,60.13894501238615,
,,,,,,,,,,,,,,,,,,,,,,,,,,,,,,,,,,,,,,,,,,,,,1,0,1,0,,,,,,,,,,,,,,,,,,,,,,,,,,,,,1087.978450999828,1087.978450999828,1087.978450999828,,,,,,,,,,,,913,22,female,up_down_width,2024-10-22_12h38.18.976,exp1,2023.1.0,60.13894501238615,
,,,,,,,,,,,,,,,,3,9.5,10,10.5,0,0,0.5,0.1,0.4,1.4000000000000001,10,initial,36.05,342,361,379,0,0,9,9,9,0,0,,,,,,,2,0,2,0,0,0,0,0,,,,,,,,,,,,num_2,1.02256099996157,num_2,0.2,0.4,0.39999999999999997,0.5,15.2822,19.10275,return,4.421274600084871,,,,,,,,,,,,,,,,,913,22,female,up_down_width,2024-10-22_12h38.18.976,exp1,2023.1.0,60.13894501238615,
,,,,,,,,,,,,,,,,3,9.5,10,10.5,0,0,0.5,0.1,0.4,1.4000000000000001,10,initial,36.05,342,361,379,0,0,9,9,9,0,0,,,,,,,2,0,2,0,0,1,1,7,,,,,,,,,,,,num_3,1.0928684999234974,num_3,0.3,1,0.6,0.75,22.9233,28.65413,return,4.167621500091627,,,,,,,,,,,,,,,,,913,22,female,up_down_width,2024-10-22_12h38.18.976,exp1,2023.1.0,60.13894501238615,
,,,,,,,,,,,,,,,,4,9.25,9.75,10.25,10.75,0,0.5,0.1,0.4,1.9000000000000001,10,initial,36.05,333,351,370,388,0,9,9,9,9,0,,,,,,,2,0,2,0,0,2,2,38,,,,,,,,,,,,num_4,1.0605718998704106,num_4,0.25,0.6,0.49999999999999994,0.6,19.10275,22.9233,return,4.218023299938068,,,,,,,,,,,,,,,,,913,22,female,up_down_width,2024-10-22_12h38.18.976,exp1,2023.1.0,60.13894501238615,
,,,,,,,,,,,,,,,,5,9,9.5,10,10.5,11,0.5,0.1,0.4,2.4,10,initial,36.05,324,342,361,379,397,9,9,9,9,9,,,,,,,2,0,2,0,0,3,3,19,,,,,,,,,,,,num_6,1.1817476998548955,num_6,0.3,0.9,0.7000000000000001,0.8,26.74385,30.5644,return,8.61236450006254,,,,,,,,,,,,,,,,,913,22,female,up_down_width,2024-10-22_12h38.18.976,exp1,2023.1.0,60.13894501238615,
,,,,,,,,,,,,,,,,3,9.5,10,10.5,0,0,0.5,0.1,0.4,1.4000000000000001,10,initial,36.05,342,361,379,0,0,9,9,9,0,0,,,,,,,2,0,2,0,0,4,4,29,,,,,,,,,,,,num_3,0.9682721998542547,num_3,0.2,1.1,0.65,0.8,24.83358,30.5644,return,4.9597708999644965,,,,,,,,,,,,,,,,,913,22,female,up_down_width,2024-10-22_12h38.18.976,exp1,2023.1.0,60.13894501238615,
,,,,,,,,,,,,,,,,4,9.25,9.75,10.25,10.75,0,0.5,0.1,0.4,1.9000000000000001,10,initial,36.05,333,351,370,388,0,9,9,9,9,0,,,,,,,2,0,2,0,0,5,5,42,,,,,,,,,,,,num_4,0.9698473999742419,num_4,0.2,0.7,0.5499999999999999,0.7,21.01303,26.74385,return,2.76530579989776,,,,,,,,,,,,,,,,,913,22,female,up_down_width,2024-10-22_12h38.18.976,exp1,2023.1.0,60.13894501238615,
,,,,,,,,,,,,,,,,3,9.5,10,10.5,0,0,0.5,0.1,0.4,1.4000000000000001,10,initial,36.05,342,361,379,0,0,9,9,9,0,0,,,,,,,2,0,2,0,0,6,6,8,,,,,,,,,,,,num_3,0.7199601999018341,num_3,0.55,1.3,0.6500000000000001,0.8,24.83358,30.5644,return,6.146949799964204,,,,,,,,,,,,,,,,,913,22,female,up_down_width,2024-10-22_12h38.18.976,exp1,2023.1.0,60.13894501238615,
,,,,,,,,,,,,,,,,3,9.5,10,10.5,0,0,0.5,0.1,0.4,1.4000000000000001,10,initial,36.05,342,361,379,0,0,9,9,9,0,0,,,,,,,2,0,2,0,0,7,7,5,,,,,,,,,,,,num_3,0.7623926000669599,num_3,0.4,0.8,0.45,0.6,17.19248,22.9233,return,3.749470599927008,,,,,,,,,,,,,,,,,913,22,female,up_down_width,2024-10-22_12h38.18.976,exp1,2023.1.0,60.13894501238615,
,,,,,,,,,,,,,,,,4,9.25,9.75,10.25,10.75,0,0.5,0.1,0.4,1.9000000000000001,10,initial,36.05,333,351,370,388,0,9,9,9,9,0,,,,,,,2,0,2,0,0,8,8,11,,,,,,,,,,,,num_4,0.8131514999549836,num_4,0.35,0.4,0.49999999999999994,0.7,19.10275,26.74385,return,4.583529299823567,,,,,,,,,,,,,,,,,913,22,female,up_down_width,2024-10-22_12h38.18.976,exp1,2023.1.0,60.13894501238615,
,,,,,,,,,,,,,,,,5,9,9.5,10,10.5,11,0.5,0.1,0.4,2.4,10,initial,36.05,324,342,361,379,397,9,9,9,9,9,,,,,,,2,0,2,0,0,9,9,18,,,,,,,,,,,,num_6,0.9039531999733299,num_6,0.2,1.3,0.5499999999999999,0.7,21.01303,26.74385,return,6.092438000021502,,,,,,,,,,,,,,,,,913,22,female,up_down_width,2024-10-22_12h38.18.976,exp1,2023.1.0,60.13894501238615,
,,,,,,,,,,,,,,,,4,9.25,9.75,10.25,10.75,0,0.5,0.1,0.4,1.9000000000000001,10,initial,36.05,333,351,370,388,0,9,9,9,9,0,,,,,,,2,0,2,0,0,10,10,40,,,,,,,,,,,,num_4,0.6777625000104308,num_4,0.2,0.9,0.49999999999999994,0.7,19.10275,26.74385,return,4.9646756001748145,,,,,,,,,,,,,,,,,913,22,female,up_down_width,2024-10-22_12h38.18.976,exp1,2023.1.0,60.13894501238615,
,,,,,,,,,,,,,,,,4,9.25,9.75,10.25,10.75,0,0.5,0.1,0.4,1.9000000000000001,10,initial,36.05,333,351,370,388,0,9,9,9,9,0,,,,,,,2,0,2,0,0,11,11,15,,,,,,,,,,,,num_4,0.7887518000788987,num_4,0.25,0.5,0.6,0.8,22.9233,30.5644,return,4.451045899884775,,,,,,,,,,,,,,,,,913,22,female,up_down_width,2024-10-22_12h38.18.976,exp1,2023.1.0,60.13894501238615,
,,,,,,,,,,,,,,,,3,9.5,10,10.5,0,0,0.5,0.1,0.4,1.4000000000000001,10,initial,36.05,342,361,379,0,0,9,9,9,0,0,,,,,,,2,0,2,0,0,12,12,31,,,,,,,,,,,,num_3,0.6769832998979837,num_3,0.35,1.1,0.35,0.5,13.37193,19.10275,return,7.362535500200465,,,,,,,,,,,,,,,,,913,22,female,up_down_width,2024-10-22_12h38.18.976,exp1,2023.1.0,60.13894501238615,
,,,,,,,,,,,,,,,,3,9.5,10,10.5,0,0,0.5,0.1,0.4,1.4000000000000001,10,initial,36.05,342,361,379,0,0,9,9,9,0,0,,,,,,,2,0,2,0,0,13,13,1,,,,,,,,,,,,num_3,0.6559997999574989,num_3,0.45,1,0.5,0.65,19.10275,24.83358,return,6.399938199901953,,,,,,,,,,,,,,,,,913,22,female,up_down_width,2024-10-22_12h38.18.976,exp1,2023.1.0,60.13894501238615,
,,,,,,,,,,,,,,,,5,9,9.5,10,10.5,11,0.5,0.1,0.4,2.4,10,initial,36.05,324,342,361,379,397,9,9,9,9,9,,,,,,,2,0,2,0,0,14,14,24,,,,,,,,,,,,num_5,1.3824679998215288,num_5,0.2,0.6,0.44999999999999996,0.6,17.19248,22.9233,return,2.656004099873826,,,,,,,,,,,,,,,,,913,22,female,up_down_width,2024-10-22_12h38.18.976,exp1,2023.1.0,60.13894501238615,
,,,,,,,,,,,,,,,,4,9.25,9.75,10.25,10.75,0,0.5,0.1,0.4,1.9000000000000001,10,initial,36.05,333,351,370,388,0,9,9,9,9,0,,,,,,,2,0,2,0,0,15,15,9,,,,,,,,,,,,num_4,0.9720048999879509,num_4,0.3,1.0,0.44999999999999996,0.7,17.19248,26.74385,return,5.178610300179571,,,,,,,,,,,,,,,,,913,22,female,up_down_width,2024-10-22_12h38.18.976,exp1,2023.1.0,60.13894501238615,
,,,,,,,,,,,,,,,,3,9.5,10,10.5,0,0,0.5,0.1,0.4,1.4000000000000001,10,initial,36.05,342,361,379,0,0,9,9,9,0,0,,,,,,,2,0,2,0,0,16,16,6,,,,,,,,,,,,num_3,0.9098100000992417,num_3,0.55,0.7,0.55,0.7,21.01303,26.74385,return,2.482274199835956,,,,,,,,,,,,,,,,,913,22,female,up_down_width,2024-10-22_12h38.18.976,exp1,2023.1.0,60.13894501238615,
,,,,,,,,,,,,,,,,5,9,9.5,10,10.5,11,0.5,0.1,0.4,2.4,10,initial,36.05,324,342,361,379,397,9,9,9,9,9,,,,,,,2,0,2,0,0,17,17,47,,,,,,,,,,,,num_5,1.0624133998062462,num_5,0.2,0.6,0.44999999999999996,0.6,17.19248,22.9233,return,2.9681526001077145,,,,,,,,,,,,,,,,,913,22,female,up_down_width,2024-10-22_12h38.18.976,exp1,2023.1.0,60.13894501238615,
,,,,,,,,,,,,,,,,5,9,9.5,10,10.5,11,0.5,0.1,0.4,2.4,10,initial,36.05,324,342,361,379,397,9,9,9,9,9,,,,,,,2,0,2,0,0,18,18,46,,,,,,,,,,,,num_5,0.7737264998722821,num_5,0.4,1.3,0.5,0.65,19.10275,24.83358,return,6.005401300033554,,,,,,,,,,,,,,,,,913,22,female,up_down_width,2024-10-22_12h38.18.976,exp1,2023.1.0,60.13894501238615,
,,,,,,,,,,,,,,,,4,9.25,9.75,10.25,10.75,0,0.5,0.1,0.4,1.9000000000000001,10,initial,36.05,333,351,370,388,0,9,9,9,9,0,,,,,,,2,0,2,0,0,19,19,17,,,,,,,,,,,,num_4,0.6706035998649895,num_4,0.45,0.8,0.6000000000000001,0.8,22.9233,30.5644,return,4.638204900082201,,,,,,,,,,,,,,,,,913,22,female,up_down_width,2024-10-22_12h38.18.976,exp1,2023.1.0,60.13894501238615,
,,,,,,,,,,,,,,,,3,9.5,10,10.5,0,0,0.5,0.1,0.4,1.4000000000000001,10,initial,36.05,342,361,379,0,0,9,9,9,0,0,,,,,,,2,0,2,0,0,20,20,33,,,,,,,,,,,,num_3,0.8326782998628914,num_3,0.4,1.1,0.45,0.6,17.19248,22.9233,return,5.598290299996734,,,,,,,,,,,,,,,,,913,22,female,up_down_width,2024-10-22_12h38.18.976,exp1,2023.1.0,60.13894501238615,
,,,,,,,,,,,,,,,,3,9.5,10,10.5,0,0,0.5,0.1,0.4,1.4000000000000001,10,initial,36.05,342,361,379,0,0,9,9,9,0,0,,,,,,,2,0,2,0,0,21,21,27,,,,,,,,,,,,num_3,0.7096492000855505,num_3,0.55,0.8,0.5,0.65,19.10275,24.83358,return,3.1541518999729306,,,,,,,,,,,,,,,,,913,22,female,up_down_width,2024-10-22_12h38.18.976,exp1,2023.1.0,60.13894501238615,
,,,,,,,,,,,,,,,,5,9,9.5,10,10.5,11,0.5,0.1,0.4,2.4,10,initial,36.05,324,342,361,379,397,9,9,9,9,9,,,,,,,2,0,2,0,0,22,22,53,,,,,,,,,,,,num_5,1.0047470000572503,num_5,0.55,0.9,0.5,0.65,19.10275,24.83358,return,4.2720566999632865,,,,,,,,,,,,,,,,,913,22,female,up_down_width,2024-10-22_12h38.18.976,exp1,2023.1.0,60.13894501238615,
,,,,,,,,,,,,,,,,3,9.5,10,10.5,0,0,0.5,0.1,0.4,1.4000000000000001,10,initial,36.05,342,361,379,0,0,9,9,9,0,0,,,,,,,2,0,2,0,0,23,23,34,,,,,,,,,,,,num_3,0.7952600000426173,num_3,0.45,0.8,0.45,0.65,17.19248,24.83358,return,2.069472000002861,,,,,,,,,,,,,,,,,913,22,female,up_down_width,2024-10-22_12h38.18.976,exp1,2023.1.0,60.13894501238615,
,,,,,,,,,,,,,,,,4,9.25,9.75,10.25,10.75,0,0.5,0.1,0.4,1.9000000000000001,10,initial,36.05,333,351,370,388,0,9,9,9,9,0,,,,,,,2,0,2,0,0,24,24,44,,,,,,,,,,,,num_4,1.1184733000118285,num_4,0.25,1.1,0.49999999999999994,0.6,19.10275,22.9233,return,6.6682764000725,,,,,,,,,,,,,,,,,913,22,female,up_down_width,2024-10-22_12h38.18.976,exp1,2023.1.0,60.13894501238615,
,,,,,,,,,,,,,,,,5,9,9.5,10,10.5,11,0.5,0.1,0.4,2.4,10,initial,36.05,324,342,361,379,397,9,9,9,9,9,,,,,,,2,0,2,0,0,25,25,23,,,,,,,,,,,,num_4,0.8123303998727351,num_4,0.2,0.6,0.44999999999999996,0.6,17.19248,22.9233,return,3.1245873000007123,,,,,,,,,,,,,,,,,913,22,female,up_down_width,2024-10-22_12h38.18.976,exp1,2023.1.0,60.13894501238615,
,,,,,,,,,,,,,,,,4,9.25,9.75,10.25,10.75,0,0.5,0.1,0.4,1.9000000000000001,10,initial,36.05,333,351,370,388,0,9,9,9,9,0,,,,,,,2,0,2,0,0,26,26,16,,,,,,,,,,,,num_4,0.8493364998139441,num_4,0.35,0.8,0.6,0.8,22.9233,30.5644,return,2.2378703001886606,,,,,,,,,,,,,,,,,913,22,female,up_down_width,2024-10-22_12h38.18.976,exp1,2023.1.0,60.13894501238615,
,,,,,,,,,,,,,,,,5,9,9.5,10,10.5,11,0.5,0.1,0.4,2.4,10,initial,36.05,324,342,361,379,397,9,9,9,9,9,,,,,,,2,0,2,0,0,27,27,26,,,,,,,,,,,,num_4,0.9175048999022692,num_4,0.2,1.2,0.49999999999999994,0.7,19.10275,26.74385,return,7.018476200057194,,,,,,,,,,,,,,,,,913,22,female,up_down_width,2024-10-22_12h38.18.976,exp1,2023.1.0,60.13894501238615,
,,,,,,,,,,,,,,,,4,9.25,9.75,10.25,10.75,0,0.5,0.1,0.4,1.9000000000000001,10,initial,36.05,333,351,370,388,0,9,9,9,9,0,,,,,,,2,0,2,0,0,28,28,37,,,,,,,,,,,,num_4,0.7280529998242855,num_4,0.25,0.6,0.39999999999999997,0.6,15.2822,22.9233,return,2.5538141999859363,,,,,,,,,,,,,,,,,913,22,female,up_down_width,2024-10-22_12h38.18.976,exp1,2023.1.0,60.13894501238615,
,,,,,,,,,,,,,,,,5,9,9.5,10,10.5,11,0.5,0.1,0.4,2.4,10,initial,36.05,324,342,361,379,397,9,9,9,9,9,,,,,,,2,0,2,0,0,29,29,51,,,,,,,,,,,,num_4,0.7747630998492241,num_4,0.4,1.1,0.55,0.7,21.01303,26.74385,return,3.073074799962342,,,,,,,,,,,,,,,,,913,22,female,up_down_width,2024-10-22_12h38.18.976,exp1,2023.1.0,60.13894501238615,
,,,,,,,,,,,,,,,,5,9,9.5,10,10.5,11,0.5,0.1,0.4,2.4,10,initial,36.05,324,342,361,379,397,9,9,9,9,9,,,,,,,2,0,2,0,0,30,30,52,,,,,,,,,,,,num_5,0.9844711998011917,num_5,0.25,1.2,0.5499999999999999,0.8,21.01303,30.5644,return,4.09501100005582,,,,,,,,,,,,,,,,,913,22,female,up_down_width,2024-10-22_12h38.18.976,exp1,2023.1.0,60.13894501238615,
,,,,,,,,,,,,,,,,4,9.25,9.75,10.25,10.75,0,0.5,0.1,0.4,1.9000000000000001,10,initial,36.05,333,351,370,388,0,9,9,9,9,0,,,,,,,2,0,2,0,0,31,31,43,,,,,,,,,,,,num_5,1.0277700999286026,num_5,0.35,1.1,0.35,0.5,13.37193,19.10275,return,5.46234600013122,,,,,,,,,,,,,,,,,913,22,female,up_down_width,2024-10-22_12h38.18.976,exp1,2023.1.0,60.13894501238615,
,,,,,,,,,,,,,,,,4,9.25,9.75,10.25,10.75,0,0.5,0.1,0.4,1.9000000000000001,10,initial,36.05,333,351,370,388,0,9,9,9,9,0,,,,,,,2,0,2,0,0,32,32,39,,,,,,,,,,,,num_4,0.9984343000687659,num_4,0.5,0.8,0.4,0.6,15.2822,22.9233,return,3.421255399938673,,,,,,,,,,,,,,,,,913,22,female,up_down_width,2024-10-22_12h38.18.976,exp1,2023.1.0,60.13894501238615,
,,,,,,,,,,,,,,,,4,9.25,9.75,10.25,10.75,0,0.5,0.1,0.4,1.9000000000000001,10,initial,36.05,333,351,370,388,0,9,9,9,9,0,,,,,,,2,0,2,0,0,33,33,41,,,,,,,,,,,,num_4,0.897289700107649,num_4,0.5,1.1,0.4,0.6,15.2822,22.9233,return,4.972076199948788,,,,,,,,,,,,,,,,,913,22,female,up_down_width,2024-10-22_12h38.18.976,exp1,2023.1.0,60.13894501238615,
,,,,,,,,,,,,,,,,3,9.5,10,10.5,0,0,0.5,0.1,0.4,1.4000000000000001,10,initial,36.05,342,361,379,0,0,9,9,9,0,0,,,,,,,2,0,2,0,0,34,34,3,,,,,,,,,,,,num_3,0.8787440001033247,num_3,0.35,0.9,0.44999999999999996,0.7,17.19248,26.74385,return,5.733271100092679,,,,,,,,,,,,,,,,,913,22,female,up_down_width,2024-10-22_12h38.18.976,exp1,2023.1.0,60.13894501238615,
,,,,,,,,,,,,,,,,3,9.5,10,10.5,0,0,0.5,0.1,0.4,1.4000000000000001,10,initial,36.05,342,361,379,0,0,9,9,9,0,0,,,,,,,2,0,2,0,0,35,35,30,,,,,,,,,,,,num_3,0.7531630999874324,num_3,0.2,1.3,0.44999999999999996,0.75,17.19248,28.65413,return,5.867703099967912,,,,,,,,,,,,,,,,,913,22,female,up_down_width,2024-10-22_12h38.18.976,exp1,2023.1.0,60.13894501238615,
,,,,,,,,,,,,,,,,3,9.5,10,10.5,0,0,0.5,0.1,0.4,1.4000000000000001,10,initial,36.05,342,361,379,0,0,9,9,9,0,0,,,,,,,2,0,2,0,0,36,36,2,,,,,,,,,,,,num_3,0.8206889000721276,num_3,0.5,1.2,0.45,0.65,17.19248,24.83358,return,4.993738800054416,,,,,,,,,,,,,,,,,913,22,female,up_down_width,2024-10-22_12h38.18.976,exp1,2023.1.0,60.13894501238615,
,,,,,,,,,,,,,,,,5,9,9.5,10,10.5,11,0.5,0.1,0.4,2.4,10,initial,36.05,324,342,361,379,397,9,9,9,9,9,,,,,,,2,0,2,0,0,37,37,22,,,,,,,,,,,,num_5,1.1061195998918265,num_5,0.35,1.1,0.39999999999999997,0.6,15.2822,22.9233,return,5.920692999847233,,,,,,,,,,,,,,,,,913,22,female,up_down_width,2024-10-22_12h38.18.976,exp1,2023.1.0,60.13894501238615,
,,,,,,,,,,,,,,,,3,9.5,10,10.5,0,0,0.5,0.1,0.4,1.4000000000000001,10,initial,36.05,342,361,379,0,0,9,9,9,0,0,,,,,,,2,0,2,0,0,38,38,4,,,,,,,,,,,,num_3,0.864767299965024,num_3,0.25,0.4,0.39999999999999997,0.6,15.2822,22.9233,return,6.429346600081772,,,,,,,,,,,,,,,,,913,22,female,up_down_width,2024-10-22_12h38.18.976,exp1,2023.1.0,60.13894501238615,
,,,,,,,,,,,,,,,,5,9,9.5,10,10.5,11,0.5,0.1,0.4,2.4,10,initial,36.05,324,342,361,379,397,9,9,9,9,9,,,,,,,2,0,2,0,0,39,39,45,,,,,,,,,,,,num_5,1.0619965998921543,num_5,0.45,0.9,0.45,0.65,17.19248,24.83358,return,3.6224900998640805,,,,,,,,,,,,,,,,,913,22,female,up_down_width,2024-10-22_12h38.18.976,exp1,2023.1.0,60.13894501238615,
,,,,,,,,,,,,,,,,5,9,9.5,10,10.5,11,0.5,0.1,0.4,2.4,10,initial,36.05,324,342,361,379,397,9,9,9,9,9,,,,,,,2,0,2,0,0,40,40,50,,,,,,,,,,,,num_5,1.0519306000787765,num_5,0.35,0.7,0.39999999999999997,0.55,15.2822,21.01303,return,6.159854899859056,,,,,,,,,,,,,,,,,913,22,female,up_down_width,2024-10-22_12h38.18.976,exp1,2023.1.0,60.13894501238615,
,,,,,,,,,,,,,,,,5,9,9.5,10,10.5,11,0.5,0.1,0.4,2.4,10,initial,36.05,324,342,361,379,397,9,9,9,9,9,,,,,,,2,0,2,0,0,41,41,48,,,,,,,,,,,,num_5,0.7805111999623477,num_5,0.25,1.0,0.39999999999999997,0.6,15.2822,22.9233,return,4.684805099852383,,,,,,,,,,,,,,,,,913,22,female,up_down_width,2024-10-22_12h38.18.976,exp1,2023.1.0,60.13894501238615,
,,,,,,,,,,,,,,,,3,9.5,10,10.5,0,0,0.5,0.1,0.4,1.4000000000000001,10,initial,36.05,342,361,379,0,0,9,9,9,0,0,,,,,,,2,0,2,0,0,42,42,28,,,,,,,,,,,,num_3,1.1084261999931186,num_3,0.5,1.3,0.4,0.65,15.2822,24.83358,return,5.463566800113767,,,,,,,,,,,,,,,,,913,22,female,up_down_width,2024-10-22_12h38.18.976,exp1,2023.1.0,60.13894501238615,
,,,,,,,,,,,,,,,,4,9.25,9.75,10.25,10.75,0,0.5,0.1,0.4,1.9000000000000001,10,initial,36.05,333,351,370,388,0,9,9,9,9,0,,,,,,,2,0,2,0,0,43,43,13,,,,,,,,,,,,num_4,0.9544508999679238,num_4,0.3,1.1,0.44999999999999996,0.6,17.19248,22.9233,return,8.851304300129414,,,,,,,,,,,,,,,,,913,22,female,up_down_width,2024-10-22_12h38.18.976,exp1,2023.1.0,60.13894501238615,
,,,,,,,,,,,,,,,,5,9,9.5,10,10.5,11,0.5,0.1,0.4,2.4,10,initial,36.05,324,342,361,379,397,9,9,9,9,9,,,,,,,2,0,2,0,0,44,44,20,,,,,,,,,,,,num_5,0.9040091000497341,num_5,0.4,0.9,0.45,0.6,17.19248,22.9233,return,4.851145799970254,,,,,,,,,,,,,,,,,913,22,female,up_down_width,2024-10-22_12h38.18.976,exp1,2023.1.0,60.13894501238615,
,,,,,,,,,,,,,,,,4,9.25,9.75,10.25,10.75,0,0.5,0.1,0.4,1.9000000000000001,10,initial,36.05,333,351,370,388,0,9,9,9,9,0,,,,,,,2,0,2,0,0,45,45,10,,,,,,,,,,,,num_4,0.7247512999456376,num_4,0.25,1.0,0.39999999999999997,0.7,15.2822,26.74385,return,6.447675199946389,,,,,,,,,,,,,,,,,913,22,female,up_down_width,2024-10-22_12h38.18.976,exp1,2023.1.0,60.13894501238615,
,,,,,,,,,,,,,,,,5,9,9.5,10,10.5,11,0.5,0.1,0.4,2.4,10,initial,36.05,324,342,361,379,397,9,9,9,9,9,,,,,,,2,0,2,0,0,46,46,21,,,,,,,,,,,,num_5,0.8074748998042196,num_5,0.25,0.6,0.44999999999999996,0.6,17.19248,22.9233,return,2.8052296999376267,,,,,,,,,,,,,,,,,913,22,female,up_down_width,2024-10-22_12h38.18.976,exp1,2023.1.0,60.13894501238615,
,,,,,,,,,,,,,,,,4,9.25,9.75,10.25,10.75,0,0.5,0.1,0.4,1.9000000000000001,10,initial,36.05,333,351,370,388,0,9,9,9,9,0,,,,,,,2,0,2,0,0,47,47,14,,,,,,,,,,,,num_4,0.7341696999501437,num_4,0.35,1.0,0.35,0.5,13.37193,19.10275,return,4.36396750016138,,,,,,,,,,,,,,,,,913,22,female,up_down_width,2024-10-22_12h38.18.976,exp1,2023.1.0,60.13894501238615,
,,,,,,,,,,,,,,,,4,9.25,9.75,10.25,10.75,0,0.5,0.1,0.4,1.9000000000000001,10,initial,36.05,333,351,370,388,0,9,9,9,9,0,,,,,,,2,0,2,0,0,48,48,36,,,,,,,,,,,,num_4,0.655051700072363,num_4,0.3,1.3,0.35,0.5,13.37193,19.10275,return,4.349524900084361,,,,,,,,,,,,,,,,,913,22,female,up_down_width,2024-10-22_12h38.18.976,exp1,2023.1.0,60.13894501238615,
,,,,,,,,,,,,,,,,3,9.5,10,10.5,0,0,0.5,0.1,0.4,1.4000000000000001,10,initial,36.05,342,361,379,0,0,9,9,9,0,0,,,,,,,2,0,2,0,0,49,49,32,,,,,,,,,,,,num_3,0.7662891000509262,num_3,0.3,1.3,0.25,0.5,9.55138,19.10275,return,5.721574099967256,,,,,,,,,,,,,,,,,913,22,female,up_down_width,2024-10-22_12h38.18.976,exp1,2023.1.0,60.13894501238615,
,,,,,,,,,,,,,,,,5,9,9.5,10,10.5,11,0.5,0.1,0.4,2.4,10,initial,36.05,324,342,361,379,397,9,9,9,9,9,,,,,,,2,0,2,0,0,50,50,49,,,,,,,,,,,,num_4,0.8227675000671297,num_4,0.35,0.4,0.39999999999999997,0.7,15.2822,26.74385,return,4.401687100064009,,,,,,,,,,,,,,,,,913,22,female,up_down_width,2024-10-22_12h38.18.976,exp1,2023.1.0,60.13894501238615,
,,,,,,,,,,,,,,,,4,9.25,9.75,10.25,10.75,0,0.5,0.1,0.4,1.9000000000000001,10,initial,36.05,333,351,370,388,0,9,9,9,9,0,,,,,,,2,0,2,0,0,51,51,12,,,,,,,,,,,,num_4,0.763491699937731,num_4,0.5,1.3,0.4,0.6,15.2822,22.9233,return,3.419793500099331,,,,,,,,,,,,,,,,,913,22,female,up_down_width,2024-10-22_12h38.18.976,exp1,2023.1.0,60.13894501238615,
,,,,,,,,,,,,,,,,5,9,9.5,10,10.5,11,0.5,0.1,0.4,2.4,10,initial,36.05,324,342,361,379,397,9,9,9,9,9,,,,,,,2,0,2,0,0,52,52,25,,,,,,,,,,,,num_5,0.9558483001310378,num_5,0.35,1.0,0.44999999999999996,0.65,17.19248,24.83358,return,3.7627608000766486,,,,,,,,,,,,,,,,,913,22,female,up_down_width,2024-10-22_12h38.18.976,exp1,2023.1.0,60.13894501238615,
,,,,,,,,,,,,,,,,3,9.5,10,10.5,0,0,0.5,0.1,0.4,1.4000000000000001,10,initial,36.05,342,361,379,0,0,9,9,9,0,0,,,,,,,2,0,2,0,0,53,53,35,,,,,,,,,,,,num_3,0.7843794000800699,num_3,0.55,0.6,0.45,0.6,17.19248,22.9233,return,1.9644903999287635,,,,,,,,,,,,,,,,,913,22,female,up_down_width,2024-10-22_12h38.18.976,exp1,2023.1.0,60.13894501238615,
,,,,,,,,,,,,,,,,,,,,,,,,,,,,,,,,,,,,,,,,,,,,,2,0,2,0,,,,,,,,,,,,,,,,,,,,,,,,,,,,,1511.4109153000172,1511.4109153000172,1511.4109153000172,,,,,,,,,,,,913,22,female,up_down_width,2024-10-22_12h38.18.976,exp1,2023.1.0,60.13894501238615,
,,,,,,,,,,,,,,,,5,9,9.5,10,10.5,11,0.5,0.25,0.25,2.25,10,initial,36.05,324,342,361,379,397,9,9,9,9,9,,,,,,,3,0,3,0,0,0,0,49,,,,,,,,,,,,num_6,2.3121150999795645,num_6,0.5,0.7,0.30000000000000004,0.6,11.46165,22.9233,return,3.285032599931583,,,,,,,,,,,,,,,,,913,22,female,up_down_width,2024-10-22_12h38.18.976,exp1,2023.1.0,60.13894501238615,
,,,,,,,,,,,,,,,,4,9.25,9.75,10.25,10.75,0,0.5,0.25,0.25,1.75,10,initial,36.05,333,351,370,388,0,9,9,9,9,0,,,,,,,3,0,3,0,0,1,1,41,,,,,,,,,,,,num_4,1.2325643000658602,num_4,0.45,0.8,0.35000000000000003,0.7,13.37193,26.74385,return,3.0505349000450224,,,,,,,,,,,,,,,,,913,22,female,up_down_width,2024-10-22_12h38.18.976,exp1,2023.1.0,60.13894501238615,
,,,,,,,,,,,,,,,,4,9.25,9.75,10.25,10.75,0,0.5,0.25,0.25,1.75,10,initial,36.05,333,351,370,388,0,9,9,9,9,0,,,,,,,3,0,3,0,0,2,2,36,,,,,,,,,,,,num_4,0.9293957999907434,num_4,0.45,0.7,0.30000000000000004,0.7,11.46165,26.74385,return,1.8342315000481904,,,,,,,,,,,,,,,,,913,22,female,up_down_width,2024-10-22_12h38.18.976,exp1,2023.1.0,60.13894501238615,
,,,,,,,,,,,,,,,,5,9,9.5,10,10.5,11,0.5,0.25,0.25,2.25,10,initial,36.05,324,342,361,379,397,9,9,9,9,9,,,,,,,3,0,3,0,0,3,3,50,,,,,,,,,,,,num_5,0.9019704000093043,num_5,0.2,0.3,0.25,0.75,9.55138,28.65413,return,3.4563750000670552,,,,,,,,,,,,,,,,,913,22,female,up_down_width,2024-10-22_12h38.18.976,exp1,2023.1.0,60.13894501238615,
,,,,,,,,,,,,,,,,3,9.5,10,10.5,0,0,0.5,0.25,0.25,1.25,10,initial,36.05,342,361,379,0,0,9,9,9,0,0,,,,,,,3,0,3,0,0,4,4,7,,,,,,,,,,,,num_3,1.0706992000341415,num_3,0.3,1,0.25,0.75,9.55138,28.65413,return,3.5066460999660194,,,,,,,,,,,,,,,,,913,22,female,up_down_width,2024-10-22_12h38.18.976,exp1,2023.1.0,60.13894501238615,
,,,,,,,,,,,,,,,,3,9.5,10,10.5,0,0,0.5,0.25,0.25,1.25,10,initial,36.05,342,361,379,0,0,9,9,9,0,0,,,,,,,3,0,3,0,0,5,5,6,,,,,,,,,,,,num_3,0.9154066999908537,num_3,0.55,1.1,0.25000000000000006,0.8,9.55138,30.5644,return,3.271738500101492,,,,,,,,,,,,,,,,,913,22,female,up_down_width,2024-10-22_12h38.18.976,exp1,2023.1.0,60.13894501238615,
,,,,,,,,,,,,,,,,4,9.25,9.75,10.25,10.75,0,0.5,0.25,0.25,1.75,10,initial,36.05,333,351,370,388,0,9,9,9,9,0,,,,,,,3,0,3,0,0,6,6,44,,,,,,,,,,,,num_4,0.840000499971211,num_4,0.25,1.3,0.2,0.6,7.6411,22.9233,return,4.276824099943042,,,,,,,,,,,,,,,,,913,22,female,up_down_width,2024-10-22_12h38.18.976,exp1,2023.1.0,60.13894501238615,
,,,,,,,,,,,,,,,,3,9.5,10,10.5,0,0,0.5,0.25,0.25,1.25,10,initial,36.05,342,361,379,0,0,9,9,9,0,0,,,,,,,3,0,3,0,0,7,7,2,,,,,,,,,,,,num_3,0.850907500134781,num_3,0.55,0.8,0.30000000000000004,0.8,11.46165,30.5644,return,2.3119045000057667,,,,,,,,,,,,,,,,,913,22,female,up_down_width,2024-10-22_12h38.18.976,exp1,2023.1.0,60.13894501238615,
,,,,,,,,,,,,,,,,5,9,9.5,10,10.5,11,0.5,0.25,0.25,2.25,10,initial,36.05,324,342,361,379,397,9,9,9,9,9,,,,,,,3,0,3,0,0,8,8,22,,,,,,,,,,,,num_5,1.0473885999526829,num_5,0.55,1.3,0.25000000000000006,0.7,9.55138,26.74385,return,5.463687400100753,,,,,,,,,,,,,,,,,913,22,female,up_down_width,2024-10-22_12h38.18.976,exp1,2023.1.0,60.13894501238615,
,,,,,,,,,,,,,,,,5,9,9.5,10,10.5,11,0.5,0.25,0.25,2.25,10,initial,36.05,324,342,361,379,397,9,9,9,9,9,,,,,,,3,0,3,0,0,9,9,26,,,,,,,,,,,,num_5,0.8091883000452071,num_5,0.55,1.2,0.20000000000000007,0.8,7.6411,30.5644,return,4.226395900128409,,,,,,,,,,,,,,,,,913,22,female,up_down_width,2024-10-22_12h38.18.976,exp1,2023.1.0,60.13894501238615,
,,,,,,,,,,,,,,,,5,9,9.5,10,10.5,11,0.5,0.25,0.25,2.25,10,initial,36.05,324,342,361,379,397,9,9,9,9,9,,,,,,,3,0,3,0,0,10,10,53,,,,,,,,,,,,num_5,0.8916644998826087,num_5,0.25,0.6,0.2,0.6,7.6411,22.9233,return,1.8141351002268493,,,,,,,,,,,,,,,,,913,22,female,up_down_width,2024-10-22_12h38.18.976,exp1,2023.1.0,60.13894501238615,
,,,,,,,,,,,,,,,,5,9,9.5,10,10.5,11,0.5,0.25,0.25,2.25,10,initial,36.05,324,342,361,379,397,9,9,9,9,9,,,,,,,3,0,3,0,0,11,11,47,,,,,,,,,,,,num_4,0.7682844998780638,num_4,0.3,1.0,0.2,0.6,7.6411,22.9233,return,4.009405100019649,,,,,,,,,,,,,,,,,913,22,female,up_down_width,2024-10-22_12h38.18.976,exp1,2023.1.0,60.13894501238615,
,,,,,,,,,,,,,,,,4,9.25,9.75,10.25,10.75,0,0.5,0.25,0.25,1.75,10,initial,36.05,333,351,370,388,0,9,9,9,9,0,,,,,,,3,0,3,0,0,12,12,37,,,,,,,,,,,,num_4,0.8924365001730621,num_4,0.5,1.1,0.30000000000000004,0.9,11.46165,34.38495,return,3.2523044000845402,,,,,,,,,,,,,,,,,913,22,female,up_down_width,2024-10-22_12h38.18.976,exp1,2023.1.0,60.13894501238615,
,,,,,,,,,,,,,,,,4,9.25,9.75,10.25,10.75,0,0.5,0.25,0.25,1.75,10,initial,36.05,333,351,370,388,0,9,9,9,9,0,,,,,,,3,0,3,0,0,13,13,10,,,,,,,,,,,,num_4,0.7535735999699682,num_4,0.3,0.9,0.2,0.5,7.6411,19.10275,return,2.795920900069177,,,,,,,,,,,,,,,,,913,22,female,up_down_width,2024-10-22_12h38.18.976,exp1,2023.1.0,60.13894501238615,
,,,,,,,,,,,,,,,,3,9.5,10,10.5,0,0,0.5,0.25,0.25,1.25,10,initial,36.05,342,361,379,0,0,9,9,9,0,0,,,,,,,3,0,3,0,0,14,14,34,,,,,,,,,,,,num_3,1.253901300020516,num_3,0.3,0.9,0.25,0.9,9.55138,34.38495,return,2.1153058998752385,,,,,,,,,,,,,,,,,913,22,female,up_down_width,2024-10-22_12h38.18.976,exp1,2023.1.0,60.13894501238615,
,,,,,,,,,,,,,,,,3,9.5,10,10.5,0,0,0.5,0.25,0.25,1.25,10,initial,36.05,342,361,379,0,0,9,9,9,0,0,,,,,,,3,0,3,0,0,15,15,1,,,,,,,,,,,,num_3,0.8154591999482363,num_3,0.4,1,0.25000000000000006,0.75,9.55138,28.65413,return,3.25231959996745,,,,,,,,,,,,,,,,,913,22,female,up_down_width,2024-10-22_12h38.18.976,exp1,2023.1.0,60.13894501238615,
,,,,,,,,,,,,,,,,4,9.25,9.75,10.25,10.75,0,0.5,0.25,0.25,1.75,10,initial,36.05,333,351,370,388,0,9,9,9,9,0,,,,,,,3,0,3,0,0,16,16,16,,,,,,,,,,,,num_4,0.8199427998624742,num_4,0.45,0.8,0.25000000000000006,0.6,9.55138,22.9233,return,3.3887797000352293,,,,,,,,,,,,,,,,,913,22,female,up_down_width,2024-10-22_12h38.18.976,exp1,2023.1.0,60.13894501238615,
,,,,,,,,,,,,,,,,4,9.25,9.75,10.25,10.75,0,0.5,0.25,0.25,1.75,10,initial,36.05,333,351,370,388,0,9,9,9,9,0,,,,,,,3,0,3,0,0,17,17,38,,,,,,,,,,,,num_4,0.8884817000944167,num_4,0.55,0.8,0.25000000000000006,0.5,9.55138,19.10275,return,2.9726015001069754,,,,,,,,,,,,,,,,,913,22,female,up_down_width,2024-10-22_12h38.18.976,exp1,2023.1.0,60.13894501238615,
,,,,,,,,,,,,,,,,5,9,9.5,10,10.5,11,0.5,0.25,0.25,2.25,10,initial,36.05,324,342,361,379,397,9,9,9,9,9,,,,,,,3,0,3,0,0,18,18,21,,,,,,,,,,,,num_5,0.8450508001260459,num_5,0.45,1.1,0.20000000000000007,0.65,7.6411,24.83358,return,3.641990999924019,,,,,,,,,,,,,,,,,913,22,female,up_down_width,2024-10-22_12h38.18.976,exp1,2023.1.0,60.13894501238615,
,,,,,,,,,,,,,,,,4,9.25,9.75,10.25,10.75,0,0.5,0.25,0.25,1.75,10,initial,36.05,333,351,370,388,0,9,9,9,9,0,,,,,,,3,0,3,0,0,19,19,12,,,,,,,,,,,,num_4,0.8904079999774694,num_4,0.45,0.8,0.25000000000000006,0.5,9.55138,19.10275,return,2.9010894999373704,,,,,,,,,,,,,,,,,913,22,female,up_down_width,2024-10-22_12h38.18.976,exp1,2023.1.0,60.13894501238615,
,,,,,,,,,,,,,,,,4,9.25,9.75,10.25,10.75,0,0.5,0.25,0.25,1.75,10,initial,36.05,333,351,370,388,0,9,9,9,9,0,,,,,,,3,0,3,0,0,20,20,39,,,,,,,,,,,,num_4,0.7865116999018937,num_4,0.2,0.4,0.2,0.7,7.6411,26.74385,return,2.5615715000312775,,,,,,,,,,,,,,,,,913,22,female,up_down_width,2024-10-22_12h38.18.976,exp1,2023.1.0,60.13894501238615,
,,,,,,,,,,,,,,,,3,9.5,10,10.5,0,0,0.5,0.25,0.25,1.25,10,initial,36.05,342,361,379,0,0,9,9,9,0,0,,,,,,,3,0,3,0,0,21,21,0,,,,,,,,,,,,num_3,1.0772939000744373,num_3,0.2,0.5,0.3,0.55,11.46165,21.01303,return,4.67784360004589,,,,,,,,,,,,,,,,,913,22,female,up_down_width,2024-10-22_12h38.18.976,exp1,2023.1.0,60.13894501238615,
,,,,,,,,,,,,,,,,5,9,9.5,10,10.5,11,0.5,0.25,0.25,2.25,10,initial,36.05,324,342,361,379,397,9,9,9,9,9,,,,,,,3,0,3,0,0,22,22,51,,,,,,,,,,,,num_5,0.758966000052169,num_5,0.4,0.8,0.25000000000000006,0.7,9.55138,26.74385,return,2.9155564999673516,,,,,,,,,,,,,,,,,913,22,female,up_down_width,2024-10-22_12h38.18.976,exp1,2023.1.0,60.13894501238615,
,,,,,,,,,,,,,,,,3,9.5,10,10.5,0,0,0.5,0.25,0.25,1.25,10,initial,36.05,342,361,379,0,0,9,9,9,0,0,,,,,,,3,0,3,0,0,23,23,5,,,,,,,,,,,,num_3,0.780704400036484,num_3,0.35,0.4,0.3,0.55,11.46165,21.01303,return,3.6059940000995994,,,,,,,,,,,,,,,,,913,22,female,up_down_width,2024-10-22_12h38.18.976,exp1,2023.1.0,60.13894501238615,
,,,,,,,,,,,,,,,,3,9.5,10,10.5,0,0,0.5,0.25,0.25,1.25,10,initial,36.05,342,361,379,0,0,9,9,9,0,0,,,,,,,3,0,3,0,0,24,24,30,,,,,,,,,,,,num_3,1.235704299993813,num_3,0.55,1,0.25000000000000006,0.65,9.55138,24.83358,return,3.5027034000959247,,,,,,,,,,,,,,,,,913,22,female,up_down_width,2024-10-22_12h38.18.976,exp1,2023.1.0,60.13894501238615,
,,,,,,,,,,,,,,,,5,9,9.5,10,10.5,11,0.5,0.25,0.25,2.25,10,initial,36.05,324,342,361,379,397,9,9,9,9,9,,,,,,,3,0,3,0,0,25,25,23,,,,,,,,,,,,num_4,1.0747277000918984,num_4,0.4,0.5,0.25000000000000006,0.5,9.55138,19.10275,return,1.6674876001197845,,,,,,,,,,,,,,,,,913,22,female,up_down_width,2024-10-22_12h38.18.976,exp1,2023.1.0,60.13894501238615,
,,,,,,,,,,,,,,,,4,9.25,9.75,10.25,10.75,0,0.5,0.25,0.25,1.75,10,initial,36.05,333,351,370,388,0,9,9,9,9,0,,,,,,,3,0,3,0,0,26,26,40,,,,,,,,,,,,num_4,0.9250396999996156,num_4,0.35,1.3,0.2,0.6,7.6411,22.9233,return,4.246551600052044,,,,,,,,,,,,,,,,,913,22,female,up_down_width,2024-10-22_12h38.18.976,exp1,2023.1.0,60.13894501238615,
,,,,,,,,,,,,,,,,4,9.25,9.75,10.25,10.75,0,0.5,0.25,0.25,1.75,10,initial,36.05,333,351,370,388,0,9,9,9,9,0,,,,,,,3,0,3,0,0,27,27,43,,,,,,,,,,,,num_4,1.1779370000585914,num_4,0.2,0.3,0.3,0.6,11.46165,22.9233,return,4.215629799989983,,,,,,,,,,,,,,,,,913,22,female,up_down_width,2024-10-22_12h38.18.976,exp1,2023.1.0,60.13894501238615,
,,,,,,,,,,,,,,,,5,9,9.5,10,10.5,11,0.5,0.25,0.25,2.25,10,initial,36.05,324,342,361,379,397,9,9,9,9,9,,,,,,,3,0,3,0,0,28,28,48,,,,,,,,,,,,num_5,0.8537450002040714,num_5,0.2,1.3,0.3,0.6,11.46165,22.9233,return,7.329143499955535,,,,,,,,,,,,,,,,,913,22,female,up_down_width,2024-10-22_12h38.18.976,exp1,2023.1.0,60.13894501238615,
,,,,,,,,,,,,,,,,3,9.5,10,10.5,0,0,0.5,0.25,0.25,1.25,10,initial,36.05,342,361,379,0,0,9,9,9,0,0,,,,,,,3,0,3,0,0,29,29,27,,,,,,,,,,,,num_3,1.1570874000899494,num_3,0.35,0.9,0.25,0.85,9.55138,32.47468,return,2.272976100211963,,,,,,,,,,,,,,,,,913,22,female,up_down_width,2024-10-22_12h38.18.976,exp1,2023.1.0,60.13894501238615,
,,,,,,,,,,,,,,,,3,9.5,10,10.5,0,0,0.5,0.25,0.25,1.25,10,initial,36.05,342,361,379,0,0,9,9,9,0,0,,,,,,,3,0,3,0,0,30,30,29,,,,,,,,,,,,num_3,0.9613425999414176,num_3,0.25,1,0.35,0.6,13.37193,22.9233,return,4.294205300044268,,,,,,,,,,,,,,,,,913,22,female,up_down_width,2024-10-22_12h38.18.976,exp1,2023.1.0,60.13894501238615,
,,,,,,,,,,,,,,,,5,9,9.5,10,10.5,11,0.5,0.25,0.25,2.25,10,initial,36.05,324,342,361,379,397,9,9,9,9,9,,,,,,,3,0,3,0,0,31,31,45,,,,,,,,,,,,num_5,0.7978531001135707,num_5,0.35,1.0,0.25,0.65,9.55138,24.83358,return,3.0972782999742776,,,,,,,,,,,,,,,,,913,22,female,up_down_width,2024-10-22_12h38.18.976,exp1,2023.1.0,60.13894501238615,
,,,,,,,,,,,,,,,,5,9,9.5,10,10.5,11,0.5,0.25,0.25,2.25,10,initial,36.05,324,342,361,379,397,9,9,9,9,9,,,,,,,3,0,3,0,0,32,32,25,,,,,,,,,,,,num_5,0.8255340000614524,num_5,0.45,0.6,0.30000000000000004,0.6,11.46165,22.9233,return,2.0663272000383586,,,,,,,,,,,,,,,,,913,22,female,up_down_width,2024-10-22_12h38.18.976,exp1,2023.1.0,60.13894501238615,
,,,,,,,,,,,,,,,,3,9.5,10,10.5,0,0,0.5,0.25,0.25,1.25,10,initial,36.05,342,361,379,0,0,9,9,9,0,0,,,,,,,3,0,3,0,0,33,33,33,,,,,,,,,,,,num_3,0.8206730000674725,num_3,0.55,1.1,0.25000000000000006,0.65,9.55138,24.83358,return,4.17650970001705,,,,,,,,,,,,,,,,,913,22,female,up_down_width,2024-10-22_12h38.18.976,exp1,2023.1.0,60.13894501238615,
,,,,,,,,,,,,,,,,3,9.5,10,10.5,0,0,0.5,0.25,0.25,1.25,10,initial,36.05,342,361,379,0,0,9,9,9,0,0,,,,,,,3,0,3,0,0,34,34,3,,,,,,,,,,,,num_3,0.7610726000275463,num_3,0.5,1.2,0.20000000000000007,0.55,7.6411,21.01303,return,5.331932700006291,,,,,,,,,,,,,,,,,913,22,female,up_down_width,2024-10-22_12h38.18.976,exp1,2023.1.0,60.13894501238615,
,,,,,,,,,,,,,,,,4,9.25,9.75,10.25,10.75,0,0.5,0.25,0.25,1.75,10,initial,36.05,333,351,370,388,0,9,9,9,9,0,,,,,,,3,0,3,0,0,35,35,15,,,,,,,,,,,,num_4,0.7755970999132842,num_4,0.2,0.3,0.25,0.6,9.55138,22.9233,return,2.7271272998768836,,,,,,,,,,,,,,,,,913,22,female,up_down_width,2024-10-22_12h38.18.976,exp1,2023.1.0,60.13894501238615,
,,,,,,,,,,,,,,,,4,9.25,9.75,10.25,10.75,0,0.5,0.25,0.25,1.75,10,initial,36.05,333,351,370,388,0,9,9,9,9,0,,,,,,,3,0,3,0,0,36,36,17,,,,,,,,,,,,num_4,0.8493164000101388,num_4,0.45,1.2,0.25000000000000006,0.7,9.55138,26.74385,return,4.047036499949172,,,,,,,,,,,,,,,,,913,22,female,up_down_width,2024-10-22_12h38.18.976,exp1,2023.1.0,60.13894501238615,
,,,,,,,,,,,,,,,,4,9.25,9.75,10.25,10.75,0,0.5,0.25,0.25,1.75,10,initial,36.05,333,351,370,388,0,9,9,9,9,0,,,,,,,3,0,3,0,0,37,37,14,,,,,,,,,,,,num_4,0.7018854999914765,num_4,0.3,0.6,0.25,0.7,9.55138,26.74385,return,3.5010756999254227,,,,,,,,,,,,,,,,,913,22,female,up_down_width,2024-10-22_12h38.18.976,exp1,2023.1.0,60.13894501238615,
,,,,,,,,,,,,,,,,3,9.5,10,10.5,0,0,0.5,0.25,0.25,1.25,10,initial,36.05,342,361,379,0,0,9,9,9,0,0,,,,,,,3,0,3,0,0,38,38,8,,,,,,,,,,,,num_3,0.8169774999842048,num_3,0.4,0.9,0.30000000000000004,0.75,11.46165,28.65413,return,3.6754142998252064,,,,,,,,,,,,,,,,,913,22,female,up_down_width,2024-10-22_12h38.18.976,exp1,2023.1.0,60.13894501238615,
,,,,,,,,,,,,,,,,5,9,9.5,10,10.5,11,0.5,0.25,0.25,2.25,10,initial,36.05,324,342,361,379,397,9,9,9,9,9,,,,,,,3,0,3,0,0,39,39,24,,,,,,,,,,,,num_4,0.8325330999214202,num_4,0.3,0.6,0.3,0.7,11.46165,26.74385,return,3.802138200029731,,,,,,,,,,,,,,,,,913,22,female,up_down_width,2024-10-22_12h38.18.976,exp1,2023.1.0,60.13894501238615,
,,,,,,,,,,,,,,,,3,9.5,10,10.5,0,0,0.5,0.25,0.25,1.25,10,initial,36.05,342,361,379,0,0,9,9,9,0,0,,,,,,,3,0,3,0,0,40,40,31,,,,,,,,,,,,num_3,1.1110357001889497,num_3,0.4,0.7,0.30000000000000004,0.7,11.46165,26.74385,return,1.5086602000519633,,,,,,,,,,,,,,,,,913,22,female,up_down_width,2024-10-22_12h38.18.976,exp1,2023.1.0,60.13894501238615,
,,,,,,,,,,,,,,,,5,9,9.5,10,10.5,11,0.5,0.25,0.25,2.25,10,initial,36.05,324,342,361,379,397,9,9,9,9,9,,,,,,,3,0,3,0,0,41,41,52,,,,,,,,,,,,num_4,1.599667300004512,num_4,0.25,1.2,0.25,0.5,9.55138,19.10275,return,2.9219876001589,,,,,,,,,,,,,,,,,913,22,female,up_down_width,2024-10-22_12h38.18.976,exp1,2023.1.0,60.13894501238615,
,,,,,,,,,,,,,,,,5,9,9.5,10,10.5,11,0.5,0.25,0.25,2.25,10,initial,36.05,324,342,361,379,397,9,9,9,9,9,,,,,,,3,0,3,0,0,42,42,20,,,,,,,,,,,,num_5,0.7818189999088645,num_5,0.25,0.4,0.3,0.65,11.46165,24.83358,return,3.2113268000539392,,,,,,,,,,,,,,,,,913,22,female,up_down_width,2024-10-22_12h38.18.976,exp1,2023.1.0,60.13894501238615,
,,,,,,,,,,,,,,,,5,9,9.5,10,10.5,11,0.5,0.25,0.25,2.25,10,initial,36.05,324,342,361,379,397,9,9,9,9,9,,,,,,,3,0,3,0,0,43,43,46,,,,,,,,,,,,num_5,0.7586083000060171,num_5,0.25,0.5,0.3,0.65,11.46165,24.83358,return,4.576515699969605,,,,,,,,,,,,,,,,,913,22,female,up_down_width,2024-10-22_12h38.18.976,exp1,2023.1.0,60.13894501238615,
,,,,,,,,,,,,,,,,3,9.5,10,10.5,0,0,0.5,0.25,0.25,1.25,10,initial,36.05,342,361,379,0,0,9,9,9,0,0,,,,,,,3,0,3,0,0,44,44,35,,,,,,,,,,,,num_2,0.8056982001289725,num_2,0.2,0.8,0.2,0.5,7.6411,19.10275,return,2.8375319000333548,,,,,,,,,,,,,,,,,913,22,female,up_down_width,2024-10-22_12h38.18.976,exp1,2023.1.0,60.13894501238615,
,,,,,,,,,,,,,,,,4,9.25,9.75,10.25,10.75,0,0.5,0.25,0.25,1.75,10,initial,36.05,333,351,370,388,0,9,9,9,9,0,,,,,,,3,0,3,0,0,45,45,9,,,,,,,,,,,,num_5,0.7955169000197202,num_5,0.2,0.3,0.2,0.75,7.6411,28.65413,return,3.0936197000555694,,,,,,,,,,,,,,,,,913,22,female,up_down_width,2024-10-22_12h38.18.976,exp1,2023.1.0,60.13894501238615,
,,,,,,,,,,,,,,,,5,9,9.5,10,10.5,11,0.5,0.25,0.25,2.25,10,initial,36.05,324,342,361,379,397,9,9,9,9,9,,,,,,,3,0,3,0,0,46,46,19,,,,,,,,,,,,num_5,0.8800538999494165,num_5,0.4,1.1,0.25000000000000006,0.9,9.55138,34.38495,return,2.327490699943155,,,,,,,,,,,,,,,,,913,22,female,up_down_width,2024-10-22_12h38.18.976,exp1,2023.1.0,60.13894501238615,
,,,,,,,,,,,,,,,,4,9.25,9.75,10.25,10.75,0,0.5,0.25,0.25,1.75,10,initial,36.05,333,351,370,388,0,9,9,9,9,0,,,,,,,3,0,3,0,0,47,47,42,,,,,,,,,,,,num_4,0.8493544000666589,num_4,0.4,1.3,0.30000000000000004,0.6,11.46165,22.9233,return,2.6335285000968724,,,,,,,,,,,,,,,,,913,22,female,up_down_width,2024-10-22_12h38.18.976,exp1,2023.1.0,60.13894501238615,
,,,,,,,,,,,,,,,,5,9,9.5,10,10.5,11,0.5,0.25,0.25,2.25,10,initial,36.05,324,342,361,379,397,9,9,9,9,9,,,,,,,3,0,3,0,0,48,48,18,,,,,,,,,,,,num_5,0.8239688000176102,num_5,0.4,0.9,0.25000000000000006,0.65,9.55138,24.83358,return,2.6810343000106514,,,,,,,,,,,,,,,,,913,22,female,up_down_width,2024-10-22_12h38.18.976,exp1,2023.1.0,60.13894501238615,
,,,,,,,,,,,,,,,,3,9.5,10,10.5,0,0,0.5,0.25,0.25,1.25,10,initial,36.05,342,361,379,0,0,9,9,9,0,0,,,,,,,3,0,3,0,0,49,49,4,,,,,,,,,,,,num_3,0.9035443998873234,num_3,0.25,0.6,0.2,0.55,7.6411,21.01303,return,1.7776785001624376,,,,,,,,,,,,,,,,,913,22,female,up_down_width,2024-10-22_12h38.18.976,exp1,2023.1.0,60.13894501238615,
,,,,,,,,,,,,,,,,4,9.25,9.75,10.25,10.75,0,0.5,0.25,0.25,1.75,10,initial,36.05,333,351,370,388,0,9,9,9,9,0,,,,,,,3,0,3,0,0,50,50,13,,,,,,,,,,,,num_4,0.8406703001819551,num_4,0.2,1.0,0.2,0.5,7.6411,19.10275,return,2.448338699992746,,,,,,,,,,,,,,,,,913,22,female,up_down_width,2024-10-22_12h38.18.976,exp1,2023.1.0,60.13894501238615,
,,,,,,,,,,,,,,,,3,9.5,10,10.5,0,0,0.5,0.25,0.25,1.25,10,initial,36.05,342,361,379,0,0,9,9,9,0,0,,,,,,,3,0,3,0,0,51,51,28,,,,,,,,,,,,num_3,0.9449935001321137,num_3,0.2,0.7,0.25,0.65,9.55138,24.83358,return,3.3963011000305414,,,,,,,,,,,,,,,,,913,22,female,up_down_width,2024-10-22_12h38.18.976,exp1,2023.1.0,60.13894501238615,
,,,,,,,,,,,,,,,,3,9.5,10,10.5,0,0,0.5,0.25,0.25,1.25,10,initial,36.05,342,361,379,0,0,9,9,9,0,0,,,,,,,3,0,3,0,0,52,52,32,,,,,,,,,,,,num_3,0.7617687999736518,num_3,0.3,0.6,0.25,0.6,9.55138,22.9233,return,1.5404012999497354,,,,,,,,,,,,,,,,,913,22,female,up_down_width,2024-10-22_12h38.18.976,exp1,2023.1.0,60.13894501238615,
,,,,,,,,,,,,,,,,4,9.25,9.75,10.25,10.75,0,0.5,0.25,0.25,1.75,10,initial,36.05,333,351,370,388,0,9,9,9,9,0,,,,,,,3,0,3,0,0,53,53,11,,,,,,,,,,,,num_4,0.7933811000548303,num_4,0.55,0.6,0.35000000000000003,0.6,13.37193,22.9233,return,1.830214599845931,,,,,,,,,,,,,,,,,913,22,female,up_down_width,2024-10-22_12h38.18.976,exp1,2023.1.0,60.13894501238615,
,,,,,,,,,,,,,,,,,,,,,,,,,,,,,,,,,,,,,,,,,,,,,3,0,3,0,,,,,,,,,,,,,,,,,,,,,,,,,,,,,1833.4435821999796,1833.4435821999796,1833.4435821999796,,,,,,,,,,,,913,22,female,up_down_width,2024-10-22_12h38.18.976,exp1,2023.1.0,60.13894501238615,
,,,,,,,,,,,,,,,,5,8.2,9.1,10,10.9,11.8,0.9,0.35,0.55,4.15,10,initial,36.05,296,328,361,393,425,9,9,9,9,9,,,,,,,4,0,4,0,0,0,0,19,,,,,,,,,,,,num_4,1.512212899979204,num_4,0.55,1.1,0.6000000000000001,1.1,22.9233,42.02605,return,2.5170154001098126,,,,,,,,,,,,,,,,,913,22,female,up_down_width,2024-10-22_12h38.18.976,exp1,2023.1.0,60.13894501238615,
,,,,,,,,,,,,,,,,4,8.65,9.55,10.45,11.35,0,0.9,0.35,0.55,3.25,10,initial,36.05,312,344,377,409,0,9,9,9,9,0,,,,,,,4,0,4,0,0,1,1,17,,,,,,,,,,,,num_3,1.4812994000967592,num_3,0.2,0.4,0.6,1.0,22.9233,38.2055,return,10.571879599941894,,,,,,,,,,,,,,,,,913,22,female,up_down_width,2024-10-22_12h38.18.976,exp1,2023.1.0,60.13894501238615,
,,,,,,,,,,,,,,,,5,8.2,9.1,10,10.9,11.8,0.9,0.35,0.55,4.15,10,initial,36.05,296,328,361,393,425,9,9,9,9,9,,,,,,,4,0,4,0,0,2,2,21,,,,,,,,,,,,num_5,0.9662491001654416,num_5,0.2,0.6,0.5499999999999999,1.05,21.01303,40.11578,return,4.1076107998378575,,,,,,,,,,,,,,,,,913,22,female,up_down_width,2024-10-22_12h38.18.976,exp1,2023.1.0,60.13894501238615,
,,,,,,,,,,,,,,,,4,8.65,9.55,10.45,11.35,0,0.9,0.35,0.55,3.25,10,initial,36.05,312,344,377,409,0,9,9,9,9,0,,,,,,,4,0,4,0,0,3,3,37,,,,,,,,,,,,num_4,0.8993410000111908,num_4,0.35,0.6,0.65,1.4,24.83358,53.48771,return,3.3717382999602705,,,,,,,,,,,,,,,,,913,22,female,up_down_width,2024-10-22_12h38.18.976,exp1,2023.1.0,60.13894501238615,
,,,,,,,,,,,,,,,,4,8.65,9.55,10.45,11.35,0,0.9,0.35,0.55,3.25,10,initial,36.05,312,344,377,409,0,9,9,9,9,0,,,,,,,4,0,4,0,0,4,4,41,,,,,,,,,,,,num_4,0.9326745998114347,num_4,0.45,0.9,0.6000000000000001,1.1,22.9233,42.02605,return,2.6880686001386493,,,,,,,,,,,,,,,,,913,22,female,up_down_width,2024-10-22_12h38.18.976,exp1,2023.1.0,60.13894501238615,
,,,,,,,,,,,,,,,,5,8.2,9.1,10,10.9,11.8,0.9,0.35,0.55,4.15,10,initial,36.05,296,328,361,393,425,9,9,9,9,9,,,,,,,4,0,4,0,0,5,5,25,,,,,,,,,,,,num_5,0.8710042000748217,num_5,0.25,0.7,0.5499999999999999,0.9,21.01303,34.38495,return,2.945815899875015,,,,,,,,,,,,,,,,,913,22,female,up_down_width,2024-10-22_12h38.18.976,exp1,2023.1.0,60.13894501238615,
,,,,,,,,,,,,,,,,5,8.2,9.1,10,10.9,11.8,0.9,0.35,0.55,4.15,10,initial,36.05,296,328,361,393,425,9,9,9,9,9,,,,,,,4,0,4,0,0,6,6,47,,,,,,,,,,,,num_5,0.829171100165695,num_5,0.4,0.7,0.6500000000000001,1.05,24.83358,40.11578,return,3.9326361001003534,,,,,,,,,,,,,,,,,913,22,female,up_down_width,2024-10-22_12h38.18.976,exp1,2023.1.0,60.13894501238615,
,,,,,,,,,,,,,,,,4,8.65,9.55,10.45,11.35,0,0.9,0.35,0.55,3.25,10,initial,36.05,312,344,377,409,0,9,9,9,9,0,,,,,,,4,0,4,0,0,7,7,11,,,,,,,,,,,,num_4,0.8604557001963258,num_4,0.55,0.6,0.7000000000000002,1.2,26.74385,45.8466,return,3.2343252000864595,,,,,,,,,,,,,,,,,913,22,female,up_down_width,2024-10-22_12h38.18.976,exp1,2023.1.0,60.13894501238615,
,,,,,,,,,,,,,,,,3,9.1,10,10.9,0,0,0.9,0.35,0.55,2.35,10,initial,36.05,328,361,393,0,0,9,9,9,0,0,,,,,,,4,0,4,0,0,8,8,1,,,,,,,,,,,,num_3,0.8196205000858754,num_3,0.2,0.6,0.49999999999999994,0.75,19.10275,28.65413,return,2.6094125998206437,,,,,,,,,,,,,,,,,913,22,female,up_down_width,2024-10-22_12h38.18.976,exp1,2023.1.0,60.13894501238615,
,,,,,,,,,,,,,,,,3,9.1,10,10.9,0,0,0.9,0.35,0.55,2.35,10,initial,36.05,328,361,393,0,0,9,9,9,0,0,,,,,,,4,0,4,0,0,9,9,4,,,,,,,,,,,,num_3,0.8130286000669003,num_3,0.35,0.7,0.5499999999999999,0.8,21.01303,30.5644,return,2.5806135998573154,,,,,,,,,,,,,,,,,913,22,female,up_down_width,2024-10-22_12h38.18.976,exp1,2023.1.0,60.13894501238615,
,,,,,,,,,,,,,,,,3,9.1,10,10.9,0,0,0.9,0.35,0.55,2.35,10,initial,36.05,328,361,393,0,0,9,9,9,0,0,,,,,,,4,0,4,0,0,10,10,30,,,,,,,,,,,,num_3,0.8935491999145597,num_3,0.4,1.1,0.4,0.8,15.2822,30.5644,return,4.232554299989715,,,,,,,,,,,,,,,,,913,22,female,up_down_width,2024-10-22_12h38.18.976,exp1,2023.1.0,60.13894501238615,
,,,,,,,,,,,,,,,,3,9.1,10,10.9,0,0,0.9,0.35,0.55,2.35,10,initial,36.05,328,361,393,0,0,9,9,9,0,0,,,,,,,4,0,4,0,0,11,11,31,,,,,,,,,,,,num_3,0.8603698001243174,num_3,0.3,0.6,0.49999999999999994,0.8,19.10275,30.5644,return,2.6491312000434846,,,,,,,,,,,,,,,,,913,22,female,up_down_width,2024-10-22_12h38.18.976,exp1,2023.1.0,60.13894501238615,
,,,,,,,,,,,,,,,,4,8.65,9.55,10.45,11.35,0,0.9,0.35,0.55,3.25,10,initial,36.05,312,344,377,409,0,9,9,9,9,0,,,,,,,4,0,4,0,0,12,12,14,,,,,,,,,,,,num_4,0.8664829998742789,num_4,0.3,0.7,0.6,1.0,22.9233,38.2055,return,2.399297900032252,,,,,,,,,,,,,,,,,913,22,female,up_down_width,2024-10-22_12h38.18.976,exp1,2023.1.0,60.13894501238615,
,,,,,,,,,,,,,,,,5,8.2,9.1,10,10.9,11.8,0.9,0.35,0.55,4.15,10,initial,36.05,296,328,361,393,425,9,9,9,9,9,,,,,,,4,0,4,0,0,13,13,50,,,,,,,,,,,,num_5,0.8726463001221418,num_5,0.2,0.6,0.49999999999999994,0.75,19.10275,28.65413,return,3.156547399936244,,,,,,,,,,,,,,,,,913,22,female,up_down_width,2024-10-22_12h38.18.976,exp1,2023.1.0,60.13894501238615,
,,,,,,,,,,,,,,,,5,8.2,9.1,10,10.9,11.8,0.9,0.35,0.55,4.15,10,initial,36.05,296,328,361,393,425,9,9,9,9,9,,,,,,,4,0,4,0,0,14,14,46,,,,,,,,,,,,num_5,0.8958161000628024,num_5,0.3,0.8,0.6,0.9,22.9233,34.38495,return,3.011519500054419,,,,,,,,,,,,,,,,,913,22,female,up_down_width,2024-10-22_12h38.18.976,exp1,2023.1.0,60.13894501238615,
,,,,,,,,,,,,,,,,3,9.1,10,10.9,0,0,0.9,0.35,0.55,2.35,10,initial,36.05,328,361,393,0,0,9,9,9,0,0,,,,,,,4,0,4,0,0,15,15,6,,,,,,,,,,,,num_3,0.8846472001168877,num_3,0.35,1.2,0.5499999999999999,0.9,21.01303,34.38495,return,3.0199709001462907,,,,,,,,,,,,,,,,,913,22,female,up_down_width,2024-10-22_12h38.18.976,exp1,2023.1.0,60.13894501238615,
,,,,,,,,,,,,,,,,3,9.1,10,10.9,0,0,0.9,0.35,0.55,2.35,10,initial,36.05,328,361,393,0,0,9,9,9,0,0,,,,,,,4,0,4,0,0,16,16,7,,,,,,,,,,,,num_3,0.8148481000680476,num_3,0.3,1.2,0.49999999999999994,0.85,19.10275,32.47468,return,3.372309299884364,,,,,,,,,,,,,,,,,913,22,female,up_down_width,2024-10-22_12h38.18.976,exp1,2023.1.0,60.13894501238615,
,,,,,,,,,,,,,,,,4,8.65,9.55,10.45,11.35,0,0.9,0.35,0.55,3.25,10,initial,36.05,312,344,377,409,0,9,9,9,9,0,,,,,,,4,0,4,0,0,17,17,36,,,,,,,,,,,,num_4,0.905924400081858,num_4,0.3,1.1,0.6,0.8,22.9233,30.5644,return,3.6359445999842137,,,,,,,,,,,,,,,,,913,22,female,up_down_width,2024-10-22_12h38.18.976,exp1,2023.1.0,60.13894501238615,
,,,,,,,,,,,,,,,,3,9.1,10,10.9,0,0,0.9,0.35,0.55,2.35,10,initial,36.05,328,361,393,0,0,9,9,9,0,0,,,,,,,4,0,4,0,0,18,18,35,,,,,,,,,,,,num_3,0.772829300025478,num_3,0.4,1.3,0.6000000000000001,0.85,22.9233,32.47468,return,3.8393121000844985,,,,,,,,,,,,,,,,,913,22,female,up_down_width,2024-10-22_12h38.18.976,exp1,2023.1.0,60.13894501238615,
,,,,,,,,,,,,,,,,5,8.2,9.1,10,10.9,11.8,0.9,0.35,0.55,4.15,10,initial,36.05,296,328,361,393,425,9,9,9,9,9,,,,,,,4,0,4,0,0,19,19,48,,,,,,,,,,,,num_5,0.8509418999310583,num_5,0.35,0.8,0.5499999999999999,0.8,21.01303,30.5644,return,4.111136799911037,,,,,,,,,,,,,,,,,913,22,female,up_down_width,2024-10-22_12h38.18.976,exp1,2023.1.0,60.13894501238615,
,,,,,,,,,,,,,,,,4,8.65,9.55,10.45,11.35,0,0.9,0.35,0.55,3.25,10,initial,36.05,312,344,377,409,0,9,9,9,9,0,,,,,,,4,0,4,0,0,20,20,43,,,,,,,,,,,,num_4,0.9312174001242965,num_4,0.4,1.1,0.6000000000000001,0.9,22.9233,34.38495,return,3.7382408999837935,,,,,,,,,,,,,,,,,913,22,female,up_down_width,2024-10-22_12h38.18.976,exp1,2023.1.0,60.13894501238615,
,,,,,,,,,,,,,,,,4,8.65,9.55,10.45,11.35,0,0.9,0.35,0.55,3.25,10,initial,36.05,312,344,377,409,0,9,9,9,9,0,,,,,,,4,0,4,0,0,21,21,15,,,,,,,,,,,,num_4,0.8144667998421937,num_4,0.4,0.5,0.5,0.8,19.10275,30.5644,return,4.844097499968484,,,,,,,,,,,,,,,,,913,22,female,up_down_width,2024-10-22_12h38.18.976,exp1,2023.1.0,60.13894501238615,
,,,,,,,,,,,,,,,,3,9.1,10,10.9,0,0,0.9,0.35,0.55,2.35,10,initial,36.05,328,361,393,0,0,9,9,9,0,0,,,,,,,4,0,4,0,0,22,22,8,,,,,,,,,,,,num_3,0.7799505998846143,num_3,0.55,0.6,0.6000000000000001,0.85,22.9233,32.47468,return,3.7671619998291135,,,,,,,,,,,,,,,,,913,22,female,up_down_width,2024-10-22_12h38.18.976,exp1,2023.1.0,60.13894501238615,
,,,,,,,,,,,,,,,,5,8.2,9.1,10,10.9,11.8,0.9,0.35,0.55,4.15,10,initial,36.05,296,328,361,393,425,9,9,9,9,9,,,,,,,4,0,4,0,0,23,23,24,,,,,,,,,,,,num_5,0.7903801999054849,num_5,0.55,0.8,0.6000000000000001,0.9,22.9233,34.38495,return,3.2687230000738055,,,,,,,,,,,,,,,,,913,22,female,up_down_width,2024-10-22_12h38.18.976,exp1,2023.1.0,60.13894501238615,
,,,,,,,,,,,,,,,,5,8.2,9.1,10,10.9,11.8,0.9,0.35,0.55,4.15,10,initial,36.05,296,328,361,393,425,9,9,9,9,9,,,,,,,4,0,4,0,0,24,24,52,,,,,,,,,,,,num_5,0.7640341999940574,num_5,0.25,1.3,0.65,1.05,24.83358,40.11578,return,5.577168799936771,,,,,,,,,,,,,,,,,913,22,female,up_down_width,2024-10-22_12h38.18.976,exp1,2023.1.0,60.13894501238615,
,,,,,,,,,,,,,,,,5,8.2,9.1,10,10.9,11.8,0.9,0.35,0.55,4.15,10,initial,36.05,296,328,361,393,425,9,9,9,9,9,,,,,,,4,0,4,0,0,25,25,45,,,,,,,,,,,,num_5,0.7177991000935435,num_5,0.3,0.6,0.44999999999999996,0.8,17.19248,30.5644,return,5.981074600014836,,,,,,,,,,,,,,,,,913,22,female,up_down_width,2024-10-22_12h38.18.976,exp1,2023.1.0,60.13894501238615,
,,,,,,,,,,,,,,,,3,9.1,10,10.9,0,0,0.9,0.35,0.55,2.35,10,initial,36.05,328,361,393,0,0,9,9,9,0,0,,,,,,,4,0,4,0,0,26,26,5,,,,,,,,,,,,num_2,0.6385912999976426,num_2,0.4,0.6,0.5,1.0,19.10275,38.2055,return,4.428334000054747,,,,,,,,,,,,,,,,,913,22,female,up_down_width,2024-10-22_12h38.18.976,exp1,2023.1.0,60.13894501238615,
,,,,,,,,,,,,,,,,3,9.1,10,10.9,0,0,0.9,0.35,0.55,2.35,10,initial,36.05,328,361,393,0,0,9,9,9,0,0,,,,,,,4,0,4,0,0,27,27,28,,,,,,,,,,,,num_3,1.4284334001131356,num_3,0.3,0.8,0.49999999999999994,0.8,19.10275,30.5644,return,2.025930499890819,,,,,,,,,,,,,,,,,913,22,female,up_down_width,2024-10-22_12h38.18.976,exp1,2023.1.0,60.13894501238615,
,,,,,,,,,,,,,,,,3,9.1,10,10.9,0,0,0.9,0.35,0.55,2.35,10,initial,36.05,328,361,393,0,0,9,9,9,0,0,,,,,,,4,0,4,0,0,28,28,27,,,,,,,,,,,,num_3,0.7546310999896377,num_3,0.25,0.9,0.49999999999999994,0.9,19.10275,34.38495,return,1.785322800045833,,,,,,,,,,,,,,,,,913,22,female,up_down_width,2024-10-22_12h38.18.976,exp1,2023.1.0,60.13894501238615,
,,,,,,,,,,,,,,,,4,8.65,9.55,10.45,11.35,0,0.9,0.35,0.55,3.25,10,initial,36.05,312,344,377,409,0,9,9,9,9,0,,,,,,,4,0,4,0,0,29,29,42,,,,,,,,,,,,num_4,0.8443256998434663,num_4,0.4,1.1,0.6500000000000001,1.1,24.83358,42.02605,return,1.6850096001289785,,,,,,,,,,,,,,,,,913,22,female,up_down_width,2024-10-22_12h38.18.976,exp1,2023.1.0,60.13894501238615,
,,,,,,,,,,,,,,,,5,8.2,9.1,10,10.9,11.8,0.9,0.35,0.55,4.15,10,initial,36.05,296,328,361,393,425,9,9,9,9,9,,,,,,,4,0,4,0,0,30,30,51,,,,,,,,,,,,num_5,0.7611191000323743,num_5,0.25,0.8,0.6,0.8,22.9233,30.5644,return,1.845393099822104,,,,,,,,,,,,,,,,,913,22,female,up_down_width,2024-10-22_12h38.18.976,exp1,2023.1.0,60.13894501238615,
,,,,,,,,,,,,,,,,5,8.2,9.1,10,10.9,11.8,0.9,0.35,0.55,4.15,10,initial,36.05,296,328,361,393,425,9,9,9,9,9,,,,,,,4,0,4,0,0,31,31,23,,,,,,,,,,,,num_5,0.9995164999272674,num_5,0.45,0.5,0.7000000000000002,1.05,26.74385,40.11578,return,4.150154799921438,,,,,,,,,,,,,,,,,913,22,female,up_down_width,2024-10-22_12h38.18.976,exp1,2023.1.0,60.13894501238615,
,,,,,,,,,,,,,,,,4,8.65,9.55,10.45,11.35,0,0.9,0.35,0.55,3.25,10,initial,36.05,312,344,377,409,0,9,9,9,9,0,,,,,,,4,0,4,0,0,32,32,10,,,,,,,,,,,,num_4,1.275090599898249,num_4,0.45,1.0,0.55,1.0,21.01303,38.2055,return,1.6540986998006701,,,,,,,,,,,,,,,,,913,22,female,up_down_width,2024-10-22_12h38.18.976,exp1,2023.1.0,60.13894501238615,
,,,,,,,,,,,,,,,,5,8.2,9.1,10,10.9,11.8,0.9,0.35,0.55,4.15,10,initial,36.05,296,328,361,393,425,9,9,9,9,9,,,,,,,4,0,4,0,0,33,33,18,,,,,,,,,,,,num_4,0.7822716999799013,num_4,0.2,0.5,0.6,0.9,22.9233,34.38495,return,3.7410043000709265,,,,,,,,,,,,,,,,,913,22,female,up_down_width,2024-10-22_12h38.18.976,exp1,2023.1.0,60.13894501238615,
,,,,,,,,,,,,,,,,3,9.1,10,10.9,0,0,0.9,0.35,0.55,2.35,10,initial,36.05,328,361,393,0,0,9,9,9,0,0,,,,,,,4,0,4,0,0,34,34,2,,,,,,,,,,,,num_3,0.7729858998209238,num_3,0.3,0.4,0.49999999999999994,0.7,19.10275,26.74385,return,2.687211399897933,,,,,,,,,,,,,,,,,913,22,female,up_down_width,2024-10-22_12h38.18.976,exp1,2023.1.0,60.13894501238615,
,,,,,,,,,,,,,,,,4,8.65,9.55,10.45,11.35,0,0.9,0.35,0.55,3.25,10,initial,36.05,312,344,377,409,0,9,9,9,9,0,,,,,,,4,0,4,0,0,35,35,39,,,,,,,,,,,,num_4,0.8120394002180547,num_4,0.3,0.5,0.5499999999999999,0.9,21.01303,34.38495,return,2.9192494999151677,,,,,,,,,,,,,,,,,913,22,female,up_down_width,2024-10-22_12h38.18.976,exp1,2023.1.0,60.13894501238615,
,,,,,,,,,,,,,,,,3,9.1,10,10.9,0,0,0.9,0.35,0.55,2.35,10,initial,36.05,328,361,393,0,0,9,9,9,0,0,,,,,,,4,0,4,0,0,36,36,3,,,,,,,,,,,,num_3,0.7059302998241037,num_3,0.2,1.2,0.65,1.05,24.83358,40.11578,return,3.2411460999865085,,,,,,,,,,,,,,,,,913,22,female,up_down_width,2024-10-22_12h38.18.976,exp1,2023.1.0,60.13894501238615,
,,,,,,,,,,,,,,,,3,9.1,10,10.9,0,0,0.9,0.35,0.55,2.35,10,initial,36.05,328,361,393,0,0,9,9,9,0,0,,,,,,,4,0,4,0,0,37,37,32,,,,,,,,,,,,num_3,0.6307085999287665,num_3,0.2,1.1,0.49999999999999994,0.85,19.10275,32.47468,return,4.394784100120887,,,,,,,,,,,,,,,,,913,22,female,up_down_width,2024-10-22_12h38.18.976,exp1,2023.1.0,60.13894501238615,
,,,,,,,,,,,,,,,,3,9.1,10,10.9,0,0,0.9,0.35,0.55,2.35,10,initial,36.05,328,361,393,0,0,9,9,9,0,0,,,,,,,4,0,4,0,0,38,38,34,,,,,,,,,,,,num_3,0.7010212999302894,num_3,0.5,1.3,0.6000000000000001,0.9,22.9233,34.38495,return,4.18880490004085,,,,,,,,,,,,,,,,,913,22,female,up_down_width,2024-10-22_12h38.18.976,exp1,2023.1.0,60.13894501238615,
,,,,,,,,,,,,,,,,4,8.65,9.55,10.45,11.35,0,0.9,0.35,0.55,3.25,10,initial,36.05,312,344,377,409,0,9,9,9,9,0,,,,,,,4,0,4,0,0,39,39,40,,,,,,,,,,,,num_4,0.7515388999599963,num_4,0.35,1.2,0.7000000000000001,1.0,26.74385,38.2055,return,3.888568199938163,,,,,,,,,,,,,,,,,913,22,female,up_down_width,2024-10-22_12h38.18.976,exp1,2023.1.0,60.13894501238615,
,,,,,,,,,,,,,,,,4,8.65,9.55,10.45,11.35,0,0.9,0.35,0.55,3.25,10,initial,36.05,312,344,377,409,0,9,9,9,9,0,,,,,,,4,0,4,0,0,40,40,12,,,,,,,,,,,,num_4,0.7597924000583589,num_4,0.4,0.7,0.55,1.0,21.01303,38.2055,return,2.4476546000223607,,,,,,,,,,,,,,,,,913,22,female,up_down_width,2024-10-22_12h38.18.976,exp1,2023.1.0,60.13894501238615,
,,,,,,,,,,,,,,,,4,8.65,9.55,10.45,11.35,0,0.9,0.35,0.55,3.25,10,initial,36.05,312,344,377,409,0,9,9,9,9,0,,,,,,,4,0,4,0,0,41,41,38,,,,,,,,,,,,num_4,0.7977068000473082,num_4,0.55,1.3,0.55,0.9,21.01303,34.38495,return,1.6814425000920892,,,,,,,,,,,,,,,,,913,22,female,up_down_width,2024-10-22_12h38.18.976,exp1,2023.1.0,60.13894501238615,
,,,,,,,,,,,,,,,,5,8.2,9.1,10,10.9,11.8,0.9,0.35,0.55,4.15,10,initial,36.05,296,328,361,393,425,9,9,9,9,9,,,,,,,4,0,4,0,0,42,42,53,,,,,,,,,,,,num_5,0.7541511999443173,num_5,0.25,0.9,0.6,0.9,22.9233,34.38495,return,2.321980800013989,,,,,,,,,,,,,,,,,913,22,female,up_down_width,2024-10-22_12h38.18.976,exp1,2023.1.0,60.13894501238615,
,,,,,,,,,,,,,,,,4,8.65,9.55,10.45,11.35,0,0.9,0.35,0.55,3.25,10,initial,36.05,312,344,377,409,0,9,9,9,9,0,,,,,,,4,0,4,0,0,43,43,9,,,,,,,,,,,,num_4,0.9024889001157135,num_4,0.25,1.3,0.65,1.0,24.83358,38.2055,return,5.024161499924958,,,,,,,,,,,,,,,,,913,22,female,up_down_width,2024-10-22_12h38.18.976,exp1,2023.1.0,60.13894501238615,
,,,,,,,,,,,,,,,,4,8.65,9.55,10.45,11.35,0,0.9,0.35,0.55,3.25,10,initial,36.05,312,344,377,409,0,9,9,9,9,0,,,,,,,4,0,4,0,0,44,44,16,,,,,,,,,,,,num_4,0.6824811999686062,num_4,0.2,1.2,0.6,0.9,22.9233,34.38495,return,4.140799300046638,,,,,,,,,,,,,,,,,913,22,female,up_down_width,2024-10-22_12h38.18.976,exp1,2023.1.0,60.13894501238615,
,,,,,,,,,,,,,,,,5,8.2,9.1,10,10.9,11.8,0.9,0.35,0.55,4.15,10,initial,36.05,296,328,361,393,425,9,9,9,9,9,,,,,,,4,0,4,0,0,45,45,49,,,,,,,,,,,,num_5,0.7685740001033992,num_5,0.25,0.5,0.7000000000000001,0.9,26.74385,34.38495,return,5.404380799969658,,,,,,,,,,,,,,,,,913,22,female,up_down_width,2024-10-22_12h38.18.976,exp1,2023.1.0,60.13894501238615,
,,,,,,,,,,,,,,,,5,8.2,9.1,10,10.9,11.8,0.9,0.35,0.55,4.15,10,initial,36.05,296,328,361,393,425,9,9,9,9,9,,,,,,,4,0,4,0,0,46,46,22,,,,,,,,,,,,num_5,0.772823000093922,num_5,0.55,1.3,0.55,0.95,21.01303,36.29523,return,2.462846599984914,,,,,,,,,,,,,,,,,913,22,female,up_down_width,2024-10-22_12h38.18.976,exp1,2023.1.0,60.13894501238615,
,,,,,,,,,,,,,,,,4,8.65,9.55,10.45,11.35,0,0.9,0.35,0.55,3.25,10,initial,36.05,312,344,377,409,0,9,9,9,9,0,,,,,,,4,0,4,0,0,47,47,13,,,,,,,,,,,,num_4,0.7841919001657516,num_4,0.4,0.5,0.6000000000000001,0.9,22.9233,34.38495,return,3.033997100079432,,,,,,,,,,,,,,,,,913,22,female,up_down_width,2024-10-22_12h38.18.976,exp1,2023.1.0,60.13894501238615,
,,,,,,,,,,,,,,,,3,9.1,10,10.9,0,0,0.9,0.35,0.55,2.35,10,initial,36.05,328,361,393,0,0,9,9,9,0,0,,,,,,,4,0,4,0,0,48,48,0,,,,,,,,,,,,num_3,0.9429814999457449,num_3,0.4,0.7,0.6000000000000001,0.9,22.9233,34.38495,return,3.188217299990356,,,,,,,,,,,,,,,,,913,22,female,up_down_width,2024-10-22_12h38.18.976,exp1,2023.1.0,60.13894501238615,
,,,,,,,,,,,,,,,,3,9.1,10,10.9,0,0,0.9,0.35,0.55,2.35,10,initial,36.05,328,361,393,0,0,9,9,9,0,0,,,,,,,4,0,4,0,0,49,49,33,,,,,,,,,,,,num_3,0.6709563999902457,num_3,0.2,1.1,0.5499999999999999,0.8,21.01303,30.5644,return,4.061372899916023,,,,,,,,,,,,,,,,,913,22,female,up_down_width,2024-10-22_12h38.18.976,exp1,2023.1.0,60.13894501238615,
,,,,,,,,,,,,,,,,4,8.65,9.55,10.45,11.35,0,0.9,0.35,0.55,3.25,10,initial,36.05,312,344,377,409,0,9,9,9,9,0,,,,,,,4,0,4,0,0,50,50,44,,,,,,,,,,,,num_4,0.7784132000524551,num_4,0.3,0.6,0.6,0.9,22.9233,34.38495,return,3.0011182001326233,,,,,,,,,,,,,,,,,913,22,female,up_down_width,2024-10-22_12h38.18.976,exp1,2023.1.0,60.13894501238615,
,,,,,,,,,,,,,,,,3,9.1,10,10.9,0,0,0.9,0.35,0.55,2.35,10,initial,36.05,328,361,393,0,0,9,9,9,0,0,,,,,,,4,0,4,0,0,51,51,29,,,,,,,,,,,,num_3,0.9111493998207152,num_3,0.4,1,0.6000000000000001,1,22.9233,38.2055,return,1.4424467999488115,,,,,,,,,,,,,,,,,913,22,female,up_down_width,2024-10-22_12h38.18.976,exp1,2023.1.0,60.13894501238615,
,,,,,,,,,,,,,,,,5,8.2,9.1,10,10.9,11.8,0.9,0.35,0.55,4.15,10,initial,36.05,296,328,361,393,425,9,9,9,9,9,,,,,,,4,0,4,0,0,52,52,26,,,,,,,,,,,,num_4,0.7757548000663519,num_4,0.3,0.7,0.65,1.0,24.83358,38.2055,return,2.9157807999290526,,,,,,,,,,,,,,,,,913,22,female,up_down_width,2024-10-22_12h38.18.976,exp1,2023.1.0,60.13894501238615,
,,,,,,,,,,,,,,,,5,8.2,9.1,10,10.9,11.8,0.9,0.35,0.55,4.15,10,initial,36.05,296,328,361,393,425,9,9,9,9,9,,,,,,,4,0,4,0,0,53,53,20,,,,,,,,,,,,num_5,0.7329266001470387,num_5,0.55,0.9,0.6000000000000001,0.95,22.9233,36.29523,return,1.8222521001007408,,,,,,,,,,,,,,,,,913,22,female,up_down_width,2024-10-22_12h38.18.976,exp1,2023.1.0,60.13894501238615,
,,,,,,,,,,,,,,,,,,,,,,,,,,,,,,,,,,,,,,,,,,,,,4,0,4,0,,,,,,,,,,,,,,,,,,,,,,,,,,,,,2181.3096906999126,2181.3096906999126,2181.3096906999126,,,,,,,,,,,,913,22,female,up_down_width,2024-10-22_12h38.18.976,exp1,2023.1.0,60.13894501238615,
,,,,,,,,,,,,,,,,4,9.25,9.75,10.25,10.75,0,0.5,0.1,0.4,1.9000000000000001,10,initial,36.05,333,351,370,388,0,9,9,9,9,0,,,,,,,5,0,5,0,0,0,0,38,,,,,,,,,,,,num_4,1.494544900022447,num_4,0.55,1.3,0.6000000000000001,0.8,22.9233,30.5644,return,6.376390099991113,,,,,,,,,,,,,,,,,913,22,female,up_down_width,2024-10-22_12h38.18.976,exp1,2023.1.0,60.13894501238615,
,,,,,,,,,,,,,,,,5,9,9.5,10,10.5,11,0.5,0.1,0.4,2.4,10,initial,36.05,324,342,361,379,397,9,9,9,9,9,,,,,,,5,0,5,0,0,1,1,46,,,,,,,,,,,,num_5,0.8877574000507593,num_5,0.5,1.0,0.4,0.6,15.2822,22.9233,return,2.9703264001291245,,,,,,,,,,,,,,,,,913,22,female,up_down_width,2024-10-22_12h38.18.976,exp1,2023.1.0,60.13894501238615,
,,,,,,,,,,,,,,,,3,9.5,10,10.5,0,0,0.5,0.1,0.4,1.4000000000000001,10,initial,36.05,342,361,379,0,0,9,9,9,0,0,,,,,,,5,0,5,0,0,2,2,33,,,,,,,,,,,,num_3,0.7772705999668688,num_3,0.2,0.7,0.35,0.5,13.37193,19.10275,return,3.512364400085062,,,,,,,,,,,,,,,,,913,22,female,up_down_width,2024-10-22_12h38.18.976,exp1,2023.1.0,60.13894501238615,
,,,,,,,,,,,,,,,,4,9.25,9.75,10.25,10.75,0,0.5,0.1,0.4,1.9000000000000001,10,initial,36.05,333,351,370,388,0,9,9,9,9,0,,,,,,,5,0,5,0,0,3,3,16,,,,,,,,,,,,num_4,0.8095621999818832,num_4,0.2,1.2,0.44999999999999996,0.6,17.19248,22.9233,return,3.0159474001266062,,,,,,,,,,,,,,,,,913,22,female,up_down_width,2024-10-22_12h38.18.976,exp1,2023.1.0,60.13894501238615,
,,,,,,,,,,,,,,,,3,9.5,10,10.5,0,0,0.5,0.1,0.4,1.4000000000000001,10,initial,36.05,342,361,379,0,0,9,9,9,0,0,,,,,,,5,0,5,0,0,4,4,3,,,,,,,,,,,,num_3,0.6787292000371963,num_3,0.55,1.1,0.45,0.7,17.19248,26.74385,return,2.774433300131932,,,,,,,,,,,,,,,,,913,22,female,up_down_width,2024-10-22_12h38.18.976,exp1,2023.1.0,60.13894501238615,
,,,,,,,,,,,,,,,,3,9.5,10,10.5,0,0,0.5,0.1,0.4,1.4000000000000001,10,initial,36.05,342,361,379,0,0,9,9,9,0,0,,,,,,,5,0,5,0,0,5,5,28,,,,,,,,,,,,num_3,0.7659588998649269,num_3,0.4,1.3,0.4,0.55,15.2822,21.01303,return,4.073902399977669,,,,,,,,,,,,,,,,,913,22,female,up_down_width,2024-10-22_12h38.18.976,exp1,2023.1.0,60.13894501238615,
,,,,,,,,,,,,,,,,3,9.5,10,10.5,0,0,0.5,0.1,0.4,1.4000000000000001,10,initial,36.05,342,361,379,0,0,9,9,9,0,0,,,,,,,5,0,5,0,0,6,6,4,,,,,,,,,,,,num_3,0.70072660013102,num_3,0.45,0.9,0.45,0.6,17.19248,22.9233,return,2.269674399867654,,,,,,,,,,,,,,,,,913,22,female,up_down_width,2024-10-22_12h38.18.976,exp1,2023.1.0,60.13894501238615,
,,,,,,,,,,,,,,,,3,9.5,10,10.5,0,0,0.5,0.1,0.4,1.4000000000000001,10,initial,36.05,342,361,379,0,0,9,9,9,0,0,,,,,,,5,0,5,0,0,7,7,1,,,,,,,,,,,,num_3,0.6963879000395536,num_3,0.45,1.2,0.35000000000000003,0.5,13.37193,19.10275,return,5.783705299952999,,,,,,,,,,,,,,,,,913,22,female,up_down_width,2024-10-22_12h38.18.976,exp1,2023.1.0,60.13894501238615,
,,,,,,,,,,,,,,,,5,9,9.5,10,10.5,11,0.5,0.1,0.4,2.4,10,initial,36.05,324,342,361,379,397,9,9,9,9,9,,,,,,,5,0,5,0,0,8,8,23,,,,,,,,,,,,num_6,0.9394664999563247,num_6,0.2,0.3,0.44999999999999996,0.6,17.19248,22.9233,return,5.585963200079277,,,,,,,,,,,,,,,,,913,22,female,up_down_width,2024-10-22_12h38.18.976,exp1,2023.1.0,60.13894501238615,
,,,,,,,,,,,,,,,,5,9,9.5,10,10.5,11,0.5,0.1,0.4,2.4,10,initial,36.05,324,342,361,379,397,9,9,9,9,9,,,,,,,5,0,5,0,0,9,9,53,,,,,,,,,,,,num_5,0.8352814000099897,num_5,0.25,1.0,0.65,0.8,24.83358,30.5644,return,4.303172799991444,,,,,,,,,,,,,,,,,913,22,female,up_down_width,2024-10-22_12h38.18.976,exp1,2023.1.0,60.13894501238615,
,,,,,,,,,,,,,,,,5,9,9.5,10,10.5,11,0.5,0.1,0.4,2.4,10,initial,36.05,324,342,361,379,397,9,9,9,9,9,,,,,,,5,0,5,0,0,10,10,45,,,,,,,,,,,,num_5,0.932675400050357,num_5,0.35,1.0,0.6,0.75,22.9233,28.65413,return,4.252220100024715,,,,,,,,,,,,,,,,,913,22,female,up_down_width,2024-10-22_12h38.18.976,exp1,2023.1.0,60.13894501238615,
