amount_p,posx1_p,posx2_p,posx3_p,posx4_p,posx5_p,center_to_center_p,edge_to_edge_p,w_p,stim_length_p,eccentricity_p,line1_p,line2_p,line3_p,line4_p,line5_p,amount,posx1,posx2,posx3,posx4,posx5,center_to_center,edge_to_edge,w,stim_length,eccentricity,trial_type,deg_to_pix_index,posx1_in_pix,posx2_in_pix,posx3_in_pix,posx4_in_pix,posx5_in_pix,line1,line2,line3,line4,line5,posx,setsize_cobdi,trials.thisRepN,trials.thisTrialN,trials.thisN,trials.thisIndex,blocks.thisRepN,blocks.thisTrialN,blocks.thisN,blocks.thisIndex,loop.thisRepN,loop.thisTrialN,loop.thisN,loop.thisIndex,first.thisRepN,first.thisTrialN,first.thisN,first.thisIndex,second.thisRepN,second.thisTrialN,second.thisN,second.thisIndex,key_resp_3.started,key_resp_3.keys,key_resp_3.rt,key_resp.keys,key_resp.rt,response,starting_width_deg,starting_space_deg,response_width_degree,response_spacing_degree,response_width_pixel,response_spacing_pixel,next_5.keys,next_5.rt,key_resp_4.keys,key_resp_4.rt,text_3.started,text_4.started,key_resp_2.started,text_2.started,key_resp_2.keys,key_resp_2.rt,adjusting.started,next.keys,next.rt,text_control2.started,key_resp.started,key_resp.corr,text_bye.started,text_bye.stopped,participant,age,gender,resp_group,date,expName,psychopyVersion,frameRate,
,,,,,,,,,,,,,,,,,,,,,,,,,,,,,,,,,,,,,,,,,,,,,,,,,,,,,,,,,,,,,30.181106199976057,c,182.18954160017893,,,,,,,,,,,,,,,,,,,,,,,,,,,,716,19,male,up_down_width,2024-10-24_13h08.56.122,exp1,2023.1.0,59.97537416124552,
4,9.25,9.75,10.25,10.75,0,0.5,0.25,0.25,1.75,10,9,9,9,9,0,,,,,,,,,,,,,,,,,,,,,,,,,,0,0,0,1,,,,,,,,,,,,,,,,,,,,num_3,4.14915610011667,num_3,0.4,0.6,0.30000000000000004,0.65,11.46165,24.83358,return,25.819000399904326,,,,,,,,,,,,,,,,,716,19,male,up_down_width,2024-10-24_13h08.56.122,exp1,2023.1.0,59.97537416124552,
4,9.25,9.75,10.25,10.75,0,0.5,0.1,0.4,1.9000000000000001,10,9,9,9,9,0,,,,,,,,,,,,,,,,,,,,,,,,,,0,1,1,4,,,,,,,,,,,,,,,,,,,,num_4,3.698283800156787,num_4,0.5,0.7,0.25000000000000006,0.5,9.55138,19.10275,return,17.369805100141093,,,,,,,,,,,,,,,,,716,19,male,up_down_width,2024-10-24_13h08.56.122,exp1,2023.1.0,59.97537416124552,
5,8.2,9.1,10,10.9,11.8,0.9,0.35,0.55,4.15,10,9,9,9,9,9,,,,,,,,,,,,,,,,,,,,,,,,,,0,2,2,2,,,,,,,,,,,,,,,,,,,,num_6,3.0847948999144137,num_6,0.45,0.6,0.35000000000000003,0.6,13.37193,22.9233,return,11.408243800047785,,,,,,,,,,,,,,,,,716,19,male,up_down_width,2024-10-24_13h08.56.122,exp1,2023.1.0,59.97537416124552,
3,9.5,10,10.5,0,0,0.5,0.25,0.25,1.25,10,9,9,9,0,0,,,,,,,,,,,,,,,,,,,,,,,,,,0,3,3,0,,,,,,,,,,,,,,,,,,,,num_4,5.440845200093463,num_4,0.3,0.4,0.3,0.5,11.46165,19.10275,return,10.015602100174874,,,,,,,,,,,,,,,,,716,19,male,up_down_width,2024-10-24_13h08.56.122,exp1,2023.1.0,59.97537416124552,
5,9,9.5,10,10.5,11,0.5,0.1,0.4,2.4,10,9,9,9,9,9,,,,,,,,,,,,,,,,,,,,,,,,,,0,4,4,5,,,,,,,,,,,,,,,,,,,,num_6,5.349882700014859,num_6,0.35,1.1,0.35,0.6,13.37193,22.9233,return,10.44810950011015,,,,,,,,,,,,,,,,,716,19,male,up_down_width,2024-10-24_13h08.56.122,exp1,2023.1.0,59.97537416124552,
3,9.1,10,10.9,0,0,0.9,0.35,0.55,2.35,10,9,9,9,0,0,,,,,,,,,,,,,,,,,,,,,,,,,,0,5,5,3,,,,,,,,,,,,,,,,,,,,num_3,1.6011409000493586,num_3,0.4,0.5,0.4,0.8,15.2822,30.5644,return,5.084038800094277,,,,,,,,,,,,,,,,,716,19,male,up_down_width,2024-10-24_13h08.56.122,exp1,2023.1.0,59.97537416124552,
,,,,,,,,,,,,,,,,,,,,,,,,,,,,,,,,,,,,,,,,,,,,,,,,,,,,,,,,,,,,,,,,,,,,,,,,,,,c,170.89813100011088,,,,,,,,,,,,,,,716,19,male,up_down_width,2024-10-24_13h08.56.122,exp1,2023.1.0,59.97537416124552,
,,,,,,,,,,,,,,,,5,8.2,9.1,10,10.9,11.8,0.9,0.35,0.55,4.15,10,initial,36.05,296,328,361,393,425,9,9,9,9,9,,,,,,,0,0,0,0,0,0,0,23,,,,,,,,,,,,num_5,3.2149424001108855,num_5,0.25,0.8,0.39999999999999997,0.8,15.2822,30.5644,return,9.752820800291374,,,,,,,,,,,,,,,,,716,19,male,up_down_width,2024-10-24_13h08.56.122,exp1,2023.1.0,59.97537416124552,
,,,,,,,,,,,,,,,,3,9.1,10,10.9,0,0,0.9,0.35,0.55,2.35,10,initial,36.05,328,361,393,0,0,9,9,9,0,0,,,,,,,0,0,0,0,0,1,1,30,,,,,,,,,,,,num_3,1.7480105001013726,num_3,0.35,0.8,0.39999999999999997,0.8,15.2822,30.5644,return,8.967382700182498,,,,,,,,,,,,,,,,,716,19,male,up_down_width,2024-10-24_13h08.56.122,exp1,2023.1.0,59.97537416124552,
,,,,,,,,,,,,,,,,5,8.2,9.1,10,10.9,11.8,0.9,0.35,0.55,4.15,10,initial,36.05,296,328,361,393,425,9,9,9,9,9,,,,,,,0,0,0,0,0,2,2,51,,,,,,,,,,,,num_7,6.134528300026432,num_7,0.5,0.6,0.25000000000000006,0.6,9.55138,22.9233,return,16.66810250002891,,,,,,,,,,,,,,,,,716,19,male,up_down_width,2024-10-24_13h08.56.122,exp1,2023.1.0,59.97537416124552,
,,,,,,,,,,,,,,,,3,9.1,10,10.9,0,0,0.9,0.35,0.55,2.35,10,initial,36.05,328,361,393,0,0,9,9,9,0,0,,,,,,,0,0,0,0,0,3,3,3,,,,,,,,,,,,num_3,1.9910653000697494,num_3,0.55,0.8,0.5,0.8,19.10275,30.5644,return,6.002253700280562,,,,,,,,,,,,,,,,,716,19,male,up_down_width,2024-10-24_13h08.56.122,exp1,2023.1.0,59.97537416124552,
,,,,,,,,,,,,,,,,5,8.2,9.1,10,10.9,11.8,0.9,0.35,0.55,4.15,10,initial,36.05,296,328,361,393,425,9,9,9,9,9,,,,,,,0,0,0,0,0,4,4,52,,,,,,,,,,,,num_5,4.0626739002764225,num_5,0.25,0.3,0.35,0.7,13.37193,26.74385,return,18.97108590020798,,,,,,,,,,,,,,,,,716,19,male,up_down_width,2024-10-24_13h08.56.122,exp1,2023.1.0,59.97537416124552,
,,,,,,,,,,,,,,,,4,8.65,9.55,10.45,11.35,0,0.9,0.35,0.55,3.25,10,initial,36.05,312,344,377,409,0,9,9,9,9,0,,,,,,,0,0,0,0,0,5,5,37,,,,,,,,,,,,num_5,4.565326400101185,num_5,0.25,1.2,0.3,0.75,11.46165,28.65413,return,12.790954800089821,,,,,,,,,,,,,,,,,716,19,male,up_down_width,2024-10-24_13h08.56.122,exp1,2023.1.0,59.97537416124552,
,,,,,,,,,,,,,,,,5,8.2,9.1,10,10.9,11.8,0.9,0.35,0.55,4.15,10,initial,36.05,296,328,361,393,425,9,9,9,9,9,,,,,,,0,0,0,0,0,6,6,20,,,,,,,,,,,,num_6,4.165457400260493,num_6,0.45,1.0,0.30000000000000004,0.7,11.46165,26.74385,return,12.440961100161076,,,,,,,,,,,,,,,,,716,19,male,up_down_width,2024-10-24_13h08.56.122,exp1,2023.1.0,59.97537416124552,
,,,,,,,,,,,,,,,,5,8.2,9.1,10,10.9,11.8,0.9,0.35,0.55,4.15,10,initial,36.05,296,328,361,393,425,9,9,9,9,9,,,,,,,0,0,0,0,0,7,7,21,,,,,,,,,,,,num_6,7.365569200133905,num_6,0.35,1.3,0.3,0.8,11.46165,30.5644,return,12.364861200097948,,,,,,,,,,,,,,,,,716,19,male,up_down_width,2024-10-24_13h08.56.122,exp1,2023.1.0,59.97537416124552,
,,,,,,,,,,,,,,,,5,8.2,9.1,10,10.9,11.8,0.9,0.35,0.55,4.15,10,initial,36.05,296,328,361,393,425,9,9,9,9,9,,,,,,,0,0,0,0,0,8,8,46,,,,,,,,,,,,num_5,10.641625700052828,num_5,0.4,0.5,0.35000000000000003,0.65,13.37193,24.83358,return,15.382445300230756,,,,,,,,,,,,,,,,,716,19,male,up_down_width,2024-10-24_13h08.56.122,exp1,2023.1.0,59.97537416124552,
,,,,,,,,,,,,,,,,3,9.1,10,10.9,0,0,0.9,0.35,0.55,2.35,10,initial,36.05,328,361,393,0,0,9,9,9,0,0,,,,,,,0,0,0,0,0,9,9,7,,,,,,,,,,,,num_3,3.1120485002174973,num_3,0.25,1.2,0.39999999999999997,0.75,15.2822,28.65413,return,6.362948600202799,,,,,,,,,,,,,,,,,716,19,male,up_down_width,2024-10-24_13h08.56.122,exp1,2023.1.0,59.97537416124552,
,,,,,,,,,,,,,,,,5,8.2,9.1,10,10.9,11.8,0.9,0.35,0.55,4.15,10,initial,36.05,296,328,361,393,425,9,9,9,9,9,,,,,,,0,0,0,0,0,10,10,47,,,,,,,,,,,,num_7,4.428369400091469,num_7,0.3,1.2,0.35,0.65,13.37193,24.83358,return,8.827913700137287,,,,,,,,,,,,,,,,,716,19,male,up_down_width,2024-10-24_13h08.56.122,exp1,2023.1.0,59.97537416124552,
,,,,,,,,,,,,,,,,4,8.65,9.55,10.45,11.35,0,0.9,0.35,0.55,3.25,10,initial,36.05,312,344,377,409,0,9,9,9,9,0,,,,,,,0,0,0,0,0,11,11,41,,,,,,,,,,,,num_4,2.5022800001315773,num_4,0.4,0.6,0.45,0.9,17.19248,34.38495,return,6.638659200165421,,,,,,,,,,,,,,,,,716,19,male,up_down_width,2024-10-24_13h08.56.122,exp1,2023.1.0,59.97537416124552,
,,,,,,,,,,,,,,,,3,9.1,10,10.9,0,0,0.9,0.35,0.55,2.35,10,initial,36.05,328,361,393,0,0,9,9,9,0,0,,,,,,,0,0,0,0,0,12,12,8,,,,,,,,,,,,num_4,1.9534521002788097,num_4,0.4,1.0,0.4,0.9,15.2822,34.38495,return,14.009758499916643,,,,,,,,,,,,,,,,,716,19,male,up_down_width,2024-10-24_13h08.56.122,exp1,2023.1.0,59.97537416124552,
,,,,,,,,,,,,,,,,4,8.65,9.55,10.45,11.35,0,0.9,0.35,0.55,3.25,10,initial,36.05,312,344,377,409,0,9,9,9,9,0,,,,,,,0,0,0,0,0,13,13,9,,,,,,,,,,,,num_5,2.737730700057,num_5,0.2,0.4,0.44999999999999996,0.7,17.19248,26.74385,return,8.450865800259635,,,,,,,,,,,,,,,,,716,19,male,up_down_width,2024-10-24_13h08.56.122,exp1,2023.1.0,59.97537416124552,
,,,,,,,,,,,,,,,,3,9.1,10,10.9,0,0,0.9,0.35,0.55,2.35,10,initial,36.05,328,361,393,0,0,9,9,9,0,0,,,,,,,0,0,0,0,0,14,14,4,,,,,,,,,,,,num_3,1.715174000011757,num_3,0.25,0.3,0.44999999999999996,0.95,17.19248,36.29523,return,11.913645900087431,,,,,,,,,,,,,,,,,716,19,male,up_down_width,2024-10-24_13h08.56.122,exp1,2023.1.0,59.97537416124552,
,,,,,,,,,,,,,,,,3,9.1,10,10.9,0,0,0.9,0.35,0.55,2.35,10,initial,36.05,328,361,393,0,0,9,9,9,0,0,,,,,,,0,0,0,0,0,15,15,31,,,,,,,,,,,,num_3,1.320289900060743,num_3,0.35,0.7,0.44999999999999996,0.95,17.19248,36.29523,return,7.534578900085762,,,,,,,,,,,,,,,,,716,19,male,up_down_width,2024-10-24_13h08.56.122,exp1,2023.1.0,59.97537416124552,
,,,,,,,,,,,,,,,,3,9.1,10,10.9,0,0,0.9,0.35,0.55,2.35,10,initial,36.05,328,361,393,0,0,9,9,9,0,0,,,,,,,0,0,0,0,0,16,16,35,,,,,,,,,,,,num_3,5.070436100009829,num_3,0.25,0.6,0.39999999999999997,0.8,15.2822,30.5644,return,9.697825700044632,,,,,,,,,,,,,,,,,716,19,male,up_down_width,2024-10-24_13h08.56.122,exp1,2023.1.0,59.97537416124552,
,,,,,,,,,,,,,,,,3,9.1,10,10.9,0,0,0.9,0.35,0.55,2.35,10,initial,36.05,328,361,393,0,0,9,9,9,0,0,,,,,,,0,0,0,0,0,17,17,27,,,,,,,,,,,,num_4,1.666115399915725,num_4,0.35,0.5,0.49999999999999994,0.8,19.10275,30.5644,return,6.856894300086424,,,,,,,,,,,,,,,,,716,19,male,up_down_width,2024-10-24_13h08.56.122,exp1,2023.1.0,59.97537416124552,
,,,,,,,,,,,,,,,,3,9.1,10,10.9,0,0,0.9,0.35,0.55,2.35,10,initial,36.05,328,361,393,0,0,9,9,9,0,0,,,,,,,0,0,0,0,0,18,18,33,,,,,,,,,,,,num_4,2.1731853999663144,num_4,0.2,0.4,0.44999999999999996,0.7,17.19248,26.74385,return,16.54922500019893,,,,,,,,,,,,,,,,,716,19,male,up_down_width,2024-10-24_13h08.56.122,exp1,2023.1.0,59.97537416124552,
,,,,,,,,,,,,,,,,4,8.65,9.55,10.45,11.35,0,0.9,0.35,0.55,3.25,10,initial,36.05,312,344,377,409,0,9,9,9,9,0,,,,,,,0,0,0,0,0,19,19,12,,,,,,,,,,,,num_5,6.1491797000635415,num_5,0.35,1.2,0.39999999999999997,0.65,15.2822,24.83358,return,11.533584100194275,,,,,,,,,,,,,,,,,716,19,male,up_down_width,2024-10-24_13h08.56.122,exp1,2023.1.0,59.97537416124552,
,,,,,,,,,,,,,,,,4,8.65,9.55,10.45,11.35,0,0.9,0.35,0.55,3.25,10,initial,36.05,312,344,377,409,0,9,9,9,9,0,,,,,,,0,0,0,0,0,20,20,10,,,,,,,,,,,,num_6,3.306317200185731,num_6,0.55,0.9,0.45,0.7,17.19248,26.74385,return,11.999637000262737,,,,,,,,,,,,,,,,,716,19,male,up_down_width,2024-10-24_13h08.56.122,exp1,2023.1.0,59.97537416124552,
,,,,,,,,,,,,,,,,3,9.1,10,10.9,0,0,0.9,0.35,0.55,2.35,10,initial,36.05,328,361,393,0,0,9,9,9,0,0,,,,,,,0,0,0,0,0,21,21,29,,,,,,,,,,,,num_3,1.8268134000245482,num_3,0.2,0.5,0.44999999999999996,0.85,17.19248,32.47468,return,13.235910100163892,,,,,,,,,,,,,,,,,716,19,male,up_down_width,2024-10-24_13h08.56.122,exp1,2023.1.0,59.97537416124552,
,,,,,,,,,,,,,,,,5,8.2,9.1,10,10.9,11.8,0.9,0.35,0.55,4.15,10,initial,36.05,296,328,361,393,425,9,9,9,9,9,,,,,,,0,0,0,0,0,22,22,26,,,,,,,,,,,,num_7,3.760183500126004,num_7,0.3,1.2,0.39999999999999997,0.8,15.2822,30.5644,return,12.32771180011332,,,,,,,,,,,,,,,,,716,19,male,up_down_width,2024-10-24_13h08.56.122,exp1,2023.1.0,59.97537416124552,
,,,,,,,,,,,,,,,,4,8.65,9.55,10.45,11.35,0,0.9,0.35,0.55,3.25,10,initial,36.05,312,344,377,409,0,9,9,9,9,0,,,,,,,0,0,0,0,0,23,23,16,,,,,,,,,,,,num_4,2.209983699955046,num_4,0.55,1.2,0.30000000000000004,0.8,11.46165,30.5644,return,11.825350400060415,,,,,,,,,,,,,,,,,716,19,male,up_down_width,2024-10-24_13h08.56.122,exp1,2023.1.0,59.97537416124552,
,,,,,,,,,,,,,,,,4,8.65,9.55,10.45,11.35,0,0.9,0.35,0.55,3.25,10,initial,36.05,312,344,377,409,0,9,9,9,9,0,,,,,,,0,0,0,0,0,24,24,40,,,,,,,,,,,,num_5,4.568757800152525,num_5,0.2,0.9,0.39999999999999997,0.85,15.2822,32.47468,return,22.352435500128195,,,,,,,,,,,,,,,,,716,19,male,up_down_width,2024-10-24_13h08.56.122,exp1,2023.1.0,59.97537416124552,
,,,,,,,,,,,,,,,,5,8.2,9.1,10,10.9,11.8,0.9,0.35,0.55,4.15,10,initial,36.05,296,328,361,393,425,9,9,9,9,9,,,,,,,0,0,0,0,0,25,25,24,,,,,,,,,,,,num_6,2.051689100218937,num_6,0.2,0.5,0.35,0.7,13.37193,26.74385,return,30.24050540011376,,,,,,,,,,,,,,,,,716,19,male,up_down_width,2024-10-24_13h08.56.122,exp1,2023.1.0,59.97537416124552,
,,,,,,,,,,,,,,,,4,8.65,9.55,10.45,11.35,0,0.9,0.35,0.55,3.25,10,initial,36.05,312,344,377,409,0,9,9,9,9,0,,,,,,,0,0,0,0,0,26,26,13,,,,,,,,,,,,num_4,2.4517427003011107,num_4,0.4,1.1,0.4,0.7,15.2822,26.74385,return,7.82470430014655,,,,,,,,,,,,,,,,,716,19,male,up_down_width,2024-10-24_13h08.56.122,exp1,2023.1.0,59.97537416124552,
,,,,,,,,,,,,,,,,3,9.1,10,10.9,0,0,0.9,0.35,0.55,2.35,10,initial,36.05,328,361,393,0,0,9,9,9,0,0,,,,,,,0,0,0,0,0,27,27,2,,,,,,,,,,,,num_3,1.6366593001876026,num_3,0.3,0.8,0.5499999999999999,0.9,21.01303,34.38495,return,7.778397700050846,,,,,,,,,,,,,,,,,716,19,male,up_down_width,2024-10-24_13h08.56.122,exp1,2023.1.0,59.97537416124552,
,,,,,,,,,,,,,,,,4,8.65,9.55,10.45,11.35,0,0.9,0.35,0.55,3.25,10,initial,36.05,312,344,377,409,0,9,9,9,9,0,,,,,,,0,0,0,0,0,28,28,17,,,,,,,,,,,,num_4,9.662586700171232,num_4,0.25,0.8,0.6,1.0,22.9233,38.2055,return,8.938490099972114,,,,,,,,,,,,,,,,,716,19,male,up_down_width,2024-10-24_13h08.56.122,exp1,2023.1.0,59.97537416124552,
,,,,,,,,,,,,,,,,3,9.1,10,10.9,0,0,0.9,0.35,0.55,2.35,10,initial,36.05,328,361,393,0,0,9,9,9,0,0,,,,,,,0,0,0,0,0,29,29,32,,,,,,,,,,,,num_3,1.8202333999797702,num_3,0.25,1.1,0.49999999999999994,1.1,19.10275,42.02605,return,11.057471900247037,,,,,,,,,,,,,,,,,716,19,male,up_down_width,2024-10-24_13h08.56.122,exp1,2023.1.0,59.97537416124552,
,,,,,,,,,,,,,,,,5,8.2,9.1,10,10.9,11.8,0.9,0.35,0.55,4.15,10,initial,36.05,296,328,361,393,425,9,9,9,9,9,,,,,,,0,0,0,0,0,30,30,22,,,,,,,,,,,,num_8,6.907179100206122,num_8,0.45,1.3,0.35000000000000003,0.6,13.37193,22.9233,return,17.01156280003488,,,,,,,,,,,,,,,,,716,19,male,up_down_width,2024-10-24_13h08.56.122,exp1,2023.1.0,59.97537416124552,
,,,,,,,,,,,,,,,,5,8.2,9.1,10,10.9,11.8,0.9,0.35,0.55,4.15,10,initial,36.05,296,328,361,393,425,9,9,9,9,9,,,,,,,0,0,0,0,0,31,31,48,,,,,,,,,,,,num_7,3.559149700216949,num_7,0.5,0.8,0.35000000000000003,0.6,13.37193,22.9233,return,10.00272830016911,,,,,,,,,,,,,,,,,716,19,male,up_down_width,2024-10-24_13h08.56.122,exp1,2023.1.0,59.97537416124552,
,,,,,,,,,,,,,,,,3,9.1,10,10.9,0,0,0.9,0.35,0.55,2.35,10,initial,36.05,328,361,393,0,0,9,9,9,0,0,,,,,,,0,0,0,0,0,32,32,5,,,,,,,,,,,,num_3,2.6440083000343293,num_3,0.45,0.5,0.5,0.95,19.10275,36.29523,return,8.232382999965921,,,,,,,,,,,,,,,,,716,19,male,up_down_width,2024-10-24_13h08.56.122,exp1,2023.1.0,59.97537416124552,
,,,,,,,,,,,,,,,,3,9.1,10,10.9,0,0,0.9,0.35,0.55,2.35,10,initial,36.05,328,361,393,0,0,9,9,9,0,0,,,,,,,0,0,0,0,0,33,33,6,,,,,,,,,,,,num_3,1.5214757001958787,num_3,0.2,1.2,0.6,1.15,22.9233,43.93633,return,10.01832490018569,,,,,,,,,,,,,,,,,716,19,male,up_down_width,2024-10-24_13h08.56.122,exp1,2023.1.0,59.97537416124552,
,,,,,,,,,,,,,,,,5,8.2,9.1,10,10.9,11.8,0.9,0.35,0.55,4.15,10,initial,36.05,296,328,361,393,425,9,9,9,9,9,,,,,,,0,0,0,0,0,34,34,18,,,,,,,,,,,,num_5,4.726772000081837,num_5,0.3,0.4,0.49999999999999994,0.9,19.10275,34.38495,return,11.54075470007956,,,,,,,,,,,,,,,,,716,19,male,up_down_width,2024-10-24_13h08.56.122,exp1,2023.1.0,59.97537416124552,
,,,,,,,,,,,,,,,,4,8.65,9.55,10.45,11.35,0,0.9,0.35,0.55,3.25,10,initial,36.05,312,344,377,409,0,9,9,9,9,0,,,,,,,0,0,0,0,0,35,35,39,,,,,,,,,,,,num_4,2.9188180002383888,num_4,0.2,0.9,0.39999999999999997,0.8,15.2822,30.5644,return,12.764338600216433,,,,,,,,,,,,,,,,,716,19,male,up_down_width,2024-10-24_13h08.56.122,exp1,2023.1.0,59.97537416124552,
,,,,,,,,,,,,,,,,4,8.65,9.55,10.45,11.35,0,0.9,0.35,0.55,3.25,10,initial,36.05,312,344,377,409,0,9,9,9,9,0,,,,,,,0,0,0,0,0,36,36,15,,,,,,,,,,,,num_4,2.655940900091082,num_4,0.3,0.9,0.44999999999999996,1.0,17.19248,38.2055,return,9.3968503002543,,,,,,,,,,,,,,,,,716,19,male,up_down_width,2024-10-24_13h08.56.122,exp1,2023.1.0,59.97537416124552,
,,,,,,,,,,,,,,,,3,9.1,10,10.9,0,0,0.9,0.35,0.55,2.35,10,initial,36.05,328,361,393,0,0,9,9,9,0,0,,,,,,,0,0,0,0,0,37,37,0,,,,,,,,,,,,num_2,4.437746900133789,num_2,0.25,1.0,0.5499999999999999,0.9,21.01303,34.38495,return,7.678341000108048,,,,,,,,,,,,,,,,,716,19,male,up_down_width,2024-10-24_13h08.56.122,exp1,2023.1.0,59.97537416124552,
,,,,,,,,,,,,,,,,3,9.1,10,10.9,0,0,0.9,0.35,0.55,2.35,10,initial,36.05,328,361,393,0,0,9,9,9,0,0,,,,,,,0,0,0,0,0,38,38,34,,,,,,,,,,,,num_2,3.491756600094959,num_2,0.45,0.6,0.6000000000000001,1.1,22.9233,42.02605,return,8.931204500142485,,,,,,,,,,,,,,,,,716,19,male,up_down_width,2024-10-24_13h08.56.122,exp1,2023.1.0,59.97537416124552,
,,,,,,,,,,,,,,,,4,8.65,9.55,10.45,11.35,0,0.9,0.35,0.55,3.25,10,initial,36.05,312,344,377,409,0,9,9,9,9,0,,,,,,,0,0,0,0,0,39,39,43,,,,,,,,,,,,num_4,3.52325710025616,num_4,0.4,1.2,0.6000000000000001,1.0,22.9233,38.2055,return,5.1948400002438575,,,,,,,,,,,,,,,,,716,19,male,up_down_width,2024-10-24_13h08.56.122,exp1,2023.1.0,59.97537416124552,
,,,,,,,,,,,,,,,,5,8.2,9.1,10,10.9,11.8,0.9,0.35,0.55,4.15,10,initial,36.05,296,328,361,393,425,9,9,9,9,9,,,,,,,0,0,0,0,0,40,40,53,,,,,,,,,,,,num_6,2.781704500084743,num_6,0.45,0.9,0.5,0.9,19.10275,34.38495,return,16.279001200105995,,,,,,,,,,,,,,,,,716,19,male,up_down_width,2024-10-24_13h08.56.122,exp1,2023.1.0,59.97537416124552,
,,,,,,,,,,,,,,,,4,8.65,9.55,10.45,11.35,0,0.9,0.35,0.55,3.25,10,initial,36.05,312,344,377,409,0,9,9,9,9,0,,,,,,,0,0,0,0,0,41,41,14,,,,,,,,,,,,num_5,4.963928400306031,num_5,0.4,0.9,0.5,0.8,19.10275,30.5644,return,8.409058300079778,,,,,,,,,,,,,,,,,716,19,male,up_down_width,2024-10-24_13h08.56.122,exp1,2023.1.0,59.97537416124552,
,,,,,,,,,,,,,,,,3,9.1,10,10.9,0,0,0.9,0.35,0.55,2.35,10,initial,36.05,328,361,393,0,0,9,9,9,0,0,,,,,,,0,0,0,0,0,42,42,1,,,,,,,,,,,,num_4,2.9409508001990616,num_4,0.2,0.9,0.44999999999999996,0.9,17.19248,34.38495,return,8.831718600122258,,,,,,,,,,,,,,,,,716,19,male,up_down_width,2024-10-24_13h08.56.122,exp1,2023.1.0,59.97537416124552,
,,,,,,,,,,,,,,,,4,8.65,9.55,10.45,11.35,0,0.9,0.35,0.55,3.25,10,initial,36.05,312,344,377,409,0,9,9,9,9,0,,,,,,,0,0,0,0,0,43,43,11,,,,,,,,,,,,num_4,3.1110181000549346,num_4,0.3,0.6,0.39999999999999997,0.9,15.2822,34.38495,return,9.43301529996097,,,,,,,,,,,,,,,,,716,19,male,up_down_width,2024-10-24_13h08.56.122,exp1,2023.1.0,59.97537416124552,
,,,,,,,,,,,,,,,,4,8.65,9.55,10.45,11.35,0,0.9,0.35,0.55,3.25,10,initial,36.05,312,344,377,409,0,9,9,9,9,0,,,,,,,0,0,0,0,0,44,44,44,,,,,,,,,,,,num_4,7.04952870006673,num_4,0.45,0.6,0.5,0.9,19.10275,34.38495,return,12.287730900105089,,,,,,,,,,,,,,,,,716,19,male,up_down_width,2024-10-24_13h08.56.122,exp1,2023.1.0,59.97537416124552,
,,,,,,,,,,,,,,,,4,8.65,9.55,10.45,11.35,0,0.9,0.35,0.55,3.25,10,initial,36.05,312,344,377,409,0,9,9,9,9,0,,,,,,,0,0,0,0,0,45,45,38,,,,,,,,,,,,num_4,3.1330410002265126,num_4,0.4,1.0,0.6000000000000001,1.1,22.9233,42.02605,return,14.250548999989405,,,,,,,,,,,,,,,,,716,19,male,up_down_width,2024-10-24_13h08.56.122,exp1,2023.1.0,59.97537416124552,
,,,,,,,,,,,,,,,,5,8.2,9.1,10,10.9,11.8,0.9,0.35,0.55,4.15,10,initial,36.05,296,328,361,393,425,9,9,9,9,9,,,,,,,0,0,0,0,0,46,46,19,,,,,,,,,,,,num_5,4.80119700008072,num_5,0.4,1.2,0.6500000000000001,1.1,24.83358,42.02605,return,7.9154003001749516,,,,,,,,,,,,,,,,,716,19,male,up_down_width,2024-10-24_13h08.56.122,exp1,2023.1.0,59.97537416124552,
,,,,,,,,,,,,,,,,3,9.1,10,10.9,0,0,0.9,0.35,0.55,2.35,10,initial,36.05,328,361,393,0,0,9,9,9,0,0,,,,,,,0,0,0,0,0,47,47,28,,,,,,,,,,,,num_3,1.8022640999406576,num_3,0.45,1,0.55,1.05,21.01303,40.11578,return,9.60160530009307,,,,,,,,,,,,,,,,,716,19,male,up_down_width,2024-10-24_13h08.56.122,exp1,2023.1.0,59.97537416124552,
,,,,,,,,,,,,,,,,5,8.2,9.1,10,10.9,11.8,0.9,0.35,0.55,4.15,10,initial,36.05,296,328,361,393,425,9,9,9,9,9,,,,,,,0,0,0,0,0,48,48,49,,,,,,,,,,,,num_6,3.5665229000151157,num_6,0.4,0.6,0.55,1.0,21.01303,38.2055,return,9.998280100058764,,,,,,,,,,,,,,,,,716,19,male,up_down_width,2024-10-24_13h08.56.122,exp1,2023.1.0,59.97537416124552,
,,,,,,,,,,,,,,,,5,8.2,9.1,10,10.9,11.8,0.9,0.35,0.55,4.15,10,initial,36.05,296,328,361,393,425,9,9,9,9,9,,,,,,,0,0,0,0,0,49,49,25,,,,,,,,,,,,num_6,3.4903686000034213,num_6,0.55,0.9,0.6000000000000001,0.9,22.9233,34.38495,return,8.90952210011892,,,,,,,,,,,,,,,,,716,19,male,up_down_width,2024-10-24_13h08.56.122,exp1,2023.1.0,59.97537416124552,
,,,,,,,,,,,,,,,,5,8.2,9.1,10,10.9,11.8,0.9,0.35,0.55,4.15,10,initial,36.05,296,328,361,393,425,9,9,9,9,9,,,,,,,0,0,0,0,0,50,50,45,,,,,,,,,,,,num_7,2.9394561999943107,num_7,0.25,0.9,0.5499999999999999,0.9,21.01303,34.38495,return,23.53951820009388,,,,,,,,,,,,,,,,,716,19,male,up_down_width,2024-10-24_13h08.56.122,exp1,2023.1.0,59.97537416124552,
,,,,,,,,,,,,,,,,5,8.2,9.1,10,10.9,11.8,0.9,0.35,0.55,4.15,10,initial,36.05,296,328,361,393,425,9,9,9,9,9,,,,,,,0,0,0,0,0,51,51,50,,,,,,,,,,,,num_5,1.9460929001215845,num_5,0.45,1.2,0.45,0.95,17.19248,36.29523,return,15.253035500179976,,,,,,,,,,,,,,,,,716,19,male,up_down_width,2024-10-24_13h08.56.122,exp1,2023.1.0,59.97537416124552,
,,,,,,,,,,,,,,,,4,8.65,9.55,10.45,11.35,0,0.9,0.35,0.55,3.25,10,initial,36.05,312,344,377,409,0,9,9,9,9,0,,,,,,,0,0,0,0,0,52,52,42,,,,,,,,,,,,num_4,1.471749900141731,num_4,0.45,1.0,0.45,0.8,17.19248,30.5644,return,9.3159676999785,,,,,,,,,,,,,,,,,716,19,male,up_down_width,2024-10-24_13h08.56.122,exp1,2023.1.0,59.97537416124552,
,,,,,,,,,,,,,,,,4,8.65,9.55,10.45,11.35,0,0.9,0.35,0.55,3.25,10,initial,36.05,312,344,377,409,0,9,9,9,9,0,,,,,,,0,0,0,0,0,53,53,36,,,,,,,,,,,,num_5,1.9199422001838684,num_5,0.45,1.1,0.4,0.8,15.2822,30.5644,return,7.2259774000849575,,,,,,,,,,,,,,,,,716,19,male,up_down_width,2024-10-24_13h08.56.122,exp1,2023.1.0,59.97537416124552,
,,,,,,,,,,,,,,,,,,,,,,,,,,,,,,,,,,,,,,,,,,,,,0,0,0,0,,,,,,,,,,,,,,,,,,,,,,,,,,,,,1402.607931100065,1402.607931100065,1402.607931100065,,,,,,,,,,,,716,19,male,up_down_width,2024-10-24_13h08.56.122,exp1,2023.1.0,59.97537416124552,
,,,,,,,,,,,,,,,,5,9,9.5,10,10.5,11,0.5,0.25,0.25,2.25,10,initial,36.05,324,342,361,379,397,9,9,9,9,9,,,,,,,1,0,1,0,0,0,0,48,,,,,,,,,,,,num_2,2.499901599949226,num_2,0.2,1.2,0.2,0.6,7.6411,22.9233,return,7.182986699976027,,,,,,,,,,,,,,,,,716,19,male,up_down_width,2024-10-24_13h08.56.122,exp1,2023.1.0,59.97537416124552,
,,,,,,,,,,,,,,,,4,9.25,9.75,10.25,10.75,0,0.5,0.25,0.25,1.75,10,initial,36.05,333,351,370,388,0,9,9,9,9,0,,,,,,,1,0,1,0,0,1,1,41,,,,,,,,,,,,num_4,2.641300299903378,num_4,0.3,0.3,0.15000000000000002,0.4,5.73083,15.2822,return,6.838370800251141,,,,,,,,,,,,,,,,,716,19,male,up_down_width,2024-10-24_13h08.56.122,exp1,2023.1.0,59.97537416124552,
,,,,,,,,,,,,,,,,3,9.5,10,10.5,0,0,0.5,0.25,0.25,1.25,10,initial,36.05,342,361,379,0,0,9,9,9,0,0,,,,,,,1,0,1,0,0,2,2,27,,,,,,,,,,,,num_3,1.3842565000522882,num_3,0.45,1,0.20000000000000007,0.5,7.6411,19.10275,return,9.582787800114602,,,,,,,,,,,,,,,,,716,19,male,up_down_width,2024-10-24_13h08.56.122,exp1,2023.1.0,59.97537416124552,
,,,,,,,,,,,,,,,,5,9,9.5,10,10.5,11,0.5,0.25,0.25,2.25,10,initial,36.05,324,342,361,379,397,9,9,9,9,9,,,,,,,1,0,1,0,0,3,3,47,,,,,,,,,,,,num_6,1.4007238000631332,num_6,0.4,1.3,0.15000000000000008,0.5,5.73083,19.10275,return,13.35865609999746,,,,,,,,,,,,,,,,,716,19,male,up_down_width,2024-10-24_13h08.56.122,exp1,2023.1.0,59.97537416124552,
,,,,,,,,,,,,,,,,3,9.5,10,10.5,0,0,0.5,0.25,0.25,1.25,10,initial,36.05,342,361,379,0,0,9,9,9,0,0,,,,,,,1,0,1,0,0,4,4,0,,,,,,,,,,,,num_3,1.6328800001647323,num_3,0.4,0.8,0.20000000000000007,0.6,7.6411,22.9233,return,5.82198980031535,,,,,,,,,,,,,,,,,716,19,male,up_down_width,2024-10-24_13h08.56.122,exp1,2023.1.0,59.97537416124552,
,,,,,,,,,,,,,,,,3,9.5,10,10.5,0,0,0.5,0.25,0.25,1.25,10,initial,36.05,342,361,379,0,0,9,9,9,0,0,,,,,,,1,0,1,0,0,5,5,6,,,,,,,,,,,,num_3,2.1788900000974536,num_3,0.35,0.5,0.2,0.55,7.6411,21.01303,return,5.894258199958131,,,,,,,,,,,,,,,,,716,19,male,up_down_width,2024-10-24_13h08.56.122,exp1,2023.1.0,59.97537416124552,
,,,,,,,,,,,,,,,,3,9.5,10,10.5,0,0,0.5,0.25,0.25,1.25,10,initial,36.05,342,361,379,0,0,9,9,9,0,0,,,,,,,1,0,1,0,0,6,6,29,,,,,,,,,,,,num_3,2.037757799960673,num_3,0.25,0.5,0.2,0.6,7.6411,22.9233,return,8.571867800084874,,,,,,,,,,,,,,,,,716,19,male,up_down_width,2024-10-24_13h08.56.122,exp1,2023.1.0,59.97537416124552,
,,,,,,,,,,,,,,,,4,9.25,9.75,10.25,10.75,0,0.5,0.25,0.25,1.75,10,initial,36.05,333,351,370,388,0,9,9,9,9,0,,,,,,,1,0,1,0,0,7,7,12,,,,,,,,,,,,num_4,1.6149526999797672,num_4,0.3,1.2,0.15000000000000002,0.4,5.73083,15.2822,return,7.195036600111052,,,,,,,,,,,,,,,,,716,19,male,up_down_width,2024-10-24_13h08.56.122,exp1,2023.1.0,59.97537416124552,
,,,,,,,,,,,,,,,,3,9.5,10,10.5,0,0,0.5,0.25,0.25,1.25,10,initial,36.05,342,361,379,0,0,9,9,9,0,0,,,,,,,1,0,1,0,0,8,8,4,,,,,,,,,,,,num_3,1.3991659001912922,num_3,0.2,0.9,0.2,0.65,7.6411,24.83358,return,3.8544089002534747,,,,,,,,,,,,,,,,,716,19,male,up_down_width,2024-10-24_13h08.56.122,exp1,2023.1.0,59.97537416124552,
,,,,,,,,,,,,,,,,4,9.25,9.75,10.25,10.75,0,0.5,0.25,0.25,1.75,10,initial,36.05,333,351,370,388,0,9,9,9,9,0,,,,,,,1,0,1,0,0,9,9,42,,,,,,,,,,,,num_5,1.387386100133881,num_5,0.35,0.8,0.15000000000000002,0.55,5.73083,21.01303,return,7.975956300040707,,,,,,,,,,,,,,,,,716,19,male,up_down_width,2024-10-24_13h08.56.122,exp1,2023.1.0,59.97537416124552,
,,,,,,,,,,,,,,,,4,9.25,9.75,10.25,10.75,0,0.5,0.25,0.25,1.75,10,initial,36.05,333,351,370,388,0,9,9,9,9,0,,,,,,,1,0,1,0,0,10,10,43,,,,,,,,,,,,num_4,3.8147955001331866,num_4,0.3,0.5,0.10000000000000002,0.4,3.82055,15.2822,return,9.866465800208971,,,,,,,,,,,,,,,,,716,19,male,up_down_width,2024-10-24_13h08.56.122,exp1,2023.1.0,59.97537416124552,
,,,,,,,,,,,,,,,,3,9.5,10,10.5,0,0,0.5,0.25,0.25,1.25,10,initial,36.05,342,361,379,0,0,9,9,9,0,0,,,,,,,1,0,1,0,0,11,11,32,,,,,,,,,,,,num_3,1.6103973002173007,num_3,0.45,0.9,0.25000000000000006,0.6,9.55138,22.9233,return,6.647746100090444,,,,,,,,,,,,,,,,,716,19,male,up_down_width,2024-10-24_13h08.56.122,exp1,2023.1.0,59.97537416124552,
,,,,,,,,,,,,,,,,5,9,9.5,10,10.5,11,0.5,0.25,0.25,2.25,10,initial,36.05,324,342,361,379,397,9,9,9,9,9,,,,,,,1,0,1,0,0,12,12,51,,,,,,,,,,,,num_7,3.2658558001276106,num_7,0.45,1.2,0.15000000000000008,0.6,5.73083,22.9233,return,13.485741900280118,,,,,,,,,,,,,,,,,716,19,male,up_down_width,2024-10-24_13h08.56.122,exp1,2023.1.0,59.97537416124552,
,,,,,,,,,,,,,,,,5,9,9.5,10,10.5,11,0.5,0.25,0.25,2.25,10,initial,36.05,324,342,361,379,397,9,9,9,9,9,,,,,,,1,0,1,0,0,13,13,22,,,,,,,,,,,,num_6,2.2309739000629634,num_6,0.45,1.0,0.15000000000000008,0.6,5.73083,22.9233,return,12.232883700169623,,,,,,,,,,,,,,,,,716,19,male,up_down_width,2024-10-24_13h08.56.122,exp1,2023.1.0,59.97537416124552,
,,,,,,,,,,,,,,,,5,9,9.5,10,10.5,11,0.5,0.25,0.25,2.25,10,initial,36.05,324,342,361,379,397,9,9,9,9,9,,,,,,,1,0,1,0,0,14,14,50,,,,,,,,,,,,num_5,2.9060852001421154,num_5,0.25,1.3,0.2,0.7,7.6411,26.74385,return,9.582107000052929,,,,,,,,,,,,,,,,,716,19,male,up_down_width,2024-10-24_13h08.56.122,exp1,2023.1.0,59.97537416124552,
,,,,,,,,,,,,,,,,4,9.25,9.75,10.25,10.75,0,0.5,0.25,0.25,1.75,10,initial,36.05,333,351,370,388,0,9,9,9,9,0,,,,,,,1,0,1,0,0,15,15,11,,,,,,,,,,,,num_4,1.6144270000513643,num_4,0.3,0.5,0.2,0.8,7.6411,30.5644,return,11.671064299996942,,,,,,,,,,,,,,,,,716,19,male,up_down_width,2024-10-24_13h08.56.122,exp1,2023.1.0,59.97537416124552,
,,,,,,,,,,,,,,,,3,9.5,10,10.5,0,0,0.5,0.25,0.25,1.25,10,initial,36.05,342,361,379,0,0,9,9,9,0,0,,,,,,,1,0,1,0,0,16,16,35,,,,,,,,,,,,num_3,6.177028700010851,num_3,0.55,0.9,0.25000000000000006,0.7,9.55138,26.74385,return,7.464781200047582,,,,,,,,,,,,,,,,,716,19,male,up_down_width,2024-10-24_13h08.56.122,exp1,2023.1.0,59.97537416124552,
,,,,,,,,,,,,,,,,4,9.25,9.75,10.25,10.75,0,0.5,0.25,0.25,1.75,10,initial,36.05,333,351,370,388,0,9,9,9,9,0,,,,,,,1,0,1,0,0,17,17,13,,,,,,,,,,,,num_5,8.762445600004867,num_5,0.4,1.0,0.15000000000000008,0.55,5.73083,21.01303,return,6.89275490003638,,,,,,,,,,,,,,,,,716,19,male,up_down_width,2024-10-24_13h08.56.122,exp1,2023.1.0,59.97537416124552,
,,,,,,,,,,,,,,,,5,9,9.5,10,10.5,11,0.5,0.25,0.25,2.25,10,initial,36.05,324,342,361,379,397,9,9,9,9,9,,,,,,,1,0,1,0,0,18,18,18,,,,,,,,,,,,num_7,4.774107500212267,num_7,0.2,1.0,0.2,0.55,7.6411,21.01303,return,5.5352572000119835,,,,,,,,,,,,,,,,,716,19,male,up_down_width,2024-10-24_13h08.56.122,exp1,2023.1.0,59.97537416124552,
,,,,,,,,,,,,,,,,3,9.5,10,10.5,0,0,0.5,0.25,0.25,1.25,10,initial,36.05,342,361,379,0,0,9,9,9,0,0,,,,,,,1,0,1,0,0,19,19,3,,,,,,,,,,,,num_3,1.7651074002496898,num_3,0.3,0.4,0.25,0.65,9.55138,24.83358,return,7.898078300291672,,,,,,,,,,,,,,,,,716,19,male,up_down_width,2024-10-24_13h08.56.122,exp1,2023.1.0,59.97537416124552,
,,,,,,,,,,,,,,,,5,9,9.5,10,10.5,11,0.5,0.25,0.25,2.25,10,initial,36.05,324,342,361,379,397,9,9,9,9,9,,,,,,,1,0,1,0,0,20,20,26,,,,,,,,,,,,num_6,1.9705377002246678,num_6,0.4,0.9,0.25000000000000006,0.6,9.55138,22.9233,return,9.372582700103521,,,,,,,,,,,,,,,,,716,19,male,up_down_width,2024-10-24_13h08.56.122,exp1,2023.1.0,59.97537416124552,
,,,,,,,,,,,,,,,,4,9.25,9.75,10.25,10.75,0,0.5,0.25,0.25,1.75,10,initial,36.05,333,351,370,388,0,9,9,9,9,0,,,,,,,1,0,1,0,0,21,21,15,,,,,,,,,,,,num_5,2.045604200102389,num_5,0.35,1.3,0.2,0.5,7.6411,19.10275,return,9.173646400216967,,,,,,,,,,,,,,,,,716,19,male,up_down_width,2024-10-24_13h08.56.122,exp1,2023.1.0,59.97537416124552,
,,,,,,,,,,,,,,,,4,9.25,9.75,10.25,10.75,0,0.5,0.25,0.25,1.75,10,initial,36.05,333,351,370,388,0,9,9,9,9,0,,,,,,,1,0,1,0,0,22,22,44,,,,,,,,,,,,num_4,1.4997408001217991,num_4,0.35,0.8,0.2,0.5,7.6411,19.10275,return,5.390993100125343,,,,,,,,,,,,,,,,,716,19,male,up_down_width,2024-10-24_13h08.56.122,exp1,2023.1.0,59.97537416124552,
,,,,,,,,,,,,,,,,4,9.25,9.75,10.25,10.75,0,0.5,0.25,0.25,1.75,10,initial,36.05,333,351,370,388,0,9,9,9,9,0,,,,,,,1,0,1,0,0,23,23,9,,,,,,,,,,,,num_4,2.415954800089821,num_4,0.55,0.7,0.30000000000000004,0.8,11.46165,30.5644,return,6.17000350006856,,,,,,,,,,,,,,,,,716,19,male,up_down_width,2024-10-24_13h08.56.122,exp1,2023.1.0,59.97537416124552,
,,,,,,,,,,,,,,,,5,9,9.5,10,10.5,11,0.5,0.25,0.25,2.25,10,initial,36.05,324,342,361,379,397,9,9,9,9,9,,,,,,,1,0,1,0,0,24,24,53,,,,,,,,,,,,num_6,1.8805412002839148,num_6,0.55,1.0,0.25000000000000006,0.6,9.55138,22.9233,return,6.9979363000020385,,,,,,,,,,,,,,,,,716,19,male,up_down_width,2024-10-24_13h08.56.122,exp1,2023.1.0,59.97537416124552,
,,,,,,,,,,,,,,,,3,9.5,10,10.5,0,0,0.5,0.25,0.25,1.25,10,initial,36.05,342,361,379,0,0,9,9,9,0,0,,,,,,,1,0,1,0,0,25,25,8,,,,,,,,,,,,num_3,1.3406942000146955,num_3,0.55,1.3,0.30000000000000004,0.7,11.46165,26.74385,return,10.372635300038382,,,,,,,,,,,,,,,,,716,19,male,up_down_width,2024-10-24_13h08.56.122,exp1,2023.1.0,59.97537416124552,
,,,,,,,,,,,,,,,,3,9.5,10,10.5,0,0,0.5,0.25,0.25,1.25,10,initial,36.05,342,361,379,0,0,9,9,9,0,0,,,,,,,1,0,1,0,0,26,26,5,,,,,,,,,,,,num_2,1.6091273000929505,num_2,0.25,0.8,0.25,0.5,9.55138,19.10275,return,4.21315070008859,,,,,,,,,,,,,,,,,716,19,male,up_down_width,2024-10-24_13h08.56.122,exp1,2023.1.0,59.97537416124552,
,,,,,,,,,,,,,,,,5,9,9.5,10,10.5,11,0.5,0.25,0.25,2.25,10,initial,36.05,324,342,361,379,397,9,9,9,9,9,,,,,,,1,0,1,0,0,27,27,45,,,,,,,,,,,,num_6,1.249452600022778,num_6,0.2,1.0,0.3,0.6,11.46165,22.9233,return,4.761569700203836,,,,,,,,,,,,,,,,,716,19,male,up_down_width,2024-10-24_13h08.56.122,exp1,2023.1.0,59.97537416124552,
,,,,,,,,,,,,,,,,3,9.5,10,10.5,0,0,0.5,0.25,0.25,1.25,10,initial,36.05,342,361,379,0,0,9,9,9,0,0,,,,,,,1,0,1,0,0,28,28,31,,,,,,,,,,,,num_3,1.1711277000140399,num_3,0.35,0.5,0.3,0.7,11.46165,26.74385,return,5.875032000010833,,,,,,,,,,,,,,,,,716,19,male,up_down_width,2024-10-24_13h08.56.122,exp1,2023.1.0,59.97537416124552,
,,,,,,,,,,,,,,,,4,9.25,9.75,10.25,10.75,0,0.5,0.25,0.25,1.75,10,initial,36.05,333,351,370,388,0,9,9,9,9,0,,,,,,,1,0,1,0,0,29,29,36,,,,,,,,,,,,num_4,1.2643179001752287,num_4,0.55,0.8,0.20000000000000007,0.5,7.6411,19.10275,return,4.446071200072765,,,,,,,,,,,,,,,,,716,19,male,up_down_width,2024-10-24_13h08.56.122,exp1,2023.1.0,59.97537416124552,
,,,,,,,,,,,,,,,,4,9.25,9.75,10.25,10.75,0,0.5,0.25,0.25,1.75,10,initial,36.05,333,351,370,388,0,9,9,9,9,0,,,,,,,1,0,1,0,0,30,30,37,,,,,,,,,,,,num_4,1.3792359000071883,num_4,0.45,0.9,0.35000000000000003,0.7,13.37193,26.74385,return,6.484419699991122,,,,,,,,,,,,,,,,,716,19,male,up_down_width,2024-10-24_13h08.56.122,exp1,2023.1.0,59.97537416124552,
,,,,,,,,,,,,,,,,4,9.25,9.75,10.25,10.75,0,0.5,0.25,0.25,1.75,10,initial,36.05,333,351,370,388,0,9,9,9,9,0,,,,,,,1,0,1,0,0,31,31,14,,,,,,,,,,,,num_4,1.3691513000521809,num_4,0.25,0.5,0.25,0.7,9.55138,26.74385,return,3.6013061001431197,,,,,,,,,,,,,,,,,716,19,male,up_down_width,2024-10-24_13h08.56.122,exp1,2023.1.0,59.97537416124552,
,,,,,,,,,,,,,,,,5,9,9.5,10,10.5,11,0.5,0.25,0.25,2.25,10,initial,36.05,324,342,361,379,397,9,9,9,9,9,,,,,,,1,0,1,0,0,32,32,19,,,,,,,,,,,,num_5,5.502313900273293,num_5,0.45,1.2,0.20000000000000007,0.5,7.6411,19.10275,return,7.057775900233537,,,,,,,,,,,,,,,,,716,19,male,up_down_width,2024-10-24_13h08.56.122,exp1,2023.1.0,59.97537416124552,
,,,,,,,,,,,,,,,,4,9.25,9.75,10.25,10.75,0,0.5,0.25,0.25,1.75,10,initial,36.05,333,351,370,388,0,9,9,9,9,0,,,,,,,1,0,1,0,0,33,33,17,,,,,,,,,,,,num_4,3.070916600059718,num_4,0.55,1.0,0.25000000000000006,0.6,9.55138,22.9233,return,5.283045300049707,,,,,,,,,,,,,,,,,716,19,male,up_down_width,2024-10-24_13h08.56.122,exp1,2023.1.0,59.97537416124552,
,,,,,,,,,,,,,,,,4,9.25,9.75,10.25,10.75,0,0.5,0.25,0.25,1.75,10,initial,36.05,333,351,370,388,0,9,9,9,9,0,,,,,,,1,0,1,0,0,34,34,40,,,,,,,,,,,,num_4,2.224632400088012,num_4,0.3,0.5,0.3,0.6,11.46165,22.9233,return,6.675541199976578,,,,,,,,,,,,,,,,,716,19,male,up_down_width,2024-10-24_13h08.56.122,exp1,2023.1.0,59.97537416124552,
,,,,,,,,,,,,,,,,3,9.5,10,10.5,0,0,0.5,0.25,0.25,1.25,10,initial,36.05,342,361,379,0,0,9,9,9,0,0,,,,,,,1,0,1,0,0,35,35,28,,,,,,,,,,,,num_3,1.288488200167194,num_3,0.4,0.7,0.30000000000000004,0.6,11.46165,22.9233,return,5.693857799982652,,,,,,,,,,,,,,,,,716,19,male,up_down_width,2024-10-24_13h08.56.122,exp1,2023.1.0,59.97537416124552,
,,,,,,,,,,,,,,,,5,9,9.5,10,10.5,11,0.5,0.25,0.25,2.25,10,initial,36.05,324,342,361,379,397,9,9,9,9,9,,,,,,,1,0,1,0,0,36,36,24,,,,,,,,,,,,num_6,2.518919600173831,num_6,0.55,1.1,0.20000000000000007,0.5,7.6411,19.10275,return,7.040401900187135,,,,,,,,,,,,,,,,,716,19,male,up_down_width,2024-10-24_13h08.56.122,exp1,2023.1.0,59.97537416124552,
,,,,,,,,,,,,,,,,5,9,9.5,10,10.5,11,0.5,0.25,0.25,2.25,10,initial,36.05,324,342,361,379,397,9,9,9,9,9,,,,,,,1,0,1,0,0,37,37,49,,,,,,,,,,,,num_6,1.2885075001977384,num_6,0.45,0.6,0.20000000000000007,0.5,7.6411,19.10275,return,4.332349099917337,,,,,,,,,,,,,,,,,716,19,male,up_down_width,2024-10-24_13h08.56.122,exp1,2023.1.0,59.97537416124552,
,,,,,,,,,,,,,,,,3,9.5,10,10.5,0,0,0.5,0.25,0.25,1.25,10,initial,36.05,342,361,379,0,0,9,9,9,0,0,,,,,,,1,0,1,0,0,38,38,34,,,,,,,,,,,,num_2,2.024357900256291,num_2,0.55,0.6,0.30000000000000004,0.6,11.46165,22.9233,return,6.196747200097889,,,,,,,,,,,,,,,,,716,19,male,up_down_width,2024-10-24_13h08.56.122,exp1,2023.1.0,59.97537416124552,
,,,,,,,,,,,,,,,,5,9,9.5,10,10.5,11,0.5,0.25,0.25,2.25,10,initial,36.05,324,342,361,379,397,9,9,9,9,9,,,,,,,1,0,1,0,0,39,39,52,,,,,,,,,,,,num_5,3.24253090005368,num_5,0.3,1.0,0.25,0.5,9.55138,19.10275,return,7.666324900230393,,,,,,,,,,,,,,,,,716,19,male,up_down_width,2024-10-24_13h08.56.122,exp1,2023.1.0,59.97537416124552,
,,,,,,,,,,,,,,,,3,9.5,10,10.5,0,0,0.5,0.25,0.25,1.25,10,initial,36.05,342,361,379,0,0,9,9,9,0,0,,,,,,,1,0,1,0,0,40,40,1,,,,,,,,,,,,num_3,1.3498118999414146,num_3,0.3,0.7,0.35,0.55,13.37193,21.01303,return,3.854602900100872,,,,,,,,,,,,,,,,,716,19,male,up_down_width,2024-10-24_13h08.56.122,exp1,2023.1.0,59.97537416124552,
,,,,,,,,,,,,,,,,5,9,9.5,10,10.5,11,0.5,0.25,0.25,2.25,10,initial,36.05,324,342,361,379,397,9,9,9,9,9,,,,,,,1,0,1,0,0,41,41,25,,,,,,,,,,,,num_7,2.6222488000057638,num_7,0.5,0.8,0.30000000000000004,0.55,11.46165,21.01303,return,10.355112900026143,,,,,,,,,,,,,,,,,716,19,male,up_down_width,2024-10-24_13h08.56.122,exp1,2023.1.0,59.97537416124552,
,,,,,,,,,,,,,,,,3,9.5,10,10.5,0,0,0.5,0.25,0.25,1.25,10,initial,36.05,342,361,379,0,0,9,9,9,0,0,,,,,,,1,0,1,0,0,42,42,2,,,,,,,,,,,,num_2,1.5179026999976486,num_2,0.25,0.8,0.39999999999999997,0.7,15.2822,26.74385,return,2.6834543000441045,,,,,,,,,,,,,,,,,716,19,male,up_down_width,2024-10-24_13h08.56.122,exp1,2023.1.0,59.97537416124552,
,,,,,,,,,,,,,,,,5,9,9.5,10,10.5,11,0.5,0.25,0.25,2.25,10,initial,36.05,324,342,361,379,397,9,9,9,9,9,,,,,,,1,0,1,0,0,43,43,46,,,,,,,,,,,,num_6,2.877809200203046,num_6,0.3,1.0,0.3,0.7,11.46165,26.74385,return,5.681571200024337,,,,,,,,,,,,,,,,,716,19,male,up_down_width,2024-10-24_13h08.56.122,exp1,2023.1.0,59.97537416124552,
,,,,,,,,,,,,,,,,4,9.25,9.75,10.25,10.75,0,0.5,0.25,0.25,1.75,10,initial,36.05,333,351,370,388,0,9,9,9,9,0,,,,,,,1,0,1,0,0,44,44,39,,,,,,,,,,,,num_4,1.6479107001796365,num_4,0.45,1.1,0.30000000000000004,0.6,11.46165,22.9233,return,7.019756900146604,,,,,,,,,,,,,,,,,716,19,male,up_down_width,2024-10-24_13h08.56.122,exp1,2023.1.0,59.97537416124552,
,,,,,,,,,,,,,,,,4,9.25,9.75,10.25,10.75,0,0.5,0.25,0.25,1.75,10,initial,36.05,333,351,370,388,0,9,9,9,9,0,,,,,,,1,0,1,0,0,45,45,38,,,,,,,,,,,,num_5,2.2457684001419693,num_5,0.4,1.3,0.20000000000000007,0.5,7.6411,19.10275,return,9.499327700119466,,,,,,,,,,,,,,,,,716,19,male,up_down_width,2024-10-24_13h08.56.122,exp1,2023.1.0,59.97537416124552,
,,,,,,,,,,,,,,,,5,9,9.5,10,10.5,11,0.5,0.25,0.25,2.25,10,initial,36.05,324,342,361,379,397,9,9,9,9,9,,,,,,,1,0,1,0,0,46,46,20,,,,,,,,,,,,num_6,5.1517190001904964,num_6,0.4,1.0,0.15000000000000008,0.4,5.73083,15.2822,return,7.408226000145078,,,,,,,,,,,,,,,,,716,19,male,up_down_width,2024-10-24_13h08.56.122,exp1,2023.1.0,59.97537416124552,
,,,,,,,,,,,,,,,,4,9.25,9.75,10.25,10.75,0,0.5,0.25,0.25,1.75,10,initial,36.05,333,351,370,388,0,9,9,9,9,0,,,,,,,1,0,1,0,0,47,47,10,,,,,,,,,,,,num_4,2.7801164002157748,num_4,0.25,0.5,0.3,0.6,11.46165,22.9233,return,4.059476300142705,,,,,,,,,,,,,,,,,716,19,male,up_down_width,2024-10-24_13h08.56.122,exp1,2023.1.0,59.97537416124552,
,,,,,,,,,,,,,,,,3,9.5,10,10.5,0,0,0.5,0.25,0.25,1.25,10,initial,36.05,342,361,379,0,0,9,9,9,0,0,,,,,,,1,0,1,0,0,48,48,7,,,,,,,,,,,,num_3,1.3695978000760078,num_3,0.35,1.1,0.3,0.6,11.46165,22.9233,return,5.581468100193888,,,,,,,,,,,,,,,,,716,19,male,up_down_width,2024-10-24_13h08.56.122,exp1,2023.1.0,59.97537416124552,
,,,,,,,,,,,,,,,,4,9.25,9.75,10.25,10.75,0,0.5,0.25,0.25,1.75,10,initial,36.05,333,351,370,388,0,9,9,9,9,0,,,,,,,1,0,1,0,0,49,49,16,,,,,,,,,,,,num_5,1.6124200001358986,num_5,0.2,1.0,0.3,0.55,11.46165,21.01303,return,4.698461200110614,,,,,,,,,,,,,,,,,716,19,male,up_down_width,2024-10-24_13h08.56.122,exp1,2023.1.0,59.97537416124552,
,,,,,,,,,,,,,,,,5,9,9.5,10,10.5,11,0.5,0.25,0.25,2.25,10,initial,36.05,324,342,361,379,397,9,9,9,9,9,,,,,,,1,0,1,0,0,50,50,23,,,,,,,,,,,,num_4,2.139349500183016,num_4,0.3,1.1,0.39999999999999997,0.7,15.2822,26.74385,return,6.2428814000450075,,,,,,,,,,,,,,,,,716,19,male,up_down_width,2024-10-24_13h08.56.122,exp1,2023.1.0,59.97537416124552,
,,,,,,,,,,,,,,,,3,9.5,10,10.5,0,0,0.5,0.25,0.25,1.25,10,initial,36.05,342,361,379,0,0,9,9,9,0,0,,,,,,,1,0,1,0,0,51,51,30,,,,,,,,,,,,num_2,1.4748371001332998,num_2,0.45,0.8,0.35000000000000003,0.7,13.37193,26.74385,return,6.562189399963245,,,,,,,,,,,,,,,,,716,19,male,up_down_width,2024-10-24_13h08.56.122,exp1,2023.1.0,59.97537416124552,
,,,,,,,,,,,,,,,,3,9.5,10,10.5,0,0,0.5,0.25,0.25,1.25,10,initial,36.05,342,361,379,0,0,9,9,9,0,0,,,,,,,1,0,1,0,0,52,52,33,,,,,,,,,,,,num_3,2.1095255999825895,num_3,0.5,1,0.35000000000000003,0.7,13.37193,26.74385,return,7.0568439001217484,,,,,,,,,,,,,,,,,716,19,male,up_down_width,2024-10-24_13h08.56.122,exp1,2023.1.0,59.97537416124552,
,,,,,,,,,,,,,,,,5,9,9.5,10,10.5,11,0.5,0.25,0.25,2.25,10,initial,36.05,324,342,361,379,397,9,9,9,9,9,,,,,,,1,0,1,0,0,53,53,21,,,,,,,,,,,,num_7,2.3466338999569416,num_7,0.45,0.6,0.30000000000000004,0.55,11.46165,21.01303,return,5.9117237001191825,,,,,,,,,,,,,,,,,716,19,male,up_down_width,2024-10-24_13h08.56.122,exp1,2023.1.0,59.97537416124552,
,,,,,,,,,,,,,,,,,,,,,,,,,,,,,,,,,,,,,,,,,,,,,1,0,1,0,,,,,,,,,,,,,,,,,,,,,,,,,,,,,2039.4398715000134,2039.4398715000134,2039.4398715000134,,,,,,,,,,,,716,19,male,up_down_width,2024-10-24_13h08.56.122,exp1,2023.1.0,59.97537416124552,
,,,,,,,,,,,,,,,,5,9,9.5,10,10.5,11,0.5,0.1,0.4,2.4,10,initial,36.05,324,342,361,379,397,9,9,9,9,9,,,,,,,2,0,2,0,0,0,0,45,,,,,,,,,,,,num_5,3.8435001999605447,num_5,0.5,1.0,0.5,0.7,19.10275,26.74385,return,2.8366390003357083,,,,,,,,,,,,,,,,,716,19,male,up_down_width,2024-10-24_13h08.56.122,exp1,2023.1.0,59.97537416124552,
,,,,,,,,,,,,,,,,3,9.5,10,10.5,0,0,0.5,0.1,0.4,1.4000000000000001,10,initial,36.05,342,361,379,0,0,9,9,9,0,0,,,,,,,2,0,2,0,0,1,1,4,,,,,,,,,,,,num_2,1.7730018000584096,num_2,0.2,0.6,0.44999999999999996,0.7,17.19248,26.74385,return,4.805039200233296,,,,,,,,,,,,,,,,,716,19,male,up_down_width,2024-10-24_13h08.56.122,exp1,2023.1.0,59.97537416124552,
,,,,,,,,,,,,,,,,3,9.5,10,10.5,0,0,0.5,0.1,0.4,1.4000000000000001,10,initial,36.05,342,361,379,0,0,9,9,9,0,0,,,,,,,2,0,2,0,0,2,2,31,,,,,,,,,,,,num_2,1.7828769001644105,num_2,0.3,0.8,0.39999999999999997,0.6,15.2822,22.9233,return,3.2569224000908434,,,,,,,,,,,,,,,,,716,19,male,up_down_width,2024-10-24_13h08.56.122,exp1,2023.1.0,59.97537416124552,
,,,,,,,,,,,,,,,,4,9.25,9.75,10.25,10.75,0,0.5,0.1,0.4,1.9000000000000001,10,initial,36.05,333,351,370,388,0,9,9,9,9,0,,,,,,,2,0,2,0,0,3,3,39,,,,,,,,,,,,num_4,1.7318017003126442,num_4,0.55,0.9,0.5,0.7,19.10275,26.74385,return,7.918140800204128,,,,,,,,,,,,,,,,,716,19,male,up_down_width,2024-10-24_13h08.56.122,exp1,2023.1.0,59.97537416124552,
,,,,,,,,,,,,,,,,5,9,9.5,10,10.5,11,0.5,0.1,0.4,2.4,10,initial,36.05,324,342,361,379,397,9,9,9,9,9,,,,,,,2,0,2,0,0,4,4,47,,,,,,,,,,,,num_5,2.7297472001519054,num_5,0.2,0.4,0.39999999999999997,0.55,15.2822,21.01303,return,4.98852359992452,,,,,,,,,,,,,,,,,716,19,male,up_down_width,2024-10-24_13h08.56.122,exp1,2023.1.0,59.97537416124552,
,,,,,,,,,,,,,,,,5,9,9.5,10,10.5,11,0.5,0.1,0.4,2.4,10,initial,36.05,324,342,361,379,397,9,9,9,9,9,,,,,,,2,0,2,0,0,5,5,51,,,,,,,,,,,,num_6,2.0010436000302434,num_6,0.5,0.8,0.45,0.6,17.19248,22.9233,return,11.263536000158638,,,,,,,,,,,,,,,,,716,19,male,up_down_width,2024-10-24_13h08.56.122,exp1,2023.1.0,59.97537416124552,
,,,,,,,,,,,,,,,,5,9,9.5,10,10.5,11,0.5,0.1,0.4,2.4,10,initial,36.05,324,342,361,379,397,9,9,9,9,9,,,,,,,2,0,2,0,0,6,6,26,,,,,,,,,,,,num_5,3.499276200076565,num_5,0.25,1.3,0.44999999999999996,0.6,17.19248,22.9233,return,7.87870050012134,,,,,,,,,,,,,,,,,716,19,male,up_down_width,2024-10-24_13h08.56.122,exp1,2023.1.0,59.97537416124552,
,,,,,,,,,,,,,,,,5,9,9.5,10,10.5,11,0.5,0.1,0.4,2.4,10,initial,36.05,324,342,361,379,397,9,9,9,9,9,,,,,,,2,0,2,0,0,7,7,22,,,,,,,,,,,,num_6,2.7044345000758767,num_6,0.2,1.2,0.44999999999999996,0.6,17.19248,22.9233,return,7.689140100264922,,,,,,,,,,,,,,,,,716,19,male,up_down_width,2024-10-24_13h08.56.122,exp1,2023.1.0,59.97537416124552,
,,,,,,,,,,,,,,,,5,9,9.5,10,10.5,11,0.5,0.1,0.4,2.4,10,initial,36.05,324,342,361,379,397,9,9,9,9,9,,,,,,,2,0,2,0,0,8,8,48,,,,,,,,,,,,num_5,3.815637700026855,num_5,0.35,1.0,0.49999999999999994,0.65,19.10275,24.83358,return,5.054239900084212,,,,,,,,,,,,,,,,,716,19,male,up_down_width,2024-10-24_13h08.56.122,exp1,2023.1.0,59.97537416124552,
,,,,,,,,,,,,,,,,3,9.5,10,10.5,0,0,0.5,0.1,0.4,1.4000000000000001,10,initial,36.05,342,361,379,0,0,9,9,9,0,0,,,,,,,2,0,2,0,0,9,9,6,,,,,,,,,,,,num_2,1.7740533000323921,num_2,0.5,1.6,0.5,0.6,19.10275,22.9233,return,5.493273600237444,,,,,,,,,,,,,,,,,716,19,male,up_down_width,2024-10-24_13h08.56.122,exp1,2023.1.0,59.97537416124552,
,,,,,,,,,,,,,,,,5,9,9.5,10,10.5,11,0.5,0.1,0.4,2.4,10,initial,36.05,324,342,361,379,397,9,9,9,9,9,,,,,,,2,0,2,0,0,10,10,49,,,,,,,,,,,,num_7,6.618544600205496,num_7,0.25,0.5,0.44999999999999996,0.55,17.19248,21.01303,return,5.131909999996424,,,,,,,,,,,,,,,,,716,19,male,up_down_width,2024-10-24_13h08.56.122,exp1,2023.1.0,59.97537416124552,
,,,,,,,,,,,,,,,,4,9.25,9.75,10.25,10.75,0,0.5,0.1,0.4,1.9000000000000001,10,initial,36.05,333,351,370,388,0,9,9,9,9,0,,,,,,,2,0,2,0,0,11,11,13,,,,,,,,,,,,num_3,1.7179797003045678,num_3,0.25,1,0.44999999999999996,0.6,17.19248,22.9233,return,6.336908100172877,,,,,,,,,,,,,,,,,716,19,male,up_down_width,2024-10-24_13h08.56.122,exp1,2023.1.0,59.97537416124552,
,,,,,,,,,,,,,,,,4,9.25,9.75,10.25,10.75,0,0.5,0.1,0.4,1.9000000000000001,10,initial,36.05,333,351,370,388,0,9,9,9,9,0,,,,,,,2,0,2,0,0,12,12,15,,,,,,,,,,,,num_4,2.2662887000478804,num_4,0.5,1.2,0.45,0.6,17.19248,22.9233,return,4.478363000089303,,,,,,,,,,,,,,,,,716,19,male,up_down_width,2024-10-24_13h08.56.122,exp1,2023.1.0,59.97537416124552,
,,,,,,,,,,,,,,,,3,9.5,10,10.5,0,0,0.5,0.1,0.4,1.4000000000000001,10,initial,36.05,342,361,379,0,0,9,9,9,0,0,,,,,,,2,0,2,0,0,13,13,34,,,,,,,,,,,,num_2,1.4396991999819875,num_2,0.2,0.4,0.44999999999999996,0.6,17.19248,22.9233,return,5.404664300149307,,,,,,,,,,,,,,,,,716,19,male,up_down_width,2024-10-24_13h08.56.122,exp1,2023.1.0,59.97537416124552,
,,,,,,,,,,,,,,,,4,9.25,9.75,10.25,10.75,0,0.5,0.1,0.4,1.9000000000000001,10,initial,36.05,333,351,370,388,0,9,9,9,9,0,,,,,,,2,0,2,0,0,14,14,10,,,,,,,,,,,,num_4,1.9009253000840545,num_4,0.25,0.3,0.44999999999999996,0.6,17.19248,22.9233,return,3.688129900023341,,,,,,,,,,,,,,,,,716,19,male,up_down_width,2024-10-24_13h08.56.122,exp1,2023.1.0,59.97537416124552,
,,,,,,,,,,,,,,,,5,9,9.5,10,10.5,11,0.5,0.1,0.4,2.4,10,initial,36.05,324,342,361,379,397,9,9,9,9,9,,,,,,,2,0,2,0,0,15,15,18,,,,,,,,,,,,num_6,2.0150548999663442,num_6,0.4,0.7,0.55,0.7,21.01303,26.74385,return,5.262659300118685,,,,,,,,,,,,,,,,,716,19,male,up_down_width,2024-10-24_13h08.56.122,exp1,2023.1.0,59.97537416124552,
,,,,,,,,,,,,,,,,4,9.25,9.75,10.25,10.75,0,0.5,0.1,0.4,1.9000000000000001,10,initial,36.05,333,351,370,388,0,9,9,9,9,0,,,,,,,2,0,2,0,0,16,16,11,,,,,,,,,,,,num_4,2.1840352001599967,num_4,0.5,0.6,0.55,0.7,21.01303,26.74385,return,5.870688200229779,,,,,,,,,,,,,,,,,716,19,male,up_down_width,2024-10-24_13h08.56.122,exp1,2023.1.0,59.97537416124552,
,,,,,,,,,,,,,,,,4,9.25,9.75,10.25,10.75,0,0.5,0.1,0.4,1.9000000000000001,10,initial,36.05,333,351,370,388,0,9,9,9,9,0,,,,,,,2,0,2,0,0,17,17,38,,,,,,,,,,,,num_3,2.084756600204855,num_3,0.3,1.1,0.49999999999999994,0.7,19.10275,26.74385,return,9.508808500133455,,,,,,,,,,,,,,,,,716,19,male,up_down_width,2024-10-24_13h08.56.122,exp1,2023.1.0,59.97537416124552,
,,,,,,,,,,,,,,,,3,9.5,10,10.5,0,0,0.5,0.1,0.4,1.4000000000000001,10,initial,36.05,342,361,379,0,0,9,9,9,0,0,,,,,,,2,0,2,0,0,18,18,2,,,,,,,,,,,,num_2,1.4090251000598073,num_2,0.4,0.8,0.45,0.6,17.19248,22.9233,return,3.682693799957633,,,,,,,,,,,,,,,,,716,19,male,up_down_width,2024-10-24_13h08.56.122,exp1,2023.1.0,59.97537416124552,
,,,,,,,,,,,,,,,,3,9.5,10,10.5,0,0,0.5,0.1,0.4,1.4000000000000001,10,initial,36.05,342,361,379,0,0,9,9,9,0,0,,,,,,,2,0,2,0,0,19,19,8,,,,,,,,,,,,num_2,1.2495767001528293,num_2,0.2,0.8,0.44999999999999996,0.6,17.19248,22.9233,return,3.9991259002126753,,,,,,,,,,,,,,,,,716,19,male,up_down_width,2024-10-24_13h08.56.122,exp1,2023.1.0,59.97537416124552,
,,,,,,,,,,,,,,,,5,9,9.5,10,10.5,11,0.5,0.1,0.4,2.4,10,initial,36.05,324,342,361,379,397,9,9,9,9,9,,,,,,,2,0,2,0,0,20,20,20,,,,,,,,,,,,num_6,4.977313500130549,num_6,0.3,0.4,0.5499999999999999,0.7,21.01303,26.74385,return,6.384123200085014,,,,,,,,,,,,,,,,,716,19,male,up_down_width,2024-10-24_13h08.56.122,exp1,2023.1.0,59.97537416124552,
,,,,,,,,,,,,,,,,5,9,9.5,10,10.5,11,0.5,0.1,0.4,2.4,10,initial,36.05,324,342,361,379,397,9,9,9,9,9,,,,,,,2,0,2,0,0,21,21,50,,,,,,,,,,,,num_7,2.112821400165558,num_7,0.3,1.3,0.39999999999999997,0.55,15.2822,21.01303,return,9.067597800167277,,,,,,,,,,,,,,,,,716,19,male,up_down_width,2024-10-24_13h08.56.122,exp1,2023.1.0,59.97537416124552,
,,,,,,,,,,,,,,,,4,9.25,9.75,10.25,10.75,0,0.5,0.1,0.4,1.9000000000000001,10,initial,36.05,333,351,370,388,0,9,9,9,9,0,,,,,,,2,0,2,0,0,22,22,37,,,,,,,,,,,,num_3,1.3484938002657145,num_3,0.25,1,0.44999999999999996,0.6,17.19248,22.9233,return,5.341212200000882,,,,,,,,,,,,,,,,,716,19,male,up_down_width,2024-10-24_13h08.56.122,exp1,2023.1.0,59.97537416124552,
,,,,,,,,,,,,,,,,3,9.5,10,10.5,0,0,0.5,0.1,0.4,1.4000000000000001,10,initial,36.05,342,361,379,0,0,9,9,9,0,0,,,,,,,2,0,2,0,0,23,23,1,,,,,,,,,,,,num_2,1.2370058002416044,num_2,0.45,1.6,0.55,0.7,21.01303,26.74385,return,6.209940900094807,,,,,,,,,,,,,,,,,716,19,male,up_down_width,2024-10-24_13h08.56.122,exp1,2023.1.0,59.97537416124552,
,,,,,,,,,,,,,,,,5,9,9.5,10,10.5,11,0.5,0.1,0.4,2.4,10,initial,36.05,324,342,361,379,397,9,9,9,9,9,,,,,,,2,0,2,0,0,24,24,46,,,,,,,,,,,,num_7,4.327528499998152,num_7,0.3,1.0,0.49999999999999994,0.65,19.10275,24.83358,return,7.811147100059316,,,,,,,,,,,,,,,,,716,19,male,up_down_width,2024-10-24_13h08.56.122,exp1,2023.1.0,59.97537416124552,
,,,,,,,,,,,,,,,,3,9.5,10,10.5,0,0,0.5,0.1,0.4,1.4000000000000001,10,initial,36.05,342,361,379,0,0,9,9,9,0,0,,,,,,,2,0,2,0,0,25,25,32,,,,,,,,,,,,num_2,1.432530800346285,num_2,0.55,1.2,0.5,0.7,19.10275,26.74385,return,7.407134399982169,,,,,,,,,,,,,,,,,716,19,male,up_down_width,2024-10-24_13h08.56.122,exp1,2023.1.0,59.97537416124552,
,,,,,,,,,,,,,,,,4,9.25,9.75,10.25,10.75,0,0.5,0.1,0.4,1.9000000000000001,10,initial,36.05,333,351,370,388,0,9,9,9,9,0,,,,,,,2,0,2,0,0,26,26,12,,,,,,,,,,,,num_4,2.6716352002695203,num_4,0.35,0.8,0.44999999999999996,0.6,17.19248,22.9233,return,4.196872400119901,,,,,,,,,,,,,,,,,716,19,male,up_down_width,2024-10-24_13h08.56.122,exp1,2023.1.0,59.97537416124552,
,,,,,,,,,,,,,,,,5,9,9.5,10,10.5,11,0.5,0.1,0.4,2.4,10,initial,36.05,324,342,361,379,397,9,9,9,9,9,,,,,,,2,0,2,0,0,27,27,25,,,,,,,,,,,,num_6,2.3353314001578838,num_6,0.45,0.9,0.5,0.6,19.10275,22.9233,return,11.036187500227243,,,,,,,,,,,,,,,,,716,19,male,up_down_width,2024-10-24_13h08.56.122,exp1,2023.1.0,59.97537416124552,
,,,,,,,,,,,,,,,,4,9.25,9.75,10.25,10.75,0,0.5,0.1,0.4,1.9000000000000001,10,initial,36.05,333,351,370,388,0,9,9,9,9,0,,,,,,,2,0,2,0,0,28,28,44,,,,,,,,,,,,num_3,3.4756944002583623,num_3,0.4,1.1,0.55,0.65,21.01303,24.83358,return,4.244809000054374,,,,,,,,,,,,,,,,,716,19,male,up_down_width,2024-10-24_13h08.56.122,exp1,2023.1.0,59.97537416124552,
,,,,,,,,,,,,,,,,5,9,9.5,10,10.5,11,0.5,0.1,0.4,2.4,10,initial,36.05,324,342,361,379,397,9,9,9,9,9,,,,,,,2,0,2,0,0,29,29,23,,,,,,,,,,,,num_5,3.519341500243172,num_5,0.35,1.1,0.44999999999999996,0.6,17.19248,22.9233,return,8.496673400048167,,,,,,,,,,,,,,,,,716,19,male,up_down_width,2024-10-24_13h08.56.122,exp1,2023.1.0,59.97537416124552,
,,,,,,,,,,,,,,,,3,9.5,10,10.5,0,0,0.5,0.1,0.4,1.4000000000000001,10,initial,36.05,342,361,379,0,0,9,9,9,0,0,,,,,,,2,0,2,0,0,30,30,3,,,,,,,,,,,,num_2,1.4151850000489503,num_2,0.4,1.4,0.5,0.6,19.10275,22.9233,return,8.362197700189427,,,,,,,,,,,,,,,,,716,19,male,up_down_width,2024-10-24_13h08.56.122,exp1,2023.1.0,59.97537416124552,
,,,,,,,,,,,,,,,,4,9.25,9.75,10.25,10.75,0,0.5,0.1,0.4,1.9000000000000001,10,initial,36.05,333,351,370,388,0,9,9,9,9,0,,,,,,,2,0,2,0,0,31,31,43,,,,,,,,,,,,num_3,1.6023185001686215,num_3,0.25,0.5,0.49999999999999994,0.6,19.10275,22.9233,return,3.9685949000995606,,,,,,,,,,,,,,,,,716,19,male,up_down_width,2024-10-24_13h08.56.122,exp1,2023.1.0,59.97537416124552,
,,,,,,,,,,,,,,,,5,9,9.5,10,10.5,11,0.5,0.1,0.4,2.4,10,initial,36.05,324,342,361,379,397,9,9,9,9,9,,,,,,,2,0,2,0,0,32,32,52,,,,,,,,,,,,num_5,1.832630299963057,num_5,0.25,1.0,0.5499999999999999,0.7,21.01303,26.74385,return,4.15966960019432,,,,,,,,,,,,,,,,,716,19,male,up_down_width,2024-10-24_13h08.56.122,exp1,2023.1.0,59.97537416124552,
,,,,,,,,,,,,,,,,3,9.5,10,10.5,0,0,0.5,0.1,0.4,1.4000000000000001,10,initial,36.05,342,361,379,0,0,9,9,9,0,0,,,,,,,2,0,2,0,0,33,33,28,,,,,,,,,,,,num_2,1.0685016000643373,num_2,0.25,0.8,0.5499999999999999,0.7,21.01303,26.74385,return,4.23506630002521,,,,,,,,,,,,,,,,,716,19,male,up_down_width,2024-10-24_13h08.56.122,exp1,2023.1.0,59.97537416124552,
,,,,,,,,,,,,,,,,4,9.25,9.75,10.25,10.75,0,0.5,0.1,0.4,1.9000000000000001,10,initial,36.05,333,351,370,388,0,9,9,9,9,0,,,,,,,2,0,2,0,0,34,34,9,,,,,,,,,,,,num_4,1.5622899001464248,num_4,0.35,0.4,0.5499999999999999,0.7,21.01303,26.74385,return,7.250344000291079,,,,,,,,,,,,,,,,,716,19,male,up_down_width,2024-10-24_13h08.56.122,exp1,2023.1.0,59.97537416124552,
,,,,,,,,,,,,,,,,3,9.5,10,10.5,0,0,0.5,0.1,0.4,1.4000000000000001,10,initial,36.05,342,361,379,0,0,9,9,9,0,0,,,,,,,2,0,2,0,0,35,35,33,,,,,,,,,,,,num_2,1.1731813000515103,num_2,0.3,1.0,0.44999999999999996,0.6,17.19248,22.9233,return,7.857536000199616,,,,,,,,,,,,,,,,,716,19,male,up_down_width,2024-10-24_13h08.56.122,exp1,2023.1.0,59.97537416124552,
,,,,,,,,,,,,,,,,3,9.5,10,10.5,0,0,0.5,0.1,0.4,1.4000000000000001,10,initial,36.05,342,361,379,0,0,9,9,9,0,0,,,,,,,2,0,2,0,0,36,36,5,,,,,,,,,,,,num_2,1.475927300285548,num_2,0.55,1.4,0.45,0.6,17.19248,22.9233,return,7.805517700267956,,,,,,,,,,,,,,,,,716,19,male,up_down_width,2024-10-24_13h08.56.122,exp1,2023.1.0,59.97537416124552,
,,,,,,,,,,,,,,,,3,9.5,10,10.5,0,0,0.5,0.1,0.4,1.4000000000000001,10,initial,36.05,342,361,379,0,0,9,9,9,0,0,,,,,,,2,0,2,0,0,37,37,0,,,,,,,,,,,,num_2,1.483920100145042,num_2,0.2,1.0,0.44999999999999996,0.6,17.19248,22.9233,return,3.5649497001431882,,,,,,,,,,,,,,,,,716,19,male,up_down_width,2024-10-24_13h08.56.122,exp1,2023.1.0,59.97537416124552,
,,,,,,,,,,,,,,,,3,9.5,10,10.5,0,0,0.5,0.1,0.4,1.4000000000000001,10,initial,36.05,342,361,379,0,0,9,9,9,0,0,,,,,,,2,0,2,0,0,38,38,30,,,,,,,,,,,,num_2,1.8287966002244502,num_2,0.35,0.8,0.49999999999999994,0.6,19.10275,22.9233,return,7.382805900182575,,,,,,,,,,,,,,,,,716,19,male,up_down_width,2024-10-24_13h08.56.122,exp1,2023.1.0,59.97537416124552,
,,,,,,,,,,,,,,,,5,9,9.5,10,10.5,11,0.5,0.1,0.4,2.4,10,initial,36.05,324,342,361,379,397,9,9,9,9,9,,,,,,,2,0,2,0,0,39,39,19,,,,,,,,,,,,num_6,4.393925800221041,num_6,0.25,1.2,0.44999999999999996,0.6,17.19248,22.9233,return,9.380531599977985,,,,,,,,,,,,,,,,,716,19,male,up_down_width,2024-10-24_13h08.56.122,exp1,2023.1.0,59.97537416124552,
,,,,,,,,,,,,,,,,4,9.25,9.75,10.25,10.75,0,0.5,0.1,0.4,1.9000000000000001,10,initial,36.05,333,351,370,388,0,9,9,9,9,0,,,,,,,2,0,2,0,0,40,40,14,,,,,,,,,,,,num_5,2.0185917001217604,num_5,0.3,1.1,0.44999999999999996,0.6,17.19248,22.9233,return,9.403414400061592,,,,,,,,,,,,,,,,,716,19,male,up_down_width,2024-10-24_13h08.56.122,exp1,2023.1.0,59.97537416124552,
,,,,,,,,,,,,,,,,3,9.5,10,10.5,0,0,0.5,0.1,0.4,1.4000000000000001,10,initial,36.05,342,361,379,0,0,9,9,9,0,0,,,,,,,2,0,2,0,0,41,41,29,,,,,,,,,,,,num_2,3.4400206999853253,num_2,0.25,1.4,0.49999999999999994,0.6,19.10275,22.9233,return,4.271510400110856,,,,,,,,,,,,,,,,,716,19,male,up_down_width,2024-10-24_13h08.56.122,exp1,2023.1.0,59.97537416124552,
,,,,,,,,,,,,,,,,3,9.5,10,10.5,0,0,0.5,0.1,0.4,1.4000000000000001,10,initial,36.05,342,361,379,0,0,9,9,9,0,0,,,,,,,2,0,2,0,0,42,42,35,,,,,,,,,,,,num_2,1.2008609003387392,num_2,0.4,0.8,0.45,0.6,17.19248,22.9233,return,3.5992866000160575,,,,,,,,,,,,,,,,,716,19,male,up_down_width,2024-10-24_13h08.56.122,exp1,2023.1.0,59.97537416124552,
,,,,,,,,,,,,,,,,4,9.25,9.75,10.25,10.75,0,0.5,0.1,0.4,1.9000000000000001,10,initial,36.05,333,351,370,388,0,9,9,9,9,0,,,,,,,2,0,2,0,0,43,43,42,,,,,,,,,,,,num_4,1.5059400002937764,num_4,0.45,1.2,0.5,0.6,19.10275,22.9233,return,3.3321544001810253,,,,,,,,,,,,,,,,,716,19,male,up_down_width,2024-10-24_13h08.56.122,exp1,2023.1.0,59.97537416124552,
,,,,,,,,,,,,,,,,5,9,9.5,10,10.5,11,0.5,0.1,0.4,2.4,10,initial,36.05,324,342,361,379,397,9,9,9,9,9,,,,,,,2,0,2,0,0,44,44,24,,,,,,,,,,,,num_6,1.896314299898222,num_6,0.25,1.3,0.44999999999999996,0.7,17.19248,26.74385,return,11.676154700107872,,,,,,,,,,,,,,,,,716,19,male,up_down_width,2024-10-24_13h08.56.122,exp1,2023.1.0,59.97537416124552,
,,,,,,,,,,,,,,,,5,9,9.5,10,10.5,11,0.5,0.1,0.4,2.4,10,initial,36.05,324,342,361,379,397,9,9,9,9,9,,,,,,,2,0,2,0,0,45,45,53,,,,,,,,,,,,num_5,3.9194418000988662,num_5,0.25,0.9,0.5499999999999999,0.75,21.01303,28.65413,return,6.785002700053155,,,,,,,,,,,,,,,,,716,19,male,up_down_width,2024-10-24_13h08.56.122,exp1,2023.1.0,59.97537416124552,
,,,,,,,,,,,,,,,,4,9.25,9.75,10.25,10.75,0,0.5,0.1,0.4,1.9000000000000001,10,initial,36.05,333,351,370,388,0,9,9,9,9,0,,,,,,,2,0,2,0,0,46,46,41,,,,,,,,,,,,num_4,1.5032055000774562,num_4,0.45,0.9,0.5,0.6,19.10275,22.9233,return,4.174103600205854,,,,,,,,,,,,,,,,,716,19,male,up_down_width,2024-10-24_13h08.56.122,exp1,2023.1.0,59.97537416124552,
,,,,,,,,,,,,,,,,4,9.25,9.75,10.25,10.75,0,0.5,0.1,0.4,1.9000000000000001,10,initial,36.05,333,351,370,388,0,9,9,9,9,0,,,,,,,2,0,2,0,0,47,47,36,,,,,,,,,,,,num_4,2.9423879000823945,num_4,0.35,0.5,0.49999999999999994,0.6,19.10275,22.9233,return,4.802516299998388,,,,,,,,,,,,,,,,,716,19,male,up_down_width,2024-10-24_13h08.56.122,exp1,2023.1.0,59.97537416124552,
,,,,,,,,,,,,,,,,3,9.5,10,10.5,0,0,0.5,0.1,0.4,1.4000000000000001,10,initial,36.05,342,361,379,0,0,9,9,9,0,0,,,,,,,2,0,2,0,0,48,48,7,,,,,,,,,,,,num_2,1.3193569001741707,num_2,0.45,1.0,0.45,0.6,17.19248,22.9233,return,4.786409100051969,,,,,,,,,,,,,,,,,716,19,male,up_down_width,2024-10-24_13h08.56.122,exp1,2023.1.0,59.97537416124552,
,,,,,,,,,,,,,,,,3,9.5,10,10.5,0,0,0.5,0.1,0.4,1.4000000000000001,10,initial,36.05,342,361,379,0,0,9,9,9,0,0,,,,,,,2,0,2,0,0,49,49,27,,,,,,,,,,,,num_2,1.2227911001536995,num_2,0.25,0.4,0.44999999999999996,0.6,17.19248,22.9233,return,5.316399600123987,,,,,,,,,,,,,,,,,716,19,male,up_down_width,2024-10-24_13h08.56.122,exp1,2023.1.0,59.97537416124552,
,,,,,,,,,,,,,,,,4,9.25,9.75,10.25,10.75,0,0.5,0.1,0.4,1.9000000000000001,10,initial,36.05,333,351,370,388,0,9,9,9,9,0,,,,,,,2,0,2,0,0,50,50,16,,,,,,,,,,,,num_3,3.1132440001238137,num_3,0.35,1.3,0.5499999999999999,0.65,21.01303,24.83358,return,8.625534000108019,,,,,,,,,,,,,,,,,716,19,male,up_down_width,2024-10-24_13h08.56.122,exp1,2023.1.0,59.97537416124552,
,,,,,,,,,,,,,,,,4,9.25,9.75,10.25,10.75,0,0.5,0.1,0.4,1.9000000000000001,10,initial,36.05,333,351,370,388,0,9,9,9,9,0,,,,,,,2,0,2,0,0,51,51,17,,,,,,,,,,,,num_4,1.0140223000198603,num_4,0.3,1.3,0.5499999999999999,0.7,21.01303,26.74385,return,4.9397194001358,,,,,,,,,,,,,,,,,716,19,male,up_down_width,2024-10-24_13h08.56.122,exp1,2023.1.0,59.97537416124552,
,,,,,,,,,,,,,,,,4,9.25,9.75,10.25,10.75,0,0.5,0.1,0.4,1.9000000000000001,10,initial,36.05,333,351,370,388,0,9,9,9,9,0,,,,,,,2,0,2,0,0,52,52,40,,,,,,,,,,,,num_4,2.055970299988985,num_4,0.4,1.0,0.5,0.6,19.10275,22.9233,return,5.587856700178236,,,,,,,,,,,,,,,,,716,19,male,up_down_width,2024-10-24_13h08.56.122,exp1,2023.1.0,59.97537416124552,
,,,,,,,,,,,,,,,,5,9,9.5,10,10.5,11,0.5,0.1,0.4,2.4,10,initial,36.05,324,342,361,379,397,9,9,9,9,9,,,,,,,2,0,2,0,0,53,53,21,,,,,,,,,,,,num_5,5.208218400133774,num_5,0.45,1.0,0.5,0.6,19.10275,22.9233,return,3.4471512001473457,,,,,,,,,,,,,,,,,716,19,male,up_down_width,2024-10-24_13h08.56.122,exp1,2023.1.0,59.97537416124552,
,,,,,,,,,,,,,,,,,,,,,,,,,,,,,,,,,,,,,,,,,,,,,2,0,2,0,,,,,,,,,,,,,,,,,,,,,,,,,,,,,2767.521603500005,2767.521603500005,2767.521603500005,,,,,,,,,,,,716,19,male,up_down_width,2024-10-24_13h08.56.122,exp1,2023.1.0,59.97537416124552,
,,,,,,,,,,,,,,,,5,9,9.5,10,10.5,11,0.5,0.25,0.25,2.25,10,initial,36.05,324,342,361,379,397,9,9,9,9,9,,,,,,,3,0,3,0,0,0,0,21,,,,,,,,,,,,num_5,1.9510668001603335,num_5,0.45,0.6,0.20000000000000007,0.55,7.6411,21.01303,return,5.632797199999914,,,,,,,,,,,,,,,,,716,19,male,up_down_width,2024-10-24_13h08.56.122,exp1,2023.1.0,59.97537416124552,
,,,,,,,,,,,,,,,,4,9.25,9.75,10.25,10.75,0,0.5,0.25,0.25,1.75,10,initial,36.05,333,351,370,388,0,9,9,9,9,0,,,,,,,3,0,3,0,0,1,1,11,,,,,,,,,,,,num_4,1.7983566001057625,num_4,0.2,0.4,0.25,0.5,9.55138,19.10275,return,4.186057700309902,,,,,,,,,,,,,,,,,716,19,male,up_down_width,2024-10-24_13h08.56.122,exp1,2023.1.0,59.97537416124552,
,,,,,,,,,,,,,,,,5,9,9.5,10,10.5,11,0.5,0.25,0.25,2.25,10,initial,36.05,324,342,361,379,397,9,9,9,9,9,,,,,,,3,0,3,0,0,2,2,53,,,,,,,,,,,,num_6,1.4794912000652403,num_6,0.25,0.9,0.25,0.5,9.55138,19.10275,return,3.463380000088364,,,,,,,,,,,,,,,,,716,19,male,up_down_width,2024-10-24_13h08.56.122,exp1,2023.1.0,59.97537416124552,
,,,,,,,,,,,,,,,,5,9,9.5,10,10.5,11,0.5,0.25,0.25,2.25,10,initial,36.05,324,342,361,379,397,9,9,9,9,9,,,,,,,3,0,3,0,0,3,3,49,,,,,,,,,,,,num_7,1.5376812003087252,num_7,0.5,0.7,0.25000000000000006,0.55,9.55138,21.01303,return,7.514884100062773,,,,,,,,,,,,,,,,,716,19,male,up_down_width,2024-10-24_13h08.56.122,exp1,2023.1.0,59.97537416124552,
,,,,,,,,,,,,,,,,4,9.25,9.75,10.25,10.75,0,0.5,0.25,0.25,1.75,10,initial,36.05,333,351,370,388,0,9,9,9,9,0,,,,,,,3,0,3,0,0,4,4,16,,,,,,,,,,,,num_4,1.5178400001022965,num_4,0.5,0.9,0.20000000000000007,0.5,7.6411,19.10275,return,7.226210700115189,,,,,,,,,,,,,,,,,716,19,male,up_down_width,2024-10-24_13h08.56.122,exp1,2023.1.0,59.97537416124552,
,,,,,,,,,,,,,,,,3,9.5,10,10.5,0,0,0.5,0.25,0.25,1.25,10,initial,36.05,342,361,379,0,0,9,9,9,0,0,,,,,,,3,0,3,0,0,5,5,5,,,,,,,,,,,,num_3,1.3268178002908826,num_3,0.2,1.1,0.25,0.45,9.55138,17.19248,return,6.6964914000127465,,,,,,,,,,,,,,,,,716,19,male,up_down_width,2024-10-24_13h08.56.122,exp1,2023.1.0,59.97537416124552,
,,,,,,,,,,,,,,,,3,9.5,10,10.5,0,0,0.5,0.25,0.25,1.25,10,initial,36.05,342,361,379,0,0,9,9,9,0,0,,,,,,,3,0,3,0,0,6,6,2,,,,,,,,,,,,num_3,1.555510900216177,num_3,0.4,0.6,0.25000000000000006,0.5,9.55138,19.10275,return,6.753040899988264,,,,,,,,,,,,,,,,,716,19,male,up_down_width,2024-10-24_13h08.56.122,exp1,2023.1.0,59.97537416124552,
,,,,,,,,,,,,,,,,3,9.5,10,10.5,0,0,0.5,0.25,0.25,1.25,10,initial,36.05,342,361,379,0,0,9,9,9,0,0,,,,,,,3,0,3,0,0,7,7,0,,,,,,,,,,,,num_2,2.995555000146851,num_2,0.2,0.8,0.2,0.4,7.6411,15.2822,return,3.6070302999578416,,,,,,,,,,,,,,,,,716,19,male,up_down_width,2024-10-24_13h08.56.122,exp1,2023.1.0,59.97537416124552,
,,,,,,,,,,,,,,,,5,9,9.5,10,10.5,11,0.5,0.25,0.25,2.25,10,initial,36.05,324,342,361,379,397,9,9,9,9,9,,,,,,,3,0,3,0,0,8,8,47,,,,,,,,,,,,num_8,1.9115629000589252,num_8,0.25,0.3,0.10000000000000002,0.4,3.82055,15.2822,return,14.098520700121298,,,,,,,,,,,,,,,,,716,19,male,up_down_width,2024-10-24_13h08.56.122,exp1,2023.1.0,59.97537416124552,
,,,,,,,,,,,,,,,,4,9.25,9.75,10.25,10.75,0,0.5,0.25,0.25,1.75,10,initial,36.05,333,351,370,388,0,9,9,9,9,0,,,,,,,3,0,3,0,0,9,9,36,,,,,,,,,,,,num_4,1.6471981001086533,num_4,0.25,0.6,0.2,0.5,7.6411,19.10275,return,6.444007300073281,,,,,,,,,,,,,,,,,716,19,male,up_down_width,2024-10-24_13h08.56.122,exp1,2023.1.0,59.97537416124552,
,,,,,,,,,,,,,,,,3,9.5,10,10.5,0,0,0.5,0.25,0.25,1.25,10,initial,36.05,342,361,379,0,0,9,9,9,0,0,,,,,,,3,0,3,0,0,10,10,34,,,,,,,,,,,,num_3,1.1534663999918848,num_3,0.35,0.4,0.2,0.45,7.6411,17.19248,return,7.313917900202796,,,,,,,,,,,,,,,,,716,19,male,up_down_width,2024-10-24_13h08.56.122,exp1,2023.1.0,59.97537416124552,
,,,,,,,,,,,,,,,,5,9,9.5,10,10.5,11,0.5,0.25,0.25,2.25,10,initial,36.05,324,342,361,379,397,9,9,9,9,9,,,,,,,3,0,3,0,0,11,11,52,,,,,,,,,,,,num_7,3.9094265999738127,num_7,0.35,1.1,0.15000000000000002,0.5,5.73083,19.10275,return,10.390771900070831,,,,,,,,,,,,,,,,,716,19,male,up_down_width,2024-10-24_13h08.56.122,exp1,2023.1.0,59.97537416124552,
,,,,,,,,,,,,,,,,4,9.25,9.75,10.25,10.75,0,0.5,0.25,0.25,1.75,10,initial,36.05,333,351,370,388,0,9,9,9,9,0,,,,,,,3,0,3,0,0,12,12,38,,,,,,,,,,,,num_5,3.3108123000711203,num_5,0.35,0.8,0.15000000000000002,0.5,5.73083,19.10275,return,5.768618400208652,,,,,,,,,,,,,,,,,716,19,male,up_down_width,2024-10-24_13h08.56.122,exp1,2023.1.0,59.97537416124552,
,,,,,,,,,,,,,,,,5,9,9.5,10,10.5,11,0.5,0.25,0.25,2.25,10,initial,36.05,324,342,361,379,397,9,9,9,9,9,,,,,,,3,0,3,0,0,13,13,25,,,,,,,,,,,,num_6,1.6607347000390291,num_6,0.4,1.1,0.15000000000000008,0.6,5.73083,22.9233,return,6.955580500187352,,,,,,,,,,,,,,,,,716,19,male,up_down_width,2024-10-24_13h08.56.122,exp1,2023.1.0,59.97537416124552,
,,,,,,,,,,,,,,,,3,9.5,10,10.5,0,0,0.5,0.25,0.25,1.25,10,initial,36.05,342,361,379,0,0,9,9,9,0,0,,,,,,,3,0,3,0,0,14,14,3,,,,,,,,,,,,num_3,1.1126063000410795,num_3,0.35,0.7,0.2,0.6,7.6411,22.9233,return,5.816906800027937,,,,,,,,,,,,,,,,,716,19,male,up_down_width,2024-10-24_13h08.56.122,exp1,2023.1.0,59.97537416124552,
,,,,,,,,,,,,,,,,5,9,9.5,10,10.5,11,0.5,0.25,0.25,2.25,10,initial,36.05,324,342,361,379,397,9,9,9,9,9,,,,,,,3,0,3,0,0,15,15,23,,,,,,,,,,,,num_6,1.2771229001227766,num_6,0.5,0.7,0.15000000000000008,0.5,5.73083,19.10275,return,4.447866400005296,,,,,,,,,,,,,,,,,716,19,male,up_down_width,2024-10-24_13h08.56.122,exp1,2023.1.0,59.97537416124552,
,,,,,,,,,,,,,,,,3,9.5,10,10.5,0,0,0.5,0.25,0.25,1.25,10,initial,36.05,342,361,379,0,0,9,9,9,0,0,,,,,,,3,0,3,0,0,16,16,31,,,,,,,,,,,,num_2,1.8182690001558512,num_2,0.5,1.2,0.35000000000000003,0.7,13.37193,26.74385,return,4.863914899993688,,,,,,,,,,,,,,,,,716,19,male,up_down_width,2024-10-24_13h08.56.122,exp1,2023.1.0,59.97537416124552,
,,,,,,,,,,,,,,,,4,9.25,9.75,10.25,10.75,0,0.5,0.25,0.25,1.75,10,initial,36.05,333,351,370,388,0,9,9,9,9,0,,,,,,,3,0,3,0,0,17,17,12,,,,,,,,,,,,num_4,4.474506900180131,num_4,0.45,0.7,0.25000000000000006,0.6,9.55138,22.9233,return,4.853470900095999,,,,,,,,,,,,,,,,,716,19,male,up_down_width,2024-10-24_13h08.56.122,exp1,2023.1.0,59.97537416124552,
,,,,,,,,,,,,,,,,5,9,9.5,10,10.5,11,0.5,0.25,0.25,2.25,10,initial,36.05,324,342,361,379,397,9,9,9,9,9,,,,,,,3,0,3,0,0,18,18,51,,,,,,,,,,,,num_6,2.3686416000127792,num_6,0.3,1.3,0.15000000000000002,0.9,5.73083,34.38495,return,6.569947000127286,,,,,,,,,,,,,,,,,716,19,male,up_down_width,2024-10-24_13h08.56.122,exp1,2023.1.0,59.97537416124552,
,,,,,,,,,,,,,,,,3,9.5,10,10.5,0,0,0.5,0.25,0.25,1.25,10,initial,36.05,342,361,379,0,0,9,9,9,0,0,,,,,,,3,0,3,0,0,19,19,28,,,,,,,,,,,,num_2,3.162772700190544,num_2,0.2,0.8,0.2,0.6,7.6411,22.9233,return,5.418988300021738,,,,,,,,,,,,,,,,,716,19,male,up_down_width,2024-10-24_13h08.56.122,exp1,2023.1.0,59.97537416124552,
,,,,,,,,,,,,,,,,5,9,9.5,10,10.5,11,0.5,0.25,0.25,2.25,10,initial,36.05,324,342,361,379,397,9,9,9,9,9,,,,,,,3,0,3,0,0,20,20,50,,,,,,,,,,,,num_6,1.6640935000032187,num_6,0.45,0.7,0.15000000000000008,0.7,5.73083,26.74385,return,8.604948800057173,,,,,,,,,,,,,,,,,716,19,male,up_down_width,2024-10-24_13h08.56.122,exp1,2023.1.0,59.97537416124552,
,,,,,,,,,,,,,,,,4,9.25,9.75,10.25,10.75,0,0.5,0.25,0.25,1.75,10,initial,36.05,333,351,370,388,0,9,9,9,9,0,,,,,,,3,0,3,0,0,21,21,10,,,,,,,,,,,,num_4,1.8676026002503932,num_4,0.35,0.4,0.10000000000000002,0.5,3.82055,19.10275,return,5.648255600128323,,,,,,,,,,,,,,,,,716,19,male,up_down_width,2024-10-24_13h08.56.122,exp1,2023.1.0,59.97537416124552,
,,,,,,,,,,,,,,,,3,9.5,10,10.5,0,0,0.5,0.25,0.25,1.25,10,initial,36.05,342,361,379,0,0,9,9,9,0,0,,,,,,,3,0,3,0,0,22,22,1,,,,,,,,,,,,num_3,1.3662745000328869,num_3,0.4,0.6,0.20000000000000007,0.7,7.6411,26.74385,return,5.935533000156283,,,,,,,,,,,,,,,,,716,19,male,up_down_width,2024-10-24_13h08.56.122,exp1,2023.1.0,59.97537416124552,
,,,,,,,,,,,,,,,,3,9.5,10,10.5,0,0,0.5,0.25,0.25,1.25,10,initial,36.05,342,361,379,0,0,9,9,9,0,0,,,,,,,3,0,3,0,0,23,23,30,,,,,,,,,,,,num_3,2.043721100082621,num_3,0.35,0.7,0.2,0.5,7.6411,19.10275,return,4.26412590011023,,,,,,,,,,,,,,,,,716,19,male,up_down_width,2024-10-24_13h08.56.122,exp1,2023.1.0,59.97537416124552,
,,,,,,,,,,,,,,,,5,9,9.5,10,10.5,11,0.5,0.25,0.25,2.25,10,initial,36.05,324,342,361,379,397,9,9,9,9,9,,,,,,,3,0,3,0,0,24,24,19,,,,,,,,,,,,num_6,1.6817375000100583,num_6,0.3,1.2,0.2,0.6,7.6411,22.9233,return,5.997874300228432,,,,,,,,,,,,,,,,,716,19,male,up_down_width,2024-10-24_13h08.56.122,exp1,2023.1.0,59.97537416124552,
,,,,,,,,,,,,,,,,5,9,9.5,10,10.5,11,0.5,0.25,0.25,2.25,10,initial,36.05,324,342,361,379,397,9,9,9,9,9,,,,,,,3,0,3,0,0,25,25,45,,,,,,,,,,,,num_6,3.4471691001672298,num_6,0.25,1.1,0.2,0.7,7.6411,26.74385,return,4.454291900154203,,,,,,,,,,,,,,,,,716,19,male,up_down_width,2024-10-24_13h08.56.122,exp1,2023.1.0,59.97537416124552,
,,,,,,,,,,,,,,,,3,9.5,10,10.5,0,0,0.5,0.25,0.25,1.25,10,initial,36.05,342,361,379,0,0,9,9,9,0,0,,,,,,,3,0,3,0,0,26,26,6,,,,,,,,,,,,num_3,1.3071427003014833,num_3,0.45,0.9,0.20000000000000007,0.65,7.6411,24.83358,return,7.732785200001672,,,,,,,,,,,,,,,,,716,19,male,up_down_width,2024-10-24_13h08.56.122,exp1,2023.1.0,59.97537416124552,
,,,,,,,,,,,,,,,,3,9.5,10,10.5,0,0,0.5,0.25,0.25,1.25,10,initial,36.05,342,361,379,0,0,9,9,9,0,0,,,,,,,3,0,3,0,0,27,27,4,,,,,,,,,,,,num_2,1.8571994001977146,num_2,0.4,1.4,0.25000000000000006,0.5,9.55138,19.10275,return,4.6286919000558555,,,,,,,,,,,,,,,,,716,19,male,up_down_width,2024-10-24_13h08.56.122,exp1,2023.1.0,59.97537416124552,
,,,,,,,,,,,,,,,,3,9.5,10,10.5,0,0,0.5,0.25,0.25,1.25,10,initial,36.05,342,361,379,0,0,9,9,9,0,0,,,,,,,3,0,3,0,0,28,28,27,,,,,,,,,,,,num_3,1.2788784001022577,num_3,0.45,1,0.25000000000000006,0.55,9.55138,21.01303,return,4.260524099925533,,,,,,,,,,,,,,,,,716,19,male,up_down_width,2024-10-24_13h08.56.122,exp1,2023.1.0,59.97537416124552,
,,,,,,,,,,,,,,,,5,9,9.5,10,10.5,11,0.5,0.25,0.25,2.25,10,initial,36.05,324,342,361,379,397,9,9,9,9,9,,,,,,,3,0,3,0,0,29,29,20,,,,,,,,,,,,num_7,1.7412849001120776,num_7,0.25,1.0,0.2,0.55,7.6411,21.01303,return,4.901259500067681,,,,,,,,,,,,,,,,,716,19,male,up_down_width,2024-10-24_13h08.56.122,exp1,2023.1.0,59.97537416124552,
,,,,,,,,,,,,,,,,5,9,9.5,10,10.5,11,0.5,0.25,0.25,2.25,10,initial,36.05,324,342,361,379,397,9,9,9,9,9,,,,,,,3,0,3,0,0,30,30,48,,,,,,,,,,,,num_7,2.5074525999370962,num_7,0.45,0.9,0.25000000000000006,0.55,9.55138,21.01303,return,14.981553599936888,,,,,,,,,,,,,,,,,716,19,male,up_down_width,2024-10-24_13h08.56.122,exp1,2023.1.0,59.97537416124552,
,,,,,,,,,,,,,,,,5,9,9.5,10,10.5,11,0.5,0.25,0.25,2.25,10,initial,36.05,324,342,361,379,397,9,9,9,9,9,,,,,,,3,0,3,0,0,31,31,46,,,,,,,,,,,,num_6,2.140239299973473,num_6,0.55,1.3,0.25000000000000006,0.6,9.55138,22.9233,return,6.755036600166932,,,,,,,,,,,,,,,,,716,19,male,up_down_width,2024-10-24_13h08.56.122,exp1,2023.1.0,59.97537416124552,
,,,,,,,,,,,,,,,,4,9.25,9.75,10.25,10.75,0,0.5,0.25,0.25,1.75,10,initial,36.05,333,351,370,388,0,9,9,9,9,0,,,,,,,3,0,3,0,0,32,32,14,,,,,,,,,,,,num_5,1.2644181000068784,num_5,0.45,1.3,0.25000000000000006,0.6,9.55138,22.9233,return,7.786444599973038,,,,,,,,,,,,,,,,,716,19,male,up_down_width,2024-10-24_13h08.56.122,exp1,2023.1.0,59.97537416124552,
,,,,,,,,,,,,,,,,4,9.25,9.75,10.25,10.75,0,0.5,0.25,0.25,1.75,10,initial,36.05,333,351,370,388,0,9,9,9,9,0,,,,,,,3,0,3,0,0,33,33,40,,,,,,,,,,,,num_5,2.9040240000467747,num_5,0.4,0.8,0.20000000000000007,0.55,7.6411,21.01303,return,4.384038400137797,,,,,,,,,,,,,,,,,716,19,male,up_down_width,2024-10-24_13h08.56.122,exp1,2023.1.0,59.97537416124552,
,,,,,,,,,,,,,,,,4,9.25,9.75,10.25,10.75,0,0.5,0.25,0.25,1.75,10,initial,36.05,333,351,370,388,0,9,9,9,9,0,,,,,,,3,0,3,0,0,34,34,41,,,,,,,,,,,,num_4,1.8851073002442718,num_4,0.55,1.3,0.30000000000000004,0.6,11.46165,22.9233,return,5.89893600018695,,,,,,,,,,,,,,,,,716,19,male,up_down_width,2024-10-24_13h08.56.122,exp1,2023.1.0,59.97537416124552,
,,,,,,,,,,,,,,,,5,9,9.5,10,10.5,11,0.5,0.25,0.25,2.25,10,initial,36.05,324,342,361,379,397,9,9,9,9,9,,,,,,,3,0,3,0,0,35,35,18,,,,,,,,,,,,num_6,1.5858507002703846,num_6,0.55,1.2,0.20000000000000007,0.6,7.6411,22.9233,return,4.824661400169134,,,,,,,,,,,,,,,,,716,19,male,up_down_width,2024-10-24_13h08.56.122,exp1,2023.1.0,59.97537416124552,
,,,,,,,,,,,,,,,,5,9,9.5,10,10.5,11,0.5,0.25,0.25,2.25,10,initial,36.05,324,342,361,379,397,9,9,9,9,9,,,,,,,3,0,3,0,0,36,36,26,,,,,,,,,,,,num_5,1.6988705000840127,num_5,0.2,1.1,0.2,0.6,7.6411,22.9233,return,5.293376799905673,,,,,,,,,,,,,,,,,716,19,male,up_down_width,2024-10-24_13h08.56.122,exp1,2023.1.0,59.97537416124552,
,,,,,,,,,,,,,,,,4,9.25,9.75,10.25,10.75,0,0.5,0.25,0.25,1.75,10,initial,36.05,333,351,370,388,0,9,9,9,9,0,,,,,,,3,0,3,0,0,37,37,43,,,,,,,,,,,,num_4,2.2846865002065897,num_4,0.25,1.2,0.25,0.6,9.55138,22.9233,return,3.6155906000640243,,,,,,,,,,,,,,,,,716,19,male,up_down_width,2024-10-24_13h08.56.122,exp1,2023.1.0,59.97537416124552,
,,,,,,,,,,,,,,,,4,9.25,9.75,10.25,10.75,0,0.5,0.25,0.25,1.75,10,initial,36.05,333,351,370,388,0,9,9,9,9,0,,,,,,,3,0,3,0,0,38,38,37,,,,,,,,,,,,num_3,1.9641203000210226,num_3,0.2,0.3,0.25,0.6,9.55138,22.9233,return,5.973098300164565,,,,,,,,,,,,,,,,,716,19,male,up_down_width,2024-10-24_13h08.56.122,exp1,2023.1.0,59.97537416124552,
,,,,,,,,,,,,,,,,4,9.25,9.75,10.25,10.75,0,0.5,0.25,0.25,1.75,10,initial,36.05,333,351,370,388,0,9,9,9,9,0,,,,,,,3,0,3,0,0,39,39,15,,,,,,,,,,,,num_4,1.1257931001018733,num_4,0.45,0.6,0.30000000000000004,0.7,11.46165,26.74385,return,6.2932514999993145,,,,,,,,,,,,,,,,,716,19,male,up_down_width,2024-10-24_13h08.56.122,exp1,2023.1.0,59.97537416124552,
,,,,,,,,,,,,,,,,4,9.25,9.75,10.25,10.75,0,0.5,0.25,0.25,1.75,10,initial,36.05,333,351,370,388,0,9,9,9,9,0,,,,,,,3,0,3,0,0,40,40,39,,,,,,,,,,,,num_4,1.7268426001537591,num_4,0.3,0.9,0.3,0.6,11.46165,22.9233,return,3.1139976002741605,,,,,,,,,,,,,,,,,716,19,male,up_down_width,2024-10-24_13h08.56.122,exp1,2023.1.0,59.97537416124552,
,,,,,,,,,,,,,,,,4,9.25,9.75,10.25,10.75,0,0.5,0.25,0.25,1.75,10,initial,36.05,333,351,370,388,0,9,9,9,9,0,,,,,,,3,0,3,0,0,41,41,13,,,,,,,,,,,,num_4,1.6067611000034958,num_4,0.2,0.7,0.3,0.6,11.46165,22.9233,return,8.524959900183603,,,,,,,,,,,,,,,,,716,19,male,up_down_width,2024-10-24_13h08.56.122,exp1,2023.1.0,59.97537416124552,
,,,,,,,,,,,,,,,,4,9.25,9.75,10.25,10.75,0,0.5,0.25,0.25,1.75,10,initial,36.05,333,351,370,388,0,9,9,9,9,0,,,,,,,3,0,3,0,0,42,42,17,,,,,,,,,,,,num_4,1.7993521001189947,num_4,0.2,0.3,0.35,0.6,13.37193,22.9233,return,5.065713100135326,,,,,,,,,,,,,,,,,716,19,male,up_down_width,2024-10-24_13h08.56.122,exp1,2023.1.0,59.97537416124552,
,,,,,,,,,,,,,,,,3,9.5,10,10.5,0,0,0.5,0.25,0.25,1.25,10,initial,36.05,342,361,379,0,0,9,9,9,0,0,,,,,,,3,0,3,0,0,43,43,32,,,,,,,,,,,,num_2,1.3079969002865255,num_2,0.4,1.2,0.30000000000000004,0.5,11.46165,19.10275,return,3.9070001000072807,,,,,,,,,,,,,,,,,716,19,male,up_down_width,2024-10-24_13h08.56.122,exp1,2023.1.0,59.97537416124552,
,,,,,,,,,,,,,,,,4,9.25,9.75,10.25,10.75,0,0.5,0.25,0.25,1.75,10,initial,36.05,333,351,370,388,0,9,9,9,9,0,,,,,,,3,0,3,0,0,44,44,9,,,,,,,,,,,,num_5,1.9152472999412566,num_5,0.2,0.9,0.3,0.5,11.46165,19.10275,return,2.9676902000792325,,,,,,,,,,,,,,,,,716,19,male,up_down_width,2024-10-24_13h08.56.122,exp1,2023.1.0,59.97537416124552,
,,,,,,,,,,,,,,,,5,9,9.5,10,10.5,11,0.5,0.25,0.25,2.25,10,initial,36.05,324,342,361,379,397,9,9,9,9,9,,,,,,,3,0,3,0,0,45,45,22,,,,,,,,,,,,num_6,1.2956899001728743,num_6,0.35,0.4,0.2,0.5,7.6411,19.10275,return,5.204923700075597,,,,,,,,,,,,,,,,,716,19,male,up_down_width,2024-10-24_13h08.56.122,exp1,2023.1.0,59.97537416124552,
,,,,,,,,,,,,,,,,3,9.5,10,10.5,0,0,0.5,0.25,0.25,1.25,10,initial,36.05,342,361,379,0,0,9,9,9,0,0,,,,,,,3,0,3,0,0,46,46,29,,,,,,,,,,,,num_2,1.1915570001583546,num_2,0.3,0.4,0.25,0.7,9.55138,26.74385,return,6.982699899934232,,,,,,,,,,,,,,,,,716,19,male,up_down_width,2024-10-24_13h08.56.122,exp1,2023.1.0,59.97537416124552,
,,,,,,,,,,,,,,,,4,9.25,9.75,10.25,10.75,0,0.5,0.25,0.25,1.75,10,initial,36.05,333,351,370,388,0,9,9,9,9,0,,,,,,,3,0,3,0,0,47,47,44,,,,,,,,,,,,num_4,1.501145400106907,num_4,0.35,0.7,0.25,0.6,9.55138,22.9233,return,5.660632099956274,,,,,,,,,,,,,,,,,716,19,male,up_down_width,2024-10-24_13h08.56.122,exp1,2023.1.0,59.97537416124552,
,,,,,,,,,,,,,,,,3,9.5,10,10.5,0,0,0.5,0.25,0.25,1.25,10,initial,36.05,342,361,379,0,0,9,9,9,0,0,,,,,,,3,0,3,0,0,48,48,33,,,,,,,,,,,,num_2,1.1522866999730468,num_2,0.25,1.0,0.25,0.5,9.55138,19.10275,return,3.1634714000392705,,,,,,,,,,,,,,,,,716,19,male,up_down_width,2024-10-24_13h08.56.122,exp1,2023.1.0,59.97537416124552,
,,,,,,,,,,,,,,,,4,9.25,9.75,10.25,10.75,0,0.5,0.25,0.25,1.75,10,initial,36.05,333,351,370,388,0,9,9,9,9,0,,,,,,,3,0,3,0,0,49,49,42,,,,,,,,,,,,num_4,1.3821274002548307,num_4,0.45,1.0,0.30000000000000004,0.7,11.46165,26.74385,return,5.469444000162184,,,,,,,,,,,,,,,,,716,19,male,up_down_width,2024-10-24_13h08.56.122,exp1,2023.1.0,59.97537416124552,
,,,,,,,,,,,,,,,,3,9.5,10,10.5,0,0,0.5,0.25,0.25,1.25,10,initial,36.05,342,361,379,0,0,9,9,9,0,0,,,,,,,3,0,3,0,0,50,50,7,,,,,,,,,,,,num_2,1.1464732000604272,num_2,0.55,0.8,0.35000000000000003,0.7,13.37193,26.74385,return,5.271425700280815,,,,,,,,,,,,,,,,,716,19,male,up_down_width,2024-10-24_13h08.56.122,exp1,2023.1.0,59.97537416124552,
,,,,,,,,,,,,,,,,5,9,9.5,10,10.5,11,0.5,0.25,0.25,2.25,10,initial,36.05,324,342,361,379,397,9,9,9,9,9,,,,,,,3,0,3,0,0,51,51,24,,,,,,,,,,,,num_6,1.4574305000714958,num_6,0.4,0.8,0.25000000000000006,0.7,9.55138,26.74385,return,8.534680699929595,,,,,,,,,,,,,,,,,716,19,male,up_down_width,2024-10-24_13h08.56.122,exp1,2023.1.0,59.97537416124552,
,,,,,,,,,,,,,,,,3,9.5,10,10.5,0,0,0.5,0.25,0.25,1.25,10,initial,36.05,342,361,379,0,0,9,9,9,0,0,,,,,,,3,0,3,0,0,52,52,35,,,,,,,,,,,,num_2,1.108734300127253,num_2,0.2,0.4,0.3,0.6,11.46165,22.9233,return,5.842033400200307,,,,,,,,,,,,,,,,,716,19,male,up_down_width,2024-10-24_13h08.56.122,exp1,2023.1.0,59.97537416124552,
,,,,,,,,,,,,,,,,3,9.5,10,10.5,0,0,0.5,0.25,0.25,1.25,10,initial,36.05,342,361,379,0,0,9,9,9,0,0,,,,,,,3,0,3,0,0,53,53,8,,,,,,,,,,,,num_2,1.1996962002012879,num_2,0.25,0.8,0.35,0.7,13.37193,26.74385,return,7.551123000215739,,,,,,,,,,,,,,,,,716,19,male,up_down_width,2024-10-24_13h08.56.122,exp1,2023.1.0,59.97537416124552,
,,,,,,,,,,,,,,,,,,,,,,,,,,,,,,,,,,,,,,,,,,,,,3,0,3,0,,,,,,,,,,,,,,,,,,,,,,,,,,,,,3366.987264599884,3366.987264599884,3366.987264599884,,,,,,,,,,,,716,19,male,up_down_width,2024-10-24_13h08.56.122,exp1,2023.1.0,59.97537416124552,
,,,,,,,,,,,,,,,,4,8.65,9.55,10.45,11.35,0,0.9,0.35,0.55,3.25,10,initial,36.05,312,344,377,409,0,9,9,9,9,0,,,,,,,4,0,4,0,0,0,0,15,,,,,,,,,,,,num_4,2.0273165001999587,num_4,0.45,0.8,0.6500000000000001,0.9,24.83358,34.38495,return,3.6986486001405865,,,,,,,,,,,,,,,,,716,19,male,up_down_width,2024-10-24_13h08.56.122,exp1,2023.1.0,59.97537416124552,
,,,,,,,,,,,,,,,,3,9.1,10,10.9,0,0,0.9,0.35,0.55,2.35,10,initial,36.05,328,361,393,0,0,9,9,9,0,0,,,,,,,4,0,4,0,0,1,1,6,,,,,,,,,,,,num_3,2.124317799927667,num_3,0.35,0.8,0.65,0.9,24.83358,34.38495,return,4.242896900046617,,,,,,,,,,,,,,,,,716,19,male,up_down_width,2024-10-24_13h08.56.122,exp1,2023.1.0,59.97537416124552,
,,,,,,,,,,,,,,,,4,8.65,9.55,10.45,11.35,0,0.9,0.35,0.55,3.25,10,initial,36.05,312,344,377,409,0,9,9,9,9,0,,,,,,,4,0,4,0,0,2,2,42,,,,,,,,,,,,num_5,2.020772600080818,num_5,0.2,0.8,0.65,0.9,24.83358,34.38495,return,3.8390158000402153,,,,,,,,,,,,,,,,,716,19,male,up_down_width,2024-10-24_13h08.56.122,exp1,2023.1.0,59.97537416124552,
,,,,,,,,,,,,,,,,4,8.65,9.55,10.45,11.35,0,0.9,0.35,0.55,3.25,10,initial,36.05,312,344,377,409,0,9,9,9,9,0,,,,,,,4,0,4,0,0,3,3,11,,,,,,,,,,,,num_4,1.4680216000415385,num_4,0.2,0.7,0.65,0.8,24.83358,30.5644,return,4.766596500063315,,,,,,,,,,,,,,,,,716,19,male,up_down_width,2024-10-24_13h08.56.122,exp1,2023.1.0,59.97537416124552,
,,,,,,,,,,,,,,,,3,9.1,10,10.9,0,0,0.9,0.35,0.55,2.35,10,initial,36.05,328,361,393,0,0,9,9,9,0,0,,,,,,,4,0,4,0,0,4,4,32,,,,,,,,,,,,num_2,1.1894210001919419,num_2,0.35,0.8,0.8000000000000002,1.2,30.5644,45.8466,return,8.687553300289437,,,,,,,,,,,,,,,,,716,19,male,up_down_width,2024-10-24_13h08.56.122,exp1,2023.1.0,59.97537416124552,
,,,,,,,,,,,,,,,,4,8.65,9.55,10.45,11.35,0,0.9,0.35,0.55,3.25,10,initial,36.05,312,344,377,409,0,9,9,9,9,0,,,,,,,4,0,4,0,0,5,5,37,,,,,,,,,,,,num_4,1.5899457002524287,num_4,0.35,0.8,0.7500000000000001,1.2,28.65413,45.8466,return,7.813890400109813,,,,,,,,,,,,,,,,,716,19,male,up_down_width,2024-10-24_13h08.56.122,exp1,2023.1.0,59.97537416124552,
,,,,,,,,,,,,,,,,4,8.65,9.55,10.45,11.35,0,0.9,0.35,0.55,3.25,10,initial,36.05,312,344,377,409,0,9,9,9,9,0,,,,,,,4,0,4,0,0,6,6,41,,,,,,,,,,,,num_4,1.9422993999905884,num_4,0.35,1.1,0.7500000000000001,1.1,28.65413,42.02605,return,5.879487000172958,,,,,,,,,,,,,,,,,716,19,male,up_down_width,2024-10-24_13h08.56.122,exp1,2023.1.0,59.97537416124552,
,,,,,,,,,,,,,,,,3,9.1,10,10.9,0,0,0.9,0.35,0.55,2.35,10,initial,36.05,328,361,393,0,0,9,9,9,0,0,,,,,,,4,0,4,0,0,7,7,28,,,,,,,,,,,,num_3,3.3634285002481192,num_3,0.5,1.3,0.7000000000000002,1.2,26.74385,45.8466,return,4.075242100050673,,,,,,,,,,,,,,,,,716,19,male,up_down_width,2024-10-24_13h08.56.122,exp1,2023.1.0,59.97537416124552,
,,,,,,,,,,,,,,,,4,8.65,9.55,10.45,11.35,0,0.9,0.35,0.55,3.25,10,initial,36.05,312,344,377,409,0,9,9,9,9,0,,,,,,,4,0,4,0,0,8,8,16,,,,,,,,,,,,num_4,1.2660840000025928,num_4,0.2,0.6,0.7000000000000001,1.0,26.74385,38.2055,return,4.9488892001099885,,,,,,,,,,,,,,,,,716,19,male,up_down_width,2024-10-24_13h08.56.122,exp1,2023.1.0,59.97537416124552,
,,,,,,,,,,,,,,,,5,8.2,9.1,10,10.9,11.8,0.9,0.35,0.55,4.15,10,initial,36.05,296,328,361,393,425,9,9,9,9,9,,,,,,,4,0,4,0,0,9,9,49,,,,,,,,,,,,num_5,1.2313471001107246,num_5,0.5,1.3,0.8500000000000003,1.2,32.47468,45.8466,return,4.555998700205237,,,,,,,,,,,,,,,,,716,19,male,up_down_width,2024-10-24_13h08.56.122,exp1,2023.1.0,59.97537416124552,
,,,,,,,,,,,,,,,,5,8.2,9.1,10,10.9,11.8,0.9,0.35,0.55,4.15,10,initial,36.05,296,328,361,393,425,9,9,9,9,9,,,,,,,4,0,4,0,0,10,10,52,,,,,,,,,,,,num_4,1.469177800230682,num_4,0.25,1.1,0.7000000000000001,1.0,26.74385,38.2055,return,5.598239000188187,,,,,,,,,,,,,,,,,716,19,male,up_down_width,2024-10-24_13h08.56.122,exp1,2023.1.0,59.97537416124552,
,,,,,,,,,,,,,,,,5,8.2,9.1,10,10.9,11.8,0.9,0.35,0.55,4.15,10,initial,36.05,296,328,361,393,425,9,9,9,9,9,,,,,,,4,0,4,0,0,11,11,22,,,,,,,,,,,,num_6,1.2894480999093503,num_6,0.5,0.9,0.8000000000000003,1.1,30.5644,42.02605,return,5.568249700125307,,,,,,,,,,,,,,,,,716,19,male,up_down_width,2024-10-24_13h08.56.122,exp1,2023.1.0,59.97537416124552,
,,,,,,,,,,,,,,,,4,8.65,9.55,10.45,11.35,0,0.9,0.35,0.55,3.25,10,initial,36.05,312,344,377,409,0,9,9,9,9,0,,,,,,,4,0,4,0,0,12,12,10,,,,,,,,,,,,num_4,1.34692950011231,num_4,0.5,0.8,0.8500000000000003,1.3,32.47468,49.66716,return,4.79568270011805,,,,,,,,,,,,,,,,,716,19,male,up_down_width,2024-10-24_13h08.56.122,exp1,2023.1.0,59.97537416124552,
,,,,,,,,,,,,,,,,5,8.2,9.1,10,10.9,11.8,0.9,0.35,0.55,4.15,10,initial,36.05,296,328,361,393,425,9,9,9,9,9,,,,,,,4,0,4,0,0,13,13,19,,,,,,,,,,,,num_5,1.413692899979651,num_5,0.2,0.6,0.6,0.85,22.9233,32.47468,return,8.26848839991726,,,,,,,,,,,,,,,,,716,19,male,up_down_width,2024-10-24_13h08.56.122,exp1,2023.1.0,59.97537416124552,
,,,,,,,,,,,,,,,,5,8.2,9.1,10,10.9,11.8,0.9,0.35,0.55,4.15,10,initial,36.05,296,328,361,393,425,9,9,9,9,9,,,,,,,4,0,4,0,0,14,14,46,,,,,,,,,,,,num_6,1.0427461001090705,num_6,0.4,0.9,0.6500000000000001,1.0,24.83358,38.2055,return,4.544937500031665,,,,,,,,,,,,,,,,,716,19,male,up_down_width,2024-10-24_13h08.56.122,exp1,2023.1.0,59.97537416124552,
,,,,,,,,,,,,,,,,5,8.2,9.1,10,10.9,11.8,0.9,0.35,0.55,4.15,10,initial,36.05,296,328,361,393,425,9,9,9,9,9,,,,,,,4,0,4,0,0,15,15,21,,,,,,,,,,,,num_6,1.529092200100422,num_6,0.35,0.9,0.65,1.0,24.83358,38.2055,return,6.6029106001369655,,,,,,,,,,,,,,,,,716,19,male,up_down_width,2024-10-24_13h08.56.122,exp1,2023.1.0,59.97537416124552,
,,,,,,,,,,,,,,,,5,8.2,9.1,10,10.9,11.8,0.9,0.35,0.55,4.15,10,initial,36.05,296,328,361,393,425,9,9,9,9,9,,,,,,,4,0,4,0,0,16,16,50,,,,,,,,,,,,num_5,2.1385107000824064,num_5,0.2,1.1,0.7000000000000001,1.1,26.74385,42.02605,return,3.920618199976161,,,,,,,,,,,,,,,,,716,19,male,up_down_width,2024-10-24_13h08.56.122,exp1,2023.1.0,59.97537416124552,
,,,,,,,,,,,,,,,,3,9.1,10,10.9,0,0,0.9,0.35,0.55,2.35,10,initial,36.05,328,361,393,0,0,9,9,9,0,0,,,,,,,4,0,4,0,0,17,17,4,,,,,,,,,,,,num_3,1.0053745999466628,num_3,0.55,0.6,0.55,0.8,21.01303,30.5644,return,3.919006100157276,,,,,,,,,,,,,,,,,716,19,male,up_down_width,2024-10-24_13h08.56.122,exp1,2023.1.0,59.97537416124552,
,,,,,,,,,,,,,,,,3,9.1,10,10.9,0,0,0.9,0.35,0.55,2.35,10,initial,36.05,328,361,393,0,0,9,9,9,0,0,,,,,,,4,0,4,0,0,18,18,3,,,,,,,,,,,,num_2,1.0695269999559969,num_2,0.25,1.6,0.6,1.1,22.9233,42.02605,return,9.360192300053313,,,,,,,,,,,,,,,,,716,19,male,up_down_width,2024-10-24_13h08.56.122,exp1,2023.1.0,59.97537416124552,
,,,,,,,,,,,,,,,,3,9.1,10,10.9,0,0,0.9,0.35,0.55,2.35,10,initial,36.05,328,361,393,0,0,9,9,9,0,0,,,,,,,4,0,4,0,0,19,19,8,,,,,,,,,,,,num_2,1.1715711001306772,num_2,0.3,1.2,0.65,1.2,24.83358,45.8466,return,6.014936200110242,,,,,,,,,,,,,,,,,716,19,male,up_down_width,2024-10-24_13h08.56.122,exp1,2023.1.0,59.97537416124552,
,,,,,,,,,,,,,,,,4,8.65,9.55,10.45,11.35,0,0.9,0.35,0.55,3.25,10,initial,36.05,312,344,377,409,0,9,9,9,9,0,,,,,,,4,0,4,0,0,20,20,40,,,,,,,,,,,,num_4,1.2102962001226842,num_4,0.35,0.5,0.65,1.1,24.83358,42.02605,return,7.875228200107813,,,,,,,,,,,,,,,,,716,19,male,up_down_width,2024-10-24_13h08.56.122,exp1,2023.1.0,59.97537416124552,
,,,,,,,,,,,,,,,,4,8.65,9.55,10.45,11.35,0,0.9,0.35,0.55,3.25,10,initial,36.05,312,344,377,409,0,9,9,9,9,0,,,,,,,4,0,4,0,0,21,21,36,,,,,,,,,,,,num_4,1.0914338000584394,num_4,0.35,0.9,0.7500000000000001,1.1,28.65413,42.02605,return,6.309092600131407,,,,,,,,,,,,,,,,,716,19,male,up_down_width,2024-10-24_13h08.56.122,exp1,2023.1.0,59.97537416124552,
,,,,,,,,,,,,,,,,5,8.2,9.1,10,10.9,11.8,0.9,0.35,0.55,4.15,10,initial,36.05,296,328,361,393,425,9,9,9,9,9,,,,,,,4,0,4,0,0,22,22,25,,,,,,,,,,,,num_6,1.5545624000951648,num_6,0.45,0.9,0.6000000000000001,0.9,22.9233,34.38495,return,6.385942100314423,,,,,,,,,,,,,,,,,716,19,male,up_down_width,2024-10-24_13h08.56.122,exp1,2023.1.0,59.97537416124552,
,,,,,,,,,,,,,,,,3,9.1,10,10.9,0,0,0.9,0.35,0.55,2.35,10,initial,36.05,328,361,393,0,0,9,9,9,0,0,,,,,,,4,0,4,0,0,23,23,33,,,,,,,,,,,,num_2,1.0414192001335323,num_2,0.35,1.4,0.7500000000000001,1.4,28.65413,53.48771,return,6.310054800240323,,,,,,,,,,,,,,,,,716,19,male,up_down_width,2024-10-24_13h08.56.122,exp1,2023.1.0,59.97537416124552,
,,,,,,,,,,,,,,,,5,8.2,9.1,10,10.9,11.8,0.9,0.35,0.55,4.15,10,initial,36.05,296,328,361,393,425,9,9,9,9,9,,,,,,,4,0,4,0,0,24,24,24,,,,,,,,,,,,num_5,1.4882041001692414,num_5,0.2,0.8,0.65,1.05,24.83358,40.11578,return,6.7233548001386225,,,,,,,,,,,,,,,,,716,19,male,up_down_width,2024-10-24_13h08.56.122,exp1,2023.1.0,59.97537416124552,
,,,,,,,,,,,,,,,,4,8.65,9.55,10.45,11.35,0,0.9,0.35,0.55,3.25,10,initial,36.05,312,344,377,409,0,9,9,9,9,0,,,,,,,4,0,4,0,0,25,25,43,,,,,,,,,,,,num_4,1.0866366000846028,num_4,0.2,1.2,0.7000000000000001,1.2,26.74385,45.8466,return,3.2658828999847174,,,,,,,,,,,,,,,,,716,19,male,up_down_width,2024-10-24_13h08.56.122,exp1,2023.1.0,59.97537416124552,
,,,,,,,,,,,,,,,,4,8.65,9.55,10.45,11.35,0,0.9,0.35,0.55,3.25,10,initial,36.05,312,344,377,409,0,9,9,9,9,0,,,,,,,4,0,4,0,0,26,26,39,,,,,,,,,,,,num_4,1.3838806001003832,num_4,0.25,0.5,0.65,1.0,24.83358,38.2055,return,6.399362100055441,,,,,,,,,,,,,,,,,716,19,male,up_down_width,2024-10-24_13h08.56.122,exp1,2023.1.0,59.97537416124552,
,,,,,,,,,,,,,,,,5,8.2,9.1,10,10.9,11.8,0.9,0.35,0.55,4.15,10,initial,36.05,296,328,361,393,425,9,9,9,9,9,,,,,,,4,0,4,0,0,27,27,48,,,,,,,,,,,,num_6,1.3410553000867367,num_6,0.45,1.3,0.6000000000000001,1.0,22.9233,38.2055,return,5.571241900091991,,,,,,,,,,,,,,,,,716,19,male,up_down_width,2024-10-24_13h08.56.122,exp1,2023.1.0,59.97537416124552,
,,,,,,,,,,,,,,,,3,9.1,10,10.9,0,0,0.9,0.35,0.55,2.35,10,initial,36.05,328,361,393,0,0,9,9,9,0,0,,,,,,,4,0,4,0,0,28,28,1,,,,,,,,,,,,num_2,1.1450207000598311,num_2,0.45,1.0,0.6000000000000001,0.9,22.9233,34.38495,return,4.977301900042221,,,,,,,,,,,,,,,,,716,19,male,up_down_width,2024-10-24_13h08.56.122,exp1,2023.1.0,59.97537416124552,
,,,,,,,,,,,,,,,,4,8.65,9.55,10.45,11.35,0,0.9,0.35,0.55,3.25,10,initial,36.05,312,344,377,409,0,9,9,9,9,0,,,,,,,4,0,4,0,0,29,29,13,,,,,,,,,,,,num_4,1.4586853000801057,num_4,0.35,1.2,0.7500000000000001,1.1,28.65413,42.02605,return,4.021541600115597,,,,,,,,,,,,,,,,,716,19,male,up_down_width,2024-10-24_13h08.56.122,exp1,2023.1.0,59.97537416124552,
,,,,,,,,,,,,,,,,3,9.1,10,10.9,0,0,0.9,0.35,0.55,2.35,10,initial,36.05,328,361,393,0,0,9,9,9,0,0,,,,,,,4,0,4,0,0,30,30,29,,,,,,,,,,,,num_2,1.5180745001416653,num_2,0.55,1.4,0.6000000000000001,0.9,22.9233,34.38495,return,4.359763000160456,,,,,,,,,,,,,,,,,716,19,male,up_down_width,2024-10-24_13h08.56.122,exp1,2023.1.0,59.97537416124552,
,,,,,,,,,,,,,,,,5,8.2,9.1,10,10.9,11.8,0.9,0.35,0.55,4.15,10,initial,36.05,296,328,361,393,425,9,9,9,9,9,,,,,,,4,0,4,0,0,31,31,53,,,,,,,,,,,,num_5,2.707249900093302,num_5,0.25,0.3,0.65,1.0,24.83358,38.2055,return,9.281640000175685,,,,,,,,,,,,,,,,,716,19,male,up_down_width,2024-10-24_13h08.56.122,exp1,2023.1.0,59.97537416124552,
,,,,,,,,,,,,,,,,5,8.2,9.1,10,10.9,11.8,0.9,0.35,0.55,4.15,10,initial,36.05,296,328,361,393,425,9,9,9,9,9,,,,,,,4,0,4,0,0,32,32,51,,,,,,,,,,,,num_6,1.4917355000507087,num_6,0.35,0.9,0.65,0.9,24.83358,34.38495,return,6.593167999992147,,,,,,,,,,,,,,,,,716,19,male,up_down_width,2024-10-24_13h08.56.122,exp1,2023.1.0,59.97537416124552,
,,,,,,,,,,,,,,,,3,9.1,10,10.9,0,0,0.9,0.35,0.55,2.35,10,initial,36.05,328,361,393,0,0,9,9,9,0,0,,,,,,,4,0,4,0,0,33,33,0,,,,,,,,,,,,num_3,1.474966200068593,num_3,0.25,1,0.7000000000000001,1.05,26.74385,40.11578,return,5.362932200077921,,,,,,,,,,,,,,,,,716,19,male,up_down_width,2024-10-24_13h08.56.122,exp1,2023.1.0,59.97537416124552,
,,,,,,,,,,,,,,,,4,8.65,9.55,10.45,11.35,0,0.9,0.35,0.55,3.25,10,initial,36.05,312,344,377,409,0,9,9,9,9,0,,,,,,,4,0,4,0,0,34,34,12,,,,,,,,,,,,num_4,1.1912420999724418,num_4,0.2,0.3,0.7000000000000001,1.0,26.74385,38.2055,return,9.010610300116241,,,,,,,,,,,,,,,,,716,19,male,up_down_width,2024-10-24_13h08.56.122,exp1,2023.1.0,59.97537416124552,
,,,,,,,,,,,,,,,,4,8.65,9.55,10.45,11.35,0,0.9,0.35,0.55,3.25,10,initial,36.05,312,344,377,409,0,9,9,9,9,0,,,,,,,4,0,4,0,0,35,35,9,,,,,,,,,,,,num_5,1.0775393000803888,num_5,0.55,1.3,0.5,0.95,19.10275,36.29523,return,6.776148200035095,,,,,,,,,,,,,,,,,716,19,male,up_down_width,2024-10-24_13h08.56.122,exp1,2023.1.0,59.97537416124552,
,,,,,,,,,,,,,,,,5,8.2,9.1,10,10.9,11.8,0.9,0.35,0.55,4.15,10,initial,36.05,296,328,361,393,425,9,9,9,9,9,,,,,,,4,0,4,0,0,36,36,20,,,,,,,,,,,,num_6,1.538452200125903,num_6,0.25,0.4,0.5499999999999999,0.9,21.01303,34.38495,return,4.836116699967533,,,,,,,,,,,,,,,,,716,19,male,up_down_width,2024-10-24_13h08.56.122,exp1,2023.1.0,59.97537416124552,
,,,,,,,,,,,,,,,,5,8.2,9.1,10,10.9,11.8,0.9,0.35,0.55,4.15,10,initial,36.05,296,328,361,393,425,9,9,9,9,9,,,,,,,4,0,4,0,0,37,37,45,,,,,,,,,,,,num_5,4.844439700013027,num_5,0.45,1.1,0.6500000000000001,1.05,24.83358,40.11578,return,25.866008500102907,,,,,,,,,,,,,,,,,716,19,male,up_down_width,2024-10-24_13h08.56.122,exp1,2023.1.0,59.97537416124552,
,,,,,,,,,,,,,,,,3,9.1,10,10.9,0,0,0.9,0.35,0.55,2.35,10,initial,36.05,328,361,393,0,0,9,9,9,0,0,,,,,,,4,0,4,0,0,38,38,5,,,,,,,,,,,,num_2,1.1995880999602377,num_2,0.4,1.0,0.6500000000000001,1.0,24.83358,38.2055,return,3.951702800113708,,,,,,,,,,,,,,,,,716,19,male,up_down_width,2024-10-24_13h08.56.122,exp1,2023.1.0,59.97537416124552,
,,,,,,,,,,,,,,,,4,8.65,9.55,10.45,11.35,0,0.9,0.35,0.55,3.25,10,initial,36.05,312,344,377,409,0,9,9,9,9,0,,,,,,,4,0,4,0,0,39,39,17,,,,,,,,,,,,num_4,1.1300123000983149,num_4,0.5,1.0,0.6500000000000001,1.0,24.83358,38.2055,return,4.12156720017083,,,,,,,,,,,,,,,,,716,19,male,up_down_width,2024-10-24_13h08.56.122,exp1,2023.1.0,59.97537416124552,
,,,,,,,,,,,,,,,,4,8.65,9.55,10.45,11.35,0,0.9,0.35,0.55,3.25,10,initial,36.05,312,344,377,409,0,9,9,9,9,0,,,,,,,4,0,4,0,0,40,40,14,,,,,,,,,,,,num_4,0.9632500000298023,num_4,0.2,0.6,0.6,0.8,22.9233,30.5644,return,3.0649290999863297,,,,,,,,,,,,,,,,,716,19,male,up_down_width,2024-10-24_13h08.56.122,exp1,2023.1.0,59.97537416124552,
,,,,,,,,,,,,,,,,4,8.65,9.55,10.45,11.35,0,0.9,0.35,0.55,3.25,10,initial,36.05,312,344,377,409,0,9,9,9,9,0,,,,,,,4,0,4,0,0,41,41,38,,,,,,,,,,,,num_4,1.058757700258866,num_4,0.25,0.6,0.65,1.0,24.83358,38.2055,return,5.382491500116885,,,,,,,,,,,,,,,,,716,19,male,up_down_width,2024-10-24_13h08.56.122,exp1,2023.1.0,59.97537416124552,
,,,,,,,,,,,,,,,,5,8.2,9.1,10,10.9,11.8,0.9,0.35,0.55,4.15,10,initial,36.05,296,328,361,393,425,9,9,9,9,9,,,,,,,4,0,4,0,0,42,42,26,,,,,,,,,,,,num_5,1.4475628000218421,num_5,0.3,1.3,0.65,1.1,24.83358,42.02605,return,4.1169189002830535,,,,,,,,,,,,,,,,,716,19,male,up_down_width,2024-10-24_13h08.56.122,exp1,2023.1.0,59.97537416124552,
,,,,,,,,,,,,,,,,3,9.1,10,10.9,0,0,0.9,0.35,0.55,2.35,10,initial,36.05,328,361,393,0,0,9,9,9,0,0,,,,,,,4,0,4,0,0,43,43,35,,,,,,,,,,,,num_2,1.2748582002241164,num_2,0.3,1.2,0.65,1.0,24.83358,38.2055,return,6.338604400167242,,,,,,,,,,,,,,,,,716,19,male,up_down_width,2024-10-24_13h08.56.122,exp1,2023.1.0,59.97537416124552,
,,,,,,,,,,,,,,,,3,9.1,10,10.9,0,0,0.9,0.35,0.55,2.35,10,initial,36.05,328,361,393,0,0,9,9,9,0,0,,,,,,,4,0,4,0,0,44,44,30,,,,,,,,,,,,num_2,1.2603441001847386,num_2,0.35,0.4,0.6,1.2,22.9233,45.8466,return,4.9461236000061035,,,,,,,,,,,,,,,,,716,19,male,up_down_width,2024-10-24_13h08.56.122,exp1,2023.1.0,59.97537416124552,
,,,,,,,,,,,,,,,,3,9.1,10,10.9,0,0,0.9,0.35,0.55,2.35,10,initial,36.05,328,361,393,0,0,9,9,9,0,0,,,,,,,4,0,4,0,0,45,45,27,,,,,,,,,,,,num_2,1.2120678001083434,num_2,0.5,0.8,0.6500000000000001,1.1,24.83358,42.02605,return,3.51358800008893,,,,,,,,,,,,,,,,,716,19,male,up_down_width,2024-10-24_13h08.56.122,exp1,2023.1.0,59.97537416124552,
,,,,,,,,,,,,,,,,4,8.65,9.55,10.45,11.35,0,0.9,0.35,0.55,3.25,10,initial,36.05,312,344,377,409,0,9,9,9,9,0,,,,,,,4,0,4,0,0,46,46,44,,,,,,,,,,,,num_4,1.4185787001624703,num_4,0.25,0.8,0.65,1.0,24.83358,38.2055,return,4.619196200044826,,,,,,,,,,,,,,,,,716,19,male,up_down_width,2024-10-24_13h08.56.122,exp1,2023.1.0,59.97537416124552,
,,,,,,,,,,,,,,,,3,9.1,10,10.9,0,0,0.9,0.35,0.55,2.35,10,initial,36.05,328,361,393,0,0,9,9,9,0,0,,,,,,,4,0,4,0,0,47,47,2,,,,,,,,,,,,num_2,1.0812196002807468,num_2,0.4,0.8,0.6500000000000001,1.0,24.83358,38.2055,return,3.7095640001352876,,,,,,,,,,,,,,,,,716,19,male,up_down_width,2024-10-24_13h08.56.122,exp1,2023.1.0,59.97537416124552,
,,,,,,,,,,,,,,,,3,9.1,10,10.9,0,0,0.9,0.35,0.55,2.35,10,initial,36.05,328,361,393,0,0,9,9,9,0,0,,,,,,,4,0,4,0,0,48,48,31,,,,,,,,,,,,num_2,1.0718877001199871,num_2,0.55,0.8,0.6500000000000001,1.1,24.83358,42.02605,return,5.8079260003287345,,,,,,,,,,,,,,,,,716,19,male,up_down_width,2024-10-24_13h08.56.122,exp1,2023.1.0,59.97537416124552,
,,,,,,,,,,,,,,,,3,9.1,10,10.9,0,0,0.9,0.35,0.55,2.35,10,initial,36.05,328,361,393,0,0,9,9,9,0,0,,,,,,,4,0,4,0,0,49,49,34,,,,,,,,,,,,num_3,1.2997080001514405,num_3,0.3,1.1,0.6,0.85,22.9233,32.47468,return,6.495294500142336,,,,,,,,,,,,,,,,,716,19,male,up_down_width,2024-10-24_13h08.56.122,exp1,2023.1.0,59.97537416124552,
,,,,,,,,,,,,,,,,3,9.1,10,10.9,0,0,0.9,0.35,0.55,2.35,10,initial,36.05,328,361,393,0,0,9,9,9,0,0,,,,,,,4,0,4,0,0,50,50,7,,,,,,,,,,,,num_2,1.3257958001922816,num_2,0.55,0.6,0.7000000000000002,0.9,26.74385,34.38495,return,7.235881100175902,,,,,,,,,,,,,,,,,716,19,male,up_down_width,2024-10-24_13h08.56.122,exp1,2023.1.0,59.97537416124552,
,,,,,,,,,,,,,,,,5,8.2,9.1,10,10.9,11.8,0.9,0.35,0.55,4.15,10,initial,36.05,296,328,361,393,425,9,9,9,9,9,,,,,,,4,0,4,0,0,51,51,18,,,,,,,,,,,,num_7,3.886006100103259,num_7,0.2,1.2,0.7000000000000001,1.05,26.74385,40.11578,return,7.777324200142175,,,,,,,,,,,,,,,,,716,19,male,up_down_width,2024-10-24_13h08.56.122,exp1,2023.1.0,59.97537416124552,
,,,,,,,,,,,,,,,,5,8.2,9.1,10,10.9,11.8,0.9,0.35,0.55,4.15,10,initial,36.05,296,328,361,393,425,9,9,9,9,9,,,,,,,4,0,4,0,0,52,52,47,,,,,,,,,,,,num_6,1.3460069000720978,num_6,0.25,0.7,0.7500000000000001,1.0,28.65413,38.2055,return,5.57432770030573,,,,,,,,,,,,,,,,,716,19,male,up_down_width,2024-10-24_13h08.56.122,exp1,2023.1.0,59.97537416124552,
,,,,,,,,,,,,,,,,5,8.2,9.1,10,10.9,11.8,0.9,0.35,0.55,4.15,10,initial,36.05,296,328,361,393,425,9,9,9,9,9,,,,,,,4,0,4,0,0,53,53,23,,,,,,,,,,,,num_6,2.54329299996607,num_6,0.3,0.7,0.6,0.9,22.9233,34.38495,return,9.15948690008372,,,,,,,,,,,,,,,,,716,19,male,up_down_width,2024-10-24_13h08.56.122,exp1,2023.1.0,59.97537416124552,
,,,,,,,,,,,,,,,,,,,,,,,,,,,,,,,,,,,,,,,,,,,,,4,0,4,0,,,,,,,,,,,,,,,,,,,,,,,,,,,,,3923.5857383999974,3923.5857383999974,3923.5857383999974,,,,,,,,,,,,716,19,male,up_down_width,2024-10-24_13h08.56.122,exp1,2023.1.0,59.97537416124552,
,,,,,,,,,,,,,,,,4,9.25,9.75,10.25,10.75,0,0.5,0.1,0.4,1.9000000000000001,10,initial,36.05,333,351,370,388,0,9,9,9,9,0,,,,,,,5,0,5,0,0,0,0,39,,,,,,,,,,,,num_3,1.2841439002659172,num_3,0.5,1.2,0.55,0.6,21.01303,22.9233,return,5.275075500132516,,,,,,,,,,,,,,,,,716,19,male,up_down_width,2024-10-24_13h08.56.122,exp1,2023.1.0,59.97537416124552,
,,,,,,,,,,,,,,,,3,9.5,10,10.5,0,0,0.5,0.1,0.4,1.4000000000000001,10,initial,36.05,342,361,379,0,0,9,9,9,0,0,,,,,,,5,0,5,0,0,1,1,7,,,,,,,,,,,,num_2,1.1200665002688766,num_2,0.55,1.4,0.5,0.6,19.10275,22.9233,return,4.098846000153571,,,,,,,,,,,,,,,,,716,19,male,up_down_width,2024-10-24_13h08.56.122,exp1,2023.1.0,59.97537416124552,
,,,,,,,,,,,,,,,,5,9,9.5,10,10.5,11,0.5,0.1,0.4,2.4,10,initial,36.05,324,342,361,379,397,9,9,9,9,9,,,,,,,5,0,5,0,0,2,2,48,,,,,,,,,,,,num_4,2.2898979000747204,num_4,0.35,1.2,0.49999999999999994,0.6,19.10275,22.9233,return,5.870809399988502,,,,,,,,,,,,,,,,,716,19,male,up_down_width,2024-10-24_13h08.56.122,exp1,2023.1.0,59.97537416124552,
,,,,,,,,,,,,,,,,3,9.5,10,10.5,0,0,0.5,0.1,0.4,1.4000000000000001,10,initial,36.05,342,361,379,0,0,9,9,9,0,0,,,,,,,5,0,5,0,0,3,3,5,,,,,,,,,,,,num_2,1.0522068000864238,num_2,0.4,1.2,0.5,0.6,19.10275,22.9233,return,5.277077600127086,,,,,,,,,,,,,,,,,716,19,male,up_down_width,2024-10-24_13h08.56.122,exp1,2023.1.0,59.97537416124552,
,,,,,,,,,,,,,,,,4,9.25,9.75,10.25,10.75,0,0.5,0.1,0.4,1.9000000000000001,10,initial,36.05,333,351,370,388,0,9,9,9,9,0,,,,,,,5,0,5,0,0,4,4,43,,,,,,,,,,,,num_3,1.168402000097558,num_3,0.45,0.5,0.5,0.55,19.10275,21.01303,return,4.255310400156304,,,,,,,,,,,,,,,,,716,19,male,up_down_width,2024-10-24_13h08.56.122,exp1,2023.1.0,59.97537416124552,
,,,,,,,,,,,,,,,,5,9,9.5,10,10.5,11,0.5,0.1,0.4,2.4,10,initial,36.05,324,342,361,379,397,9,9,9,9,9,,,,,,,5,0,5,0,0,5,5,47,,,,,,,,,,,,num_4,1.084496600087732,num_4,0.35,1.1,0.44999999999999996,0.5,17.19248,19.10275,return,3.4240296001080424,,,,,,,,,,,,,,,,,716,19,male,up_down_width,2024-10-24_13h08.56.122,exp1,2023.1.0,59.97537416124552,
,,,,,,,,,,,,,,,,5,9,9.5,10,10.5,11,0.5,0.1,0.4,2.4,10,initial,36.05,324,342,361,379,397,9,9,9,9,9,,,,,,,5,0,5,0,0,6,6,18,,,,,,,,,,,,num_4,4.317876000190154,num_4,0.45,0.9,0.5,0.6,19.10275,22.9233,return,5.471291200257838,,,,,,,,,,,,,,,,,716,19,male,up_down_width,2024-10-24_13h08.56.122,exp1,2023.1.0,59.97537416124552,
,,,,,,,,,,,,,,,,3,9.5,10,10.5,0,0,0.5,0.1,0.4,1.4000000000000001,10,initial,36.05,342,361,379,0,0,9,9,9,0,0,,,,,,,5,0,5,0,0,7,7,6,,,,,,,,,,,,num_2,0.978408700088039,num_2,0.35,1.0,0.49999999999999994,0.6,19.10275,22.9233,return,3.2545022000558674,,,,,,,,,,,,,,,,,716,19,male,up_down_width,2024-10-24_13h08.56.122,exp1,2023.1.0,59.97537416124552,
,,,,,,,,,,,,,,,,4,9.25,9.75,10.25,10.75,0,0.5,0.1,0.4,1.9000000000000001,10,initial,36.05,333,351,370,388,0,9,9,9,9,0,,,,,,,5,0,5,0,0,8,8,40,,,,,,,,,,,,num_3,1.5464588000904769,num_3,0.3,0.5,0.5499999999999999,0.6,21.01303,22.9233,return,3.896016800077632,,,,,,,,,,,,,,,,,716,19,male,up_down_width,2024-10-24_13h08.56.122,exp1,2023.1.0,59.97537416124552,
,,,,,,,,,,,,,,,,5,9,9.5,10,10.5,11,0.5,0.1,0.4,2.4,10,initial,36.05,324,342,361,379,397,9,9,9,9,9,,,,,,,5,0,5,0,0,9,9,45,,,,,,,,,,,,num_5,2.001736900070682,num_5,0.35,0.9,0.44999999999999996,0.5,17.19248,19.10275,return,3.8354147002100945,,,,,,,,,,,,,,,,,716,19,male,up_down_width,2024-10-24_13h08.56.122,exp1,2023.1.0,59.97537416124552,
,,,,,,,,,,,,,,,,4,9.25,9.75,10.25,10.75,0,0.5,0.1,0.4,1.9000000000000001,10,initial,36.05,333,351,370,388,0,9,9,9,9,0,,,,,,,5,0,5,0,0,10,10,11,,,,,,,,,,,,num_3,1.321859500138089,num_3,0.35,0.9,0.44999999999999996,0.5,17.19248,19.10275,return,4.322809400269762,,,,,,,,,,,,,,,,,716,19,male,up_down_width,2024-10-24_13h08.56.122,exp1,2023.1.0,59.97537416124552,
,,,,,,,,,,,,,,,,5,9,9.5,10,10.5,11,0.5,0.1,0.4,2.4,10,initial,36.05,324,342,361,379,397,9,9,9,9,9,,,,,,,5,0,5,0,0,11,11,22,,,,,,,,,,,,num_6,1.8207453000359237,num_6,0.55,0.6,0.45,0.5,17.19248,19.10275,return,14.464988000225276,,,,,,,,,,,,,,,,,716,19,male,up_down_width,2024-10-24_13h08.56.122,exp1,2023.1.0,59.97537416124552,
,,,,,,,,,,,,,,,,3,9.5,10,10.5,0,0,0.5,0.1,0.4,1.4000000000000001,10,initial,36.05,342,361,379,0,0,9,9,9,0,0,,,,,,,5,0,5,0,0,12,12,34,,,,,,,,,,,,num_2,1.251985700102523,num_2,0.5,1.2,0.55,0.6,21.01303,22.9233,return,2.784407600061968,,,,,,,,,,,,,,,,,716,19,male,up_down_width,2024-10-24_13h08.56.122,exp1,2023.1.0,59.97537416124552,
