amount_p,posx1_p,posx2_p,posx3_p,posx4_p,posx5_p,center_to_center_p,edge_to_edge_p,w_p,stim_length_p,eccentricity_p,line1_p,line2_p,line3_p,line4_p,line5_p,amount,posx1,posx2,posx3,posx4,posx5,center_to_center,edge_to_edge,w,stim_length,eccentricity,trial_type,deg_to_pix_index,posx1_in_pix,posx2_in_pix,posx3_in_pix,posx4_in_pix,posx5_in_pix,line1,line2,line3,line4,line5,posx,setsize_cobdi,trials.thisRepN,trials.thisTrialN,trials.thisN,trials.thisIndex,blocks.thisRepN,blocks.thisTrialN,blocks.thisN,blocks.thisIndex,loop.thisRepN,loop.thisTrialN,loop.thisN,loop.thisIndex,first.thisRepN,first.thisTrialN,first.thisN,first.thisIndex,second.thisRepN,second.thisTrialN,second.thisN,second.thisIndex,key_resp_3.started,key_resp_3.keys,key_resp_3.rt,key_resp.keys,key_resp.rt,response,starting_width_deg,starting_space_deg,response_width_degree,response_spacing_degree,response_width_pixel,response_spacing_pixel,next_5.keys,next_5.rt,key_resp_4.keys,key_resp_4.rt,text_3.started,text_4.started,key_resp_2.started,text_2.started,key_resp_2.keys,key_resp_2.rt,adjusting.started,next.keys,next.rt,text_control2.started,key_resp.started,key_resp.corr,text_bye.started,text_bye.stopped,participant,age,gender,resp_group,date,expName,psychopyVersion,frameRate,
,,,,,,,,,,,,,,,,,,,,,,,,,,,,,,,,,,,,,,,,,,,,,,,,,,,,,,,,,,,,,369.30225980002433,c,122.33958570007235,,,,,,,,,,,,,,,,,,,,,,,,,,,,915,20,female,left_right_width,2024-10-23_11h41.55.247,exp1,2023.1.0,59.89390395343217,
3,9.1,10,10.9,0,0,0.9,0.35,0.55,2.35,10,9,9,9,0,0,,,,,,,,,,,,,,,,,,,,,,,,,,0,0,0,3,,,,,,,,,,,,,,,,,,,,num_3,3.498093100031838,num_3,0.25,0.6,0.15000000000000002,0.6,5.73083,22.9233,return,6.5214278001803905,,,,,,,,,,,,,,,,,915,20,female,left_right_width,2024-10-23_11h41.55.247,exp1,2023.1.0,59.89390395343217,
5,9,9.5,10,10.5,11,0.5,0.1,0.4,2.4,10,9,9,9,9,9,,,,,,,,,,,,,,,,,,,,,,,,,,0,1,1,5,,,,,,,,,,,,,,,,,,,,num_5,2.2571035001892596,num_5,0.25,0.7,0.10000000000000002,0.7,3.82055,26.74385,return,3.281304500065744,,,,,,,,,,,,,,,,,915,20,female,left_right_width,2024-10-23_11h41.55.247,exp1,2023.1.0,59.89390395343217,
4,9.25,9.75,10.25,10.75,0,0.5,0.1,0.4,1.9000000000000001,10,9,9,9,9,0,,,,,,,,,,,,,,,,,,,,,,,,,,0,2,2,4,,,,,,,,,,,,,,,,,,,,num_4,3.5676241002511233,num_4,0.25,0.3,0.25,0.6,9.55138,22.9233,return,15.962806900031865,,,,,,,,,,,,,,,,,915,20,female,left_right_width,2024-10-23_11h41.55.247,exp1,2023.1.0,59.89390395343217,
4,9.25,9.75,10.25,10.75,0,0.5,0.25,0.25,1.75,10,9,9,9,9,0,,,,,,,,,,,,,,,,,,,,,,,,,,0,3,3,1,,,,,,,,,,,,,,,,,,,,num_4,2.373056299984455,num_4,0.45,1.1,0.20000000000000007,0.6,7.6411,22.9233,return,4.714044000022113,,,,,,,,,,,,,,,,,915,20,female,left_right_width,2024-10-23_11h41.55.247,exp1,2023.1.0,59.89390395343217,
5,8.2,9.1,10,10.9,11.8,0.9,0.35,0.55,4.15,10,9,9,9,9,9,,,,,,,,,,,,,,,,,,,,,,,,,,0,4,4,2,,,,,,,,,,,,,,,,,,,,num_5,2.008911400102079,num_5,0.5,0.8,0.45,0.8,17.19248,30.5644,return,6.599709500093013,,,,,,,,,,,,,,,,,915,20,female,left_right_width,2024-10-23_11h41.55.247,exp1,2023.1.0,59.89390395343217,
3,9.5,10,10.5,0,0,0.5,0.25,0.25,1.25,10,9,9,9,0,0,,,,,,,,,,,,,,,,,,,,,,,,,,0,5,5,0,,,,,,,,,,,,,,,,,,,,num_3,1.9865700001828372,num_3,0.55,1,0.20000000000000007,0.6,7.6411,22.9233,return,5.151278600096703,,,,,,,,,,,,,,,,,915,20,female,left_right_width,2024-10-23_11h41.55.247,exp1,2023.1.0,59.89390395343217,
,,,,,,,,,,,,,,,,,,,,,,,,,,,,,,,,,,,,,,,,,,,,,,,,,,,,,,,,,,,,,,,,,,,,,,,,,,,c,30.498455499997362,,,,,,,,,,,,,,,915,20,female,left_right_width,2024-10-23_11h41.55.247,exp1,2023.1.0,59.89390395343217,
,,,,,,,,,,,,,,,,4,8.65,9.55,10.45,11.35,0,0.9,0.35,0.55,3.25,10,initial,36.05,312,344,377,409,0,9,9,9,9,0,,,,,,,0,0,0,0,0,0,0,44,,,,,,,,,,,,num_4,1.594052900094539,num_4,0.25,0.8,0.44999999999999996,1.1,17.19248,42.02605,return,3.9884970001876354,,,,,,,,,,,,,,,,,915,20,female,left_right_width,2024-10-23_11h41.55.247,exp1,2023.1.0,59.89390395343217,
,,,,,,,,,,,,,,,,3,9.1,10,10.9,0,0,0.9,0.35,0.55,2.35,10,initial,36.05,328,361,393,0,0,9,9,9,0,0,,,,,,,0,0,0,0,0,1,1,30,,,,,,,,,,,,num_3,2.204395800130442,num_3,0.35,0.6,0.3,0.55,11.46165,21.01303,return,4.525003700051457,,,,,,,,,,,,,,,,,915,20,female,left_right_width,2024-10-23_11h41.55.247,exp1,2023.1.0,59.89390395343217,
,,,,,,,,,,,,,,,,5,8.2,9.1,10,10.9,11.8,0.9,0.35,0.55,4.15,10,initial,36.05,296,328,361,393,425,9,9,9,9,9,,,,,,,0,0,0,0,0,2,2,21,,,,,,,,,,,,num_4,1.4236310999840498,num_4,0.5,1.2,0.55,0.9,21.01303,34.38495,return,3.3026232002303004,,,,,,,,,,,,,,,,,915,20,female,left_right_width,2024-10-23_11h41.55.247,exp1,2023.1.0,59.89390395343217,
,,,,,,,,,,,,,,,,3,9.1,10,10.9,0,0,0.9,0.35,0.55,2.35,10,initial,36.05,328,361,393,0,0,9,9,9,0,0,,,,,,,0,0,0,0,0,3,3,7,,,,,,,,,,,,num_3,2.228170100133866,num_3,0.55,1.1,0.45,1.0,17.19248,38.2055,return,3.6852272001560777,,,,,,,,,,,,,,,,,915,20,female,left_right_width,2024-10-23_11h41.55.247,exp1,2023.1.0,59.89390395343217,
,,,,,,,,,,,,,,,,4,8.65,9.55,10.45,11.35,0,0.9,0.35,0.55,3.25,10,initial,36.05,312,344,377,409,0,9,9,9,9,0,,,,,,,0,0,0,0,0,4,4,11,,,,,,,,,,,,num_5,1.587440500035882,num_5,0.25,0.3,0.35,0.55,13.37193,21.01303,return,6.703608799958602,,,,,,,,,,,,,,,,,915,20,female,left_right_width,2024-10-23_11h41.55.247,exp1,2023.1.0,59.89390395343217,
,,,,,,,,,,,,,,,,4,8.65,9.55,10.45,11.35,0,0.9,0.35,0.55,3.25,10,initial,36.05,312,344,377,409,0,9,9,9,9,0,,,,,,,0,0,0,0,0,5,5,15,,,,,,,,,,,,num_4,1.775344500085339,num_4,0.5,0.7,0.4,0.7,15.2822,26.74385,return,4.192700200015679,,,,,,,,,,,,,,,,,915,20,female,left_right_width,2024-10-23_11h41.55.247,exp1,2023.1.0,59.89390395343217,
,,,,,,,,,,,,,,,,3,9.1,10,10.9,0,0,0.9,0.35,0.55,2.35,10,initial,36.05,328,361,393,0,0,9,9,9,0,0,,,,,,,0,0,0,0,0,6,6,27,,,,,,,,,,,,num_3,2.689490200020373,num_3,0.35,0.7,0.35,0.8,13.37193,30.5644,return,4.669388400157914,,,,,,,,,,,,,,,,,915,20,female,left_right_width,2024-10-23_11h41.55.247,exp1,2023.1.0,59.89390395343217,
,,,,,,,,,,,,,,,,5,8.2,9.1,10,10.9,11.8,0.9,0.35,0.55,4.15,10,initial,36.05,296,328,361,393,425,9,9,9,9,9,,,,,,,0,0,0,0,0,7,7,22,,,,,,,,,,,,num_5,1.362104100175202,num_5,0.35,1.2,0.39999999999999997,0.85,15.2822,32.47468,return,5.014428700087592,,,,,,,,,,,,,,,,,915,20,female,left_right_width,2024-10-23_11h41.55.247,exp1,2023.1.0,59.89390395343217,
,,,,,,,,,,,,,,,,5,8.2,9.1,10,10.9,11.8,0.9,0.35,0.55,4.15,10,initial,36.05,296,328,361,393,425,9,9,9,9,9,,,,,,,0,0,0,0,0,8,8,20,,,,,,,,,,,,num_5,1.653893900103867,num_5,0.55,1.3,0.45,0.8,17.19248,30.5644,return,5.2755213000345975,,,,,,,,,,,,,,,,,915,20,female,left_right_width,2024-10-23_11h41.55.247,exp1,2023.1.0,59.89390395343217,
,,,,,,,,,,,,,,,,3,9.1,10,10.9,0,0,0.9,0.35,0.55,2.35,10,initial,36.05,328,361,393,0,0,9,9,9,0,0,,,,,,,0,0,0,0,0,9,9,4,,,,,,,,,,,,num_3,1.682357600191608,num_3,0.35,0.8,0.44999999999999996,0.85,17.19248,32.47468,return,2.7493840001989156,,,,,,,,,,,,,,,,,915,20,female,left_right_width,2024-10-23_11h41.55.247,exp1,2023.1.0,59.89390395343217,
,,,,,,,,,,,,,,,,5,8.2,9.1,10,10.9,11.8,0.9,0.35,0.55,4.15,10,initial,36.05,296,328,361,393,425,9,9,9,9,9,,,,,,,0,0,0,0,0,10,10,52,,,,,,,,,,,,num_5,1.2007931000553071,num_5,0.5,1.3,0.55,0.9,21.01303,34.38495,return,3.7541261001024395,,,,,,,,,,,,,,,,,915,20,female,left_right_width,2024-10-23_11h41.55.247,exp1,2023.1.0,59.89390395343217,
,,,,,,,,,,,,,,,,5,8.2,9.1,10,10.9,11.8,0.9,0.35,0.55,4.15,10,initial,36.05,296,328,361,393,425,9,9,9,9,9,,,,,,,0,0,0,0,0,11,11,24,,,,,,,,,,,,num_5,1.1387231000699103,num_5,0.45,1.0,0.5,0.85,19.10275,32.47468,return,2.576480600051582,,,,,,,,,,,,,,,,,915,20,female,left_right_width,2024-10-23_11h41.55.247,exp1,2023.1.0,59.89390395343217,
,,,,,,,,,,,,,,,,5,8.2,9.1,10,10.9,11.8,0.9,0.35,0.55,4.15,10,initial,36.05,296,328,361,393,425,9,9,9,9,9,,,,,,,0,0,0,0,0,12,12,45,,,,,,,,,,,,num_4,1.2328255001921207,num_4,0.5,0.7,0.4,0.8,15.2822,30.5644,return,4.4301368000451475,,,,,,,,,,,,,,,,,915,20,female,left_right_width,2024-10-23_11h41.55.247,exp1,2023.1.0,59.89390395343217,
,,,,,,,,,,,,,,,,4,8.65,9.55,10.45,11.35,0,0.9,0.35,0.55,3.25,10,initial,36.05,312,344,377,409,0,9,9,9,9,0,,,,,,,0,0,0,0,0,13,13,39,,,,,,,,,,,,num_4,1.3424735001754016,num_4,0.2,0.6,0.5499999999999999,0.7,21.01303,26.74385,return,4.466216000029817,,,,,,,,,,,,,,,,,915,20,female,left_right_width,2024-10-23_11h41.55.247,exp1,2023.1.0,59.89390395343217,
,,,,,,,,,,,,,,,,5,8.2,9.1,10,10.9,11.8,0.9,0.35,0.55,4.15,10,initial,36.05,296,328,361,393,425,9,9,9,9,9,,,,,,,0,0,0,0,0,14,14,50,,,,,,,,,,,,num_4,1.0894670002162457,num_4,0.5,0.6,0.5,0.7,19.10275,26.74385,return,3.1697578001767397,,,,,,,,,,,,,,,,,915,20,female,left_right_width,2024-10-23_11h41.55.247,exp1,2023.1.0,59.89390395343217,
,,,,,,,,,,,,,,,,5,8.2,9.1,10,10.9,11.8,0.9,0.35,0.55,4.15,10,initial,36.05,296,328,361,393,425,9,9,9,9,9,,,,,,,0,0,0,0,0,15,15,47,,,,,,,,,,,,num_5,1.0201001001987606,num_5,0.35,0.7,0.39999999999999997,0.75,15.2822,28.65413,return,3.5383619000203907,,,,,,,,,,,,,,,,,915,20,female,left_right_width,2024-10-23_11h41.55.247,exp1,2023.1.0,59.89390395343217,
,,,,,,,,,,,,,,,,3,9.1,10,10.9,0,0,0.9,0.35,0.55,2.35,10,initial,36.05,328,361,393,0,0,9,9,9,0,0,,,,,,,0,0,0,0,0,16,16,6,,,,,,,,,,,,num_3,1.8532708000857383,num_3,0.4,0.8,0.45,0.9,17.19248,34.38495,return,3.529859800124541,,,,,,,,,,,,,,,,,915,20,female,left_right_width,2024-10-23_11h41.55.247,exp1,2023.1.0,59.89390395343217,
,,,,,,,,,,,,,,,,5,8.2,9.1,10,10.9,11.8,0.9,0.35,0.55,4.15,10,initial,36.05,296,328,361,393,425,9,9,9,9,9,,,,,,,0,0,0,0,0,17,17,53,,,,,,,,,,,,num_5,1.2924669000785798,num_5,0.5,1.0,0.5,1.0,19.10275,38.2055,return,0.8680042002815753,,,,,,,,,,,,,,,,,915,20,female,left_right_width,2024-10-23_11h41.55.247,exp1,2023.1.0,59.89390395343217,
,,,,,,,,,,,,,,,,4,8.65,9.55,10.45,11.35,0,0.9,0.35,0.55,3.25,10,initial,36.05,312,344,377,409,0,9,9,9,9,0,,,,,,,0,0,0,0,0,18,18,36,,,,,,,,,,,,num_4,1.2437378000468016,num_4,0.45,0.8,0.5,0.9,19.10275,34.38495,return,4.017690500011668,,,,,,,,,,,,,,,,,915,20,female,left_right_width,2024-10-23_11h41.55.247,exp1,2023.1.0,59.89390395343217,
,,,,,,,,,,,,,,,,5,8.2,9.1,10,10.9,11.8,0.9,0.35,0.55,4.15,10,initial,36.05,296,328,361,393,425,9,9,9,9,9,,,,,,,0,0,0,0,0,19,19,51,,,,,,,,,,,,num_5,1.1897983001545072,num_5,0.45,0.8,0.5,0.8,19.10275,30.5644,return,4.674157300032675,,,,,,,,,,,,,,,,,915,20,female,left_right_width,2024-10-23_11h41.55.247,exp1,2023.1.0,59.89390395343217,
,,,,,,,,,,,,,,,,4,8.65,9.55,10.45,11.35,0,0.9,0.35,0.55,3.25,10,initial,36.05,312,344,377,409,0,9,9,9,9,0,,,,,,,0,0,0,0,0,20,20,40,,,,,,,,,,,,num_4,1.1468154001049697,num_4,0.4,1.1,0.4,0.7,15.2822,26.74385,return,5.398099900223315,,,,,,,,,,,,,,,,,915,20,female,left_right_width,2024-10-23_11h41.55.247,exp1,2023.1.0,59.89390395343217,
,,,,,,,,,,,,,,,,4,8.65,9.55,10.45,11.35,0,0.9,0.35,0.55,3.25,10,initial,36.05,312,344,377,409,0,9,9,9,9,0,,,,,,,0,0,0,0,0,21,21,9,,,,,,,,,,,,num_4,1.9579954999499023,num_4,0.5,1.3,0.35000000000000003,0.7,13.37193,26.74385,return,3.8121750000864267,,,,,,,,,,,,,,,,,915,20,female,left_right_width,2024-10-23_11h41.55.247,exp1,2023.1.0,59.89390395343217,
,,,,,,,,,,,,,,,,3,9.1,10,10.9,0,0,0.9,0.35,0.55,2.35,10,initial,36.05,328,361,393,0,0,9,9,9,0,0,,,,,,,0,0,0,0,0,22,22,8,,,,,,,,,,,,num_3,1.682804100215435,num_3,0.4,0.8,0.4,0.8,15.2822,30.5644,return,1.4143125000409782,,,,,,,,,,,,,,,,,915,20,female,left_right_width,2024-10-23_11h41.55.247,exp1,2023.1.0,59.89390395343217,
,,,,,,,,,,,,,,,,3,9.1,10,10.9,0,0,0.9,0.35,0.55,2.35,10,initial,36.05,328,361,393,0,0,9,9,9,0,0,,,,,,,0,0,0,0,0,23,23,28,,,,,,,,,,,,num_3,1.6557189000304788,num_3,0.25,0.3,0.3,0.7,11.46165,26.74385,return,10.74056400009431,,,,,,,,,,,,,,,,,915,20,female,left_right_width,2024-10-23_11h41.55.247,exp1,2023.1.0,59.89390395343217,
,,,,,,,,,,,,,,,,3,9.1,10,10.9,0,0,0.9,0.35,0.55,2.35,10,initial,36.05,328,361,393,0,0,9,9,9,0,0,,,,,,,0,0,0,0,0,24,24,1,,,,,,,,,,,,num_2,1.327797400066629,num_2,0.4,0.6,0.6000000000000001,0.9,22.9233,34.38495,return,6.692775400122628,,,,,,,,,,,,,,,,,915,20,female,left_right_width,2024-10-23_11h41.55.247,exp1,2023.1.0,59.89390395343217,
,,,,,,,,,,,,,,,,4,8.65,9.55,10.45,11.35,0,0.9,0.35,0.55,3.25,10,initial,36.05,312,344,377,409,0,9,9,9,9,0,,,,,,,0,0,0,0,0,25,25,10,,,,,,,,,,,,num_4,1.3931624002289027,num_4,0.5,1.0,0.35000000000000003,0.6,13.37193,22.9233,return,4.740957400295883,,,,,,,,,,,,,,,,,915,20,female,left_right_width,2024-10-23_11h41.55.247,exp1,2023.1.0,59.89390395343217,
,,,,,,,,,,,,,,,,5,8.2,9.1,10,10.9,11.8,0.9,0.35,0.55,4.15,10,initial,36.05,296,328,361,393,425,9,9,9,9,9,,,,,,,0,0,0,0,0,26,26,25,,,,,,,,,,,,num_5,1.230732300085947,num_5,0.5,1.2,0.45,0.75,17.19248,28.65413,return,3.928410300053656,,,,,,,,,,,,,,,,,915,20,female,left_right_width,2024-10-23_11h41.55.247,exp1,2023.1.0,59.89390395343217,
,,,,,,,,,,,,,,,,3,9.1,10,10.9,0,0,0.9,0.35,0.55,2.35,10,initial,36.05,328,361,393,0,0,9,9,9,0,0,,,,,,,0,0,0,0,0,27,27,3,,,,,,,,,,,,num_3,1.3247552001848817,num_3,0.25,0.6,0.39999999999999997,0.65,15.2822,24.83358,return,3.6977536999620497,,,,,,,,,,,,,,,,,915,20,female,left_right_width,2024-10-23_11h41.55.247,exp1,2023.1.0,59.89390395343217,
,,,,,,,,,,,,,,,,5,8.2,9.1,10,10.9,11.8,0.9,0.35,0.55,4.15,10,initial,36.05,296,328,361,393,425,9,9,9,9,9,,,,,,,0,0,0,0,0,28,28,26,,,,,,,,,,,,num_5,0.9391071000136435,num_5,0.25,0.9,0.5499999999999999,0.85,21.01303,32.47468,return,4.6277668999973685,,,,,,,,,,,,,,,,,915,20,female,left_right_width,2024-10-23_11h41.55.247,exp1,2023.1.0,59.89390395343217,
,,,,,,,,,,,,,,,,4,8.65,9.55,10.45,11.35,0,0.9,0.35,0.55,3.25,10,initial,36.05,312,344,377,409,0,9,9,9,9,0,,,,,,,0,0,0,0,0,29,29,43,,,,,,,,,,,,num_4,1.0859279001597315,num_4,0.35,0.7,0.49999999999999994,0.7,19.10275,26.74385,return,2.6842795002739877,,,,,,,,,,,,,,,,,915,20,female,left_right_width,2024-10-23_11h41.55.247,exp1,2023.1.0,59.89390395343217,
,,,,,,,,,,,,,,,,5,8.2,9.1,10,10.9,11.8,0.9,0.35,0.55,4.15,10,initial,36.05,296,328,361,393,425,9,9,9,9,9,,,,,,,0,0,0,0,0,30,30,18,,,,,,,,,,,,num_4,1.0633469000458717,num_4,0.2,0.9,0.39999999999999997,0.7,15.2822,26.74385,return,2.888420900097117,,,,,,,,,,,,,,,,,915,20,female,left_right_width,2024-10-23_11h41.55.247,exp1,2023.1.0,59.89390395343217,
,,,,,,,,,,,,,,,,3,9.1,10,10.9,0,0,0.9,0.35,0.55,2.35,10,initial,36.05,328,361,393,0,0,9,9,9,0,0,,,,,,,0,0,0,0,0,31,31,34,,,,,,,,,,,,num_2,1.2220177000854164,num_2,0.4,0.8,0.4,0.7,15.2822,26.74385,return,2.0783039000816643,,,,,,,,,,,,,,,,,915,20,female,left_right_width,2024-10-23_11h41.55.247,exp1,2023.1.0,59.89390395343217,
,,,,,,,,,,,,,,,,5,8.2,9.1,10,10.9,11.8,0.9,0.35,0.55,4.15,10,initial,36.05,296,328,361,393,425,9,9,9,9,9,,,,,,,0,0,0,0,0,32,32,19,,,,,,,,,,,,num_4,1.5264604000840336,num_4,0.55,0.9,0.35000000000000003,0.7,13.37193,26.74385,return,5.221950500272214,,,,,,,,,,,,,,,,,915,20,female,left_right_width,2024-10-23_11h41.55.247,exp1,2023.1.0,59.89390395343217,
,,,,,,,,,,,,,,,,5,8.2,9.1,10,10.9,11.8,0.9,0.35,0.55,4.15,10,initial,36.05,296,328,361,393,425,9,9,9,9,9,,,,,,,0,0,0,0,0,33,33,46,,,,,,,,,,,,num_5,0.8757554001640528,num_5,0.45,1.1,0.35000000000000003,0.8,13.37193,30.5644,return,4.4045378000009805,,,,,,,,,,,,,,,,,915,20,female,left_right_width,2024-10-23_11h41.55.247,exp1,2023.1.0,59.89390395343217,
,,,,,,,,,,,,,,,,5,8.2,9.1,10,10.9,11.8,0.9,0.35,0.55,4.15,10,initial,36.05,296,328,361,393,425,9,9,9,9,9,,,,,,,0,0,0,0,0,34,34,48,,,,,,,,,,,,num_5,0.9807219002395868,num_5,0.25,1.0,0.39999999999999997,0.75,15.2822,28.65413,return,4.762923000147566,,,,,,,,,,,,,,,,,915,20,female,left_right_width,2024-10-23_11h41.55.247,exp1,2023.1.0,59.89390395343217,
,,,,,,,,,,,,,,,,4,8.65,9.55,10.45,11.35,0,0.9,0.35,0.55,3.25,10,initial,36.05,312,344,377,409,0,9,9,9,9,0,,,,,,,0,0,0,0,0,35,35,42,,,,,,,,,,,,num_5,4.727376600261778,num_5,0.5,0.6,0.25000000000000006,0.55,9.55138,21.01303,return,5.056686400203034,,,,,,,,,,,,,,,,,915,20,female,left_right_width,2024-10-23_11h41.55.247,exp1,2023.1.0,59.89390395343217,
,,,,,,,,,,,,,,,,4,8.65,9.55,10.45,11.35,0,0.9,0.35,0.55,3.25,10,initial,36.05,312,344,377,409,0,9,9,9,9,0,,,,,,,0,0,0,0,0,36,36,13,,,,,,,,,,,,num_4,1.16021170001477,num_4,0.35,0.6,0.35,0.6,13.37193,22.9233,return,1.5281673001591116,,,,,,,,,,,,,,,,,915,20,female,left_right_width,2024-10-23_11h41.55.247,exp1,2023.1.0,59.89390395343217,
,,,,,,,,,,,,,,,,5,8.2,9.1,10,10.9,11.8,0.9,0.35,0.55,4.15,10,initial,36.05,296,328,361,393,425,9,9,9,9,9,,,,,,,0,0,0,0,0,37,37,49,,,,,,,,,,,,num_4,1.3045666001271456,num_4,0.2,0.7,0.49999999999999994,0.7,19.10275,26.74385,return,2.892713700188324,,,,,,,,,,,,,,,,,915,20,female,left_right_width,2024-10-23_11h41.55.247,exp1,2023.1.0,59.89390395343217,
,,,,,,,,,,,,,,,,4,8.65,9.55,10.45,11.35,0,0.9,0.35,0.55,3.25,10,initial,36.05,312,344,377,409,0,9,9,9,9,0,,,,,,,0,0,0,0,0,38,38,14,,,,,,,,,,,,num_4,1.1382758000399917,num_4,0.4,0.6,0.4,0.7,15.2822,26.74385,return,6.273168200161308,,,,,,,,,,,,,,,,,915,20,female,left_right_width,2024-10-23_11h41.55.247,exp1,2023.1.0,59.89390395343217,
,,,,,,,,,,,,,,,,4,8.65,9.55,10.45,11.35,0,0.9,0.35,0.55,3.25,10,initial,36.05,312,344,377,409,0,9,9,9,9,0,,,,,,,0,0,0,0,0,39,39,16,,,,,,,,,,,,num_4,1.615908999927342,num_4,0.55,1.3,0.4,0.7,15.2822,26.74385,return,4.618860200280324,,,,,,,,,,,,,,,,,915,20,female,left_right_width,2024-10-23_11h41.55.247,exp1,2023.1.0,59.89390395343217,
,,,,,,,,,,,,,,,,4,8.65,9.55,10.45,11.35,0,0.9,0.35,0.55,3.25,10,initial,36.05,312,344,377,409,0,9,9,9,9,0,,,,,,,0,0,0,0,0,40,40,17,,,,,,,,,,,,num_3,2.7016874002292752,num_3,0.2,1.1,0.44999999999999996,0.85,17.19248,32.47468,return,3.9166840000543743,,,,,,,,,,,,,,,,,915,20,female,left_right_width,2024-10-23_11h41.55.247,exp1,2023.1.0,59.89390395343217,
,,,,,,,,,,,,,,,,3,9.1,10,10.9,0,0,0.9,0.35,0.55,2.35,10,initial,36.05,328,361,393,0,0,9,9,9,0,0,,,,,,,0,0,0,0,0,41,41,0,,,,,,,,,,,,num_6,1.3736162001732737,num_6,0.3,0.5,0.3,0.0,11.46165,0.0,return,13.169298100052401,,,,,,,,,,,,,,,,,915,20,female,left_right_width,2024-10-23_11h41.55.247,exp1,2023.1.0,59.89390395343217,
,,,,,,,,,,,,,,,,3,9.1,10,10.9,0,0,0.9,0.35,0.55,2.35,10,initial,36.05,328,361,393,0,0,9,9,9,0,0,,,,,,,0,0,0,0,0,42,42,2,,,,,,,,,,,,num_3,1.2887696002144367,num_3,0.2,1.3,0.39999999999999997,0.85,15.2822,32.47468,return,5.038284700131044,,,,,,,,,,,,,,,,,915,20,female,left_right_width,2024-10-23_11h41.55.247,exp1,2023.1.0,59.89390395343217,
,,,,,,,,,,,,,,,,4,8.65,9.55,10.45,11.35,0,0.9,0.35,0.55,3.25,10,initial,36.05,312,344,377,409,0,9,9,9,9,0,,,,,,,0,0,0,0,0,43,43,41,,,,,,,,,,,,num_4,1.1752472000662237,num_4,0.35,0.7,0.35,0.7,13.37193,26.74385,return,1.008309000171721,,,,,,,,,,,,,,,,,915,20,female,left_right_width,2024-10-23_11h41.55.247,exp1,2023.1.0,59.89390395343217,
,,,,,,,,,,,,,,,,4,8.65,9.55,10.45,11.35,0,0.9,0.35,0.55,3.25,10,initial,36.05,312,344,377,409,0,9,9,9,9,0,,,,,,,0,0,0,0,0,44,44,37,,,,,,,,,,,,num_4,1.7053332002833486,num_4,0.3,0.5,0.3,0.6,11.46165,22.9233,return,2.8797911000438035,,,,,,,,,,,,,,,,,915,20,female,left_right_width,2024-10-23_11h41.55.247,exp1,2023.1.0,59.89390395343217,
,,,,,,,,,,,,,,,,5,8.2,9.1,10,10.9,11.8,0.9,0.35,0.55,4.15,10,initial,36.05,296,328,361,393,425,9,9,9,9,9,,,,,,,0,0,0,0,0,45,45,23,,,,,,,,,,,,num_5,1.194150400115177,num_5,0.2,0.9,0.39999999999999997,0.85,15.2822,32.47468,return,3.0973123000003397,,,,,,,,,,,,,,,,,915,20,female,left_right_width,2024-10-23_11h41.55.247,exp1,2023.1.0,59.89390395343217,
,,,,,,,,,,,,,,,,3,9.1,10,10.9,0,0,0.9,0.35,0.55,2.35,10,initial,36.05,328,361,393,0,0,9,9,9,0,0,,,,,,,0,0,0,0,0,46,46,29,,,,,,,,,,,,num_3,1.5012082001194358,num_3,0.5,1.1,0.45,1.0,17.19248,38.2055,return,2.7187689000274986,,,,,,,,,,,,,,,,,915,20,female,left_right_width,2024-10-23_11h41.55.247,exp1,2023.1.0,59.89390395343217,
,,,,,,,,,,,,,,,,3,9.1,10,10.9,0,0,0.9,0.35,0.55,2.35,10,initial,36.05,328,361,393,0,0,9,9,9,0,0,,,,,,,0,0,0,0,0,47,47,32,,,,,,,,,,,,num_2,1.0090365000069141,num_2,0.55,1.2,0.35000000000000003,0.9,13.37193,34.38495,return,4.08243630011566,,,,,,,,,,,,,,,,,915,20,female,left_right_width,2024-10-23_11h41.55.247,exp1,2023.1.0,59.89390395343217,
,,,,,,,,,,,,,,,,3,9.1,10,10.9,0,0,0.9,0.35,0.55,2.35,10,initial,36.05,328,361,393,0,0,9,9,9,0,0,,,,,,,0,0,0,0,0,48,48,35,,,,,,,,,,,,num_3,1.1909962000790983,num_3,0.55,0.7,0.30000000000000004,0.65,11.46165,24.83358,return,3.393297600094229,,,,,,,,,,,,,,,,,915,20,female,left_right_width,2024-10-23_11h41.55.247,exp1,2023.1.0,59.89390395343217,
,,,,,,,,,,,,,,,,4,8.65,9.55,10.45,11.35,0,0.9,0.35,0.55,3.25,10,initial,36.05,312,344,377,409,0,9,9,9,9,0,,,,,,,0,0,0,0,0,49,49,12,,,,,,,,,,,,num_5,1.1275796003174037,num_5,0.5,1.2,0.4,0.75,15.2822,28.65413,return,6.724767700070515,,,,,,,,,,,,,,,,,915,20,female,left_right_width,2024-10-23_11h41.55.247,exp1,2023.1.0,59.89390395343217,
,,,,,,,,,,,,,,,,3,9.1,10,10.9,0,0,0.9,0.35,0.55,2.35,10,initial,36.05,328,361,393,0,0,9,9,9,0,0,,,,,,,0,0,0,0,0,50,50,5,,,,,,,,,,,,num_3,1.3481304002925754,num_3,0.55,0.9,0.6000000000000001,0.9,22.9233,34.38495,return,3.7561727000866085,,,,,,,,,,,,,,,,,915,20,female,left_right_width,2024-10-23_11h41.55.247,exp1,2023.1.0,59.89390395343217,
,,,,,,,,,,,,,,,,4,8.65,9.55,10.45,11.35,0,0.9,0.35,0.55,3.25,10,initial,36.05,312,344,377,409,0,9,9,9,9,0,,,,,,,0,0,0,0,0,51,51,38,,,,,,,,,,,,num_4,0.975281500024721,num_4,0.25,1.2,0.5499999999999999,1.0,21.01303,38.2055,return,6.58331450028345,,,,,,,,,,,,,,,,,915,20,female,left_right_width,2024-10-23_11h41.55.247,exp1,2023.1.0,59.89390395343217,
,,,,,,,,,,,,,,,,3,9.1,10,10.9,0,0,0.9,0.35,0.55,2.35,10,initial,36.05,328,361,393,0,0,9,9,9,0,0,,,,,,,0,0,0,0,0,52,52,31,,,,,,,,,,,,num_2,1.242221600143239,num_2,0.25,0.6,0.7000000000000001,1.1,26.74385,42.02605,return,5.831256200093776,,,,,,,,,,,,,,,,,915,20,female,left_right_width,2024-10-23_11h41.55.247,exp1,2023.1.0,59.89390395343217,
,,,,,,,,,,,,,,,,3,9.1,10,10.9,0,0,0.9,0.35,0.55,2.35,10,initial,36.05,328,361,393,0,0,9,9,9,0,0,,,,,,,0,0,0,0,0,53,53,33,,,,,,,,,,,,num_3,1.2307997001335025,num_3,0.35,0.4,0.6,0.8,22.9233,30.5644,return,5.560891000321135,,,,,,,,,,,,,,,,,915,20,female,left_right_width,2024-10-23_11h41.55.247,exp1,2023.1.0,59.89390395343217,
,,,,,,,,,,,,,,,,,,,,,,,,,,,,,,,,,,,,,,,,,,,,,0,0,0,0,,,,,,,,,,,,,,,,,,,,,,,,,,,,,1001.7071810998023,1001.7071810998023,1001.7071810998023,,,,,,,,,,,,915,20,female,left_right_width,2024-10-23_11h41.55.247,exp1,2023.1.0,59.89390395343217,
,,,,,,,,,,,,,,,,4,9.25,9.75,10.25,10.75,0,0.5,0.1,0.4,1.9000000000000001,10,initial,36.05,333,351,370,388,0,9,9,9,9,0,,,,,,,1,0,1,0,0,0,0,40,,,,,,,,,,,,num_3,1.2068187000695616,num_3,0.45,1.2,0.30000000000000004,0.55,11.46165,21.01303,return,4.581050400156528,,,,,,,,,,,,,,,,,915,20,female,left_right_width,2024-10-23_11h41.55.247,exp1,2023.1.0,59.89390395343217,
,,,,,,,,,,,,,,,,3,9.5,10,10.5,0,0,0.5,0.1,0.4,1.4000000000000001,10,initial,36.05,342,361,379,0,0,9,9,9,0,0,,,,,,,1,0,1,0,0,1,1,33,,,,,,,,,,,,num_3,1.0289052999578416,num_3,0.25,0.8,0.25,0.35,9.55138,13.37193,return,2.8031120002269745,,,,,,,,,,,,,,,,,915,20,female,left_right_width,2024-10-23_11h41.55.247,exp1,2023.1.0,59.89390395343217,
,,,,,,,,,,,,,,,,3,9.5,10,10.5,0,0,0.5,0.1,0.4,1.4000000000000001,10,initial,36.05,342,361,379,0,0,9,9,9,0,0,,,,,,,1,0,1,0,0,2,2,2,,,,,,,,,,,,num_3,1.0584756000898778,num_3,0.4,1,0.20000000000000007,0.4,7.6411,15.2822,return,4.277836499968544,,,,,,,,,,,,,,,,,915,20,female,left_right_width,2024-10-23_11h41.55.247,exp1,2023.1.0,59.89390395343217,
,,,,,,,,,,,,,,,,3,9.5,10,10.5,0,0,0.5,0.1,0.4,1.4000000000000001,10,initial,36.05,342,361,379,0,0,9,9,9,0,0,,,,,,,1,0,1,0,0,3,3,34,,,,,,,,,,,,num_4,1.50816970015876,num_4,0.3,0.5,0.15000000000000002,0.3,5.73083,11.46165,return,5.860525400144979,,,,,,,,,,,,,,,,,915,20,female,left_right_width,2024-10-23_11h41.55.247,exp1,2023.1.0,59.89390395343217,
,,,,,,,,,,,,,,,,5,9,9.5,10,10.5,11,0.5,0.1,0.4,2.4,10,initial,36.05,324,342,361,379,397,9,9,9,9,9,,,,,,,1,0,1,0,0,4,4,26,,,,,,,,,,,,num_5,0.9903798000887036,num_5,0.25,0.9,0.25,0.45,9.55138,17.19248,return,4.486174000194296,,,,,,,,,,,,,,,,,915,20,female,left_right_width,2024-10-23_11h41.55.247,exp1,2023.1.0,59.89390395343217,
,,,,,,,,,,,,,,,,3,9.5,10,10.5,0,0,0.5,0.1,0.4,1.4000000000000001,10,initial,36.05,342,361,379,0,0,9,9,9,0,0,,,,,,,1,0,1,0,0,5,5,32,,,,,,,,,,,,num_3,1.3894129002001137,num_3,0.45,0.8,0.20000000000000007,0.4,7.6411,15.2822,return,4.880246100248769,,,,,,,,,,,,,,,,,915,20,female,left_right_width,2024-10-23_11h41.55.247,exp1,2023.1.0,59.89390395343217,
,,,,,,,,,,,,,,,,3,9.5,10,10.5,0,0,0.5,0.1,0.4,1.4000000000000001,10,initial,36.05,342,361,379,0,0,9,9,9,0,0,,,,,,,1,0,1,0,0,6,6,30,,,,,,,,,,,,num_3,1.3966384001541883,num_3,0.45,0.8,0.15000000000000008,0.4,5.73083,15.2822,return,3.544452300062403,,,,,,,,,,,,,,,,,915,20,female,left_right_width,2024-10-23_11h41.55.247,exp1,2023.1.0,59.89390395343217,
,,,,,,,,,,,,,,,,4,9.25,9.75,10.25,10.75,0,0.5,0.1,0.4,1.9000000000000001,10,initial,36.05,333,351,370,388,0,9,9,9,9,0,,,,,,,1,0,1,0,0,7,7,16,,,,,,,,,,,,num_4,1.0149312000721693,num_4,0.4,0.7,0.25000000000000006,0.4,9.55138,15.2822,return,7.211086000083014,,,,,,,,,,,,,,,,,915,20,female,left_right_width,2024-10-23_11h41.55.247,exp1,2023.1.0,59.89390395343217,
,,,,,,,,,,,,,,,,3,9.5,10,10.5,0,0,0.5,0.1,0.4,1.4000000000000001,10,initial,36.05,342,361,379,0,0,9,9,9,0,0,,,,,,,1,0,1,0,0,8,8,8,,,,,,,,,,,,num_4,2.1064335003029555,num_4,0.3,0.3,0.15000000000000002,0.4,5.73083,15.2822,return,4.004445300204679,,,,,,,,,,,,,,,,,915,20,female,left_right_width,2024-10-23_11h41.55.247,exp1,2023.1.0,59.89390395343217,
,,,,,,,,,,,,,,,,3,9.5,10,10.5,0,0,0.5,0.1,0.4,1.4000000000000001,10,initial,36.05,342,361,379,0,0,9,9,9,0,0,,,,,,,1,0,1,0,0,9,9,5,,,,,,,,,,,,num_3,1.4100668001919985,num_3,0.25,1.3,0.35,0.55,13.37193,21.01303,return,4.942924700211734,,,,,,,,,,,,,,,,,915,20,female,left_right_width,2024-10-23_11h41.55.247,exp1,2023.1.0,59.89390395343217,
,,,,,,,,,,,,,,,,4,9.25,9.75,10.25,10.75,0,0.5,0.1,0.4,1.9000000000000001,10,initial,36.05,333,351,370,388,0,9,9,9,9,0,,,,,,,1,0,1,0,0,10,10,39,,,,,,,,,,,,num_4,1.094179900130257,num_4,0.3,0.9,0.25,0.5,9.55138,19.10275,return,4.504814200103283,,,,,,,,,,,,,,,,,915,20,female,left_right_width,2024-10-23_11h41.55.247,exp1,2023.1.0,59.89390395343217,
,,,,,,,,,,,,,,,,3,9.5,10,10.5,0,0,0.5,0.1,0.4,1.4000000000000001,10,initial,36.05,342,361,379,0,0,9,9,9,0,0,,,,,,,1,0,1,0,0,11,11,28,,,,,,,,,,,,num_3,1.329253900097683,num_3,0.55,1.2,0.35000000000000003,0.65,13.37193,24.83358,return,4.268232200061902,,,,,,,,,,,,,,,,,915,20,female,left_right_width,2024-10-23_11h41.55.247,exp1,2023.1.0,59.89390395343217,
,,,,,,,,,,,,,,,,5,9,9.5,10,10.5,11,0.5,0.1,0.4,2.4,10,initial,36.05,324,342,361,379,397,9,9,9,9,9,,,,,,,1,0,1,0,0,12,12,53,,,,,,,,,,,,num_5,1.3062678999267519,num_5,0.4,0.8,0.30000000000000004,0.45,11.46165,17.19248,return,7.636210900032893,,,,,,,,,,,,,,,,,915,20,female,left_right_width,2024-10-23_11h41.55.247,exp1,2023.1.0,59.89390395343217,
,,,,,,,,,,,,,,,,3,9.5,10,10.5,0,0,0.5,0.1,0.4,1.4000000000000001,10,initial,36.05,342,361,379,0,0,9,9,9,0,0,,,,,,,1,0,1,0,0,13,13,1,,,,,,,,,,,,num_2,1.5114734000526369,num_2,0.5,1.4,0.35000000000000003,0.5,13.37193,19.10275,return,5.909801200032234,,,,,,,,,,,,,,,,,915,20,female,left_right_width,2024-10-23_11h41.55.247,exp1,2023.1.0,59.89390395343217,
,,,,,,,,,,,,,,,,4,9.25,9.75,10.25,10.75,0,0.5,0.1,0.4,1.9000000000000001,10,initial,36.05,333,351,370,388,0,9,9,9,9,0,,,,,,,1,0,1,0,0,14,14,37,,,,,,,,,,,,num_4,0.9801080001052469,num_4,0.25,1.1,0.25,0.4,9.55138,15.2822,return,4.134525400120765,,,,,,,,,,,,,,,,,915,20,female,left_right_width,2024-10-23_11h41.55.247,exp1,2023.1.0,59.89390395343217,
,,,,,,,,,,,,,,,,5,9,9.5,10,10.5,11,0.5,0.1,0.4,2.4,10,initial,36.05,324,342,361,379,397,9,9,9,9,9,,,,,,,1,0,1,0,0,15,15,48,,,,,,,,,,,,num_2,1.3576910002157092,num_2,0.2,1.2,0.2,1.1,7.6411,42.02605,return,8.481761400122195,,,,,,,,,,,,,,,,,915,20,female,left_right_width,2024-10-23_11h41.55.247,exp1,2023.1.0,59.89390395343217,
,,,,,,,,,,,,,,,,3,9.5,10,10.5,0,0,0.5,0.1,0.4,1.4000000000000001,10,initial,36.05,342,361,379,0,0,9,9,9,0,0,,,,,,,1,0,1,0,0,16,16,31,,,,,,,,,,,,num_3,1.5517539002466947,num_3,0.45,0.6,0.15000000000000008,0.5,5.73083,19.10275,return,3.5522961001843214,,,,,,,,,,,,,,,,,915,20,female,left_right_width,2024-10-23_11h41.55.247,exp1,2023.1.0,59.89390395343217,
,,,,,,,,,,,,,,,,3,9.5,10,10.5,0,0,0.5,0.1,0.4,1.4000000000000001,10,initial,36.05,342,361,379,0,0,9,9,9,0,0,,,,,,,1,0,1,0,0,17,17,35,,,,,,,,,,,,num_3,1.4996574001852423,num_3,0.45,1.3,0.25000000000000006,0.6,9.55138,22.9233,return,5.404584800126031,,,,,,,,,,,,,,,,,915,20,female,left_right_width,2024-10-23_11h41.55.247,exp1,2023.1.0,59.89390395343217,
,,,,,,,,,,,,,,,,4,9.25,9.75,10.25,10.75,0,0.5,0.1,0.4,1.9000000000000001,10,initial,36.05,333,351,370,388,0,9,9,9,9,0,,,,,,,1,0,1,0,0,18,18,38,,,,,,,,,,,,num_4,1.2841399000026286,num_4,0.3,1.1,0.3,0.5,11.46165,19.10275,return,2.1244084001518786,,,,,,,,,,,,,,,,,915,20,female,left_right_width,2024-10-23_11h41.55.247,exp1,2023.1.0,59.89390395343217,
,,,,,,,,,,,,,,,,4,9.25,9.75,10.25,10.75,0,0.5,0.1,0.4,1.9000000000000001,10,initial,36.05,333,351,370,388,0,9,9,9,9,0,,,,,,,1,0,1,0,0,19,19,11,,,,,,,,,,,,num_4,1.4351492002606392,num_4,0.25,1.0,0.25,0.4,9.55138,15.2822,return,5.115909400163218,,,,,,,,,,,,,,,,,915,20,female,left_right_width,2024-10-23_11h41.55.247,exp1,2023.1.0,59.89390395343217,
,,,,,,,,,,,,,,,,5,9,9.5,10,10.5,11,0.5,0.1,0.4,2.4,10,initial,36.05,324,342,361,379,397,9,9,9,9,9,,,,,,,1,0,1,0,0,20,20,24,,,,,,,,,,,,num_5,0.9673753001261503,num_5,0.45,0.7,0.25000000000000006,0.5,9.55138,19.10275,return,3.965757900150493,,,,,,,,,,,,,,,,,915,20,female,left_right_width,2024-10-23_11h41.55.247,exp1,2023.1.0,59.89390395343217,
,,,,,,,,,,,,,,,,4,9.25,9.75,10.25,10.75,0,0.5,0.1,0.4,1.9000000000000001,10,initial,36.05,333,351,370,388,0,9,9,9,9,0,,,,,,,1,0,1,0,0,21,21,10,,,,,,,,,,,,num_4,1.0123978001065552,num_4,0.4,1.2,0.25000000000000006,0.5,9.55138,19.10275,return,3.801757500041276,,,,,,,,,,,,,,,,,915,20,female,left_right_width,2024-10-23_11h41.55.247,exp1,2023.1.0,59.89390395343217,
,,,,,,,,,,,,,,,,5,9,9.5,10,10.5,11,0.5,0.1,0.4,2.4,10,initial,36.05,324,342,361,379,397,9,9,9,9,9,,,,,,,1,0,1,0,0,22,22,22,,,,,,,,,,,,num_4,1.4332223001401871,num_4,0.25,1.2,0.3,0.5,11.46165,19.10275,return,3.5042207001242787,,,,,,,,,,,,,,,,,915,20,female,left_right_width,2024-10-23_11h41.55.247,exp1,2023.1.0,59.89390395343217,
,,,,,,,,,,,,,,,,5,9,9.5,10,10.5,11,0.5,0.1,0.4,2.4,10,initial,36.05,324,342,361,379,397,9,9,9,9,9,,,,,,,1,0,1,0,0,23,23,21,,,,,,,,,,,,num_5,1.1251824002247304,num_5,0.3,1.3,0.3,0.55,11.46165,21.01303,return,5.606199100147933,,,,,,,,,,,,,,,,,915,20,female,left_right_width,2024-10-23_11h41.55.247,exp1,2023.1.0,59.89390395343217,
,,,,,,,,,,,,,,,,4,9.25,9.75,10.25,10.75,0,0.5,0.1,0.4,1.9000000000000001,10,initial,36.05,333,351,370,388,0,9,9,9,9,0,,,,,,,1,0,1,0,0,24,24,17,,,,,,,,,,,,num_5,1.1297265002503991,num_5,0.55,1.0,0.25000000000000006,0.4,9.55138,15.2822,return,5.143813700182363,,,,,,,,,,,,,,,,,915,20,female,left_right_width,2024-10-23_11h41.55.247,exp1,2023.1.0,59.89390395343217,
,,,,,,,,,,,,,,,,4,9.25,9.75,10.25,10.75,0,0.5,0.1,0.4,1.9000000000000001,10,initial,36.05,333,351,370,388,0,9,9,9,9,0,,,,,,,1,0,1,0,0,25,25,12,,,,,,,,,,,,num_4,1.0768938001710922,num_4,0.5,0.8,0.20000000000000007,0.3,7.6411,11.46165,return,4.056062800111249,,,,,,,,,,,,,,,,,915,20,female,left_right_width,2024-10-23_11h41.55.247,exp1,2023.1.0,59.89390395343217,
,,,,,,,,,,,,,,,,3,9.5,10,10.5,0,0,0.5,0.1,0.4,1.4000000000000001,10,initial,36.05,342,361,379,0,0,9,9,9,0,0,,,,,,,1,0,1,0,0,26,26,4,,,,,,,,,,,,num_3,1.219632799969986,num_3,0.3,0.5,0.15000000000000002,0.35,5.73083,13.37193,return,2.2849193001165986,,,,,,,,,,,,,,,,,915,20,female,left_right_width,2024-10-23_11h41.55.247,exp1,2023.1.0,59.89390395343217,
,,,,,,,,,,,,,,,,3,9.5,10,10.5,0,0,0.5,0.1,0.4,1.4000000000000001,10,initial,36.05,342,361,379,0,0,9,9,9,0,0,,,,,,,1,0,1,0,0,27,27,27,,,,,,,,,,,,num_2,1.7727790002245456,num_2,0.4,1.0,0.20000000000000007,0.6,7.6411,22.9233,return,4.064301300095394,,,,,,,,,,,,,,,,,915,20,female,left_right_width,2024-10-23_11h41.55.247,exp1,2023.1.0,59.89390395343217,
,,,,,,,,,,,,,,,,5,9,9.5,10,10.5,11,0.5,0.1,0.4,2.4,10,initial,36.05,324,342,361,379,397,9,9,9,9,9,,,,,,,1,0,1,0,0,28,28,45,,,,,,,,,,,,num_4,1.0434590000659227,num_4,0.25,0.3,0.25,0.5,9.55138,19.10275,return,2.2629121001809835,,,,,,,,,,,,,,,,,915,20,female,left_right_width,2024-10-23_11h41.55.247,exp1,2023.1.0,59.89390395343217,
,,,,,,,,,,,,,,,,5,9,9.5,10,10.5,11,0.5,0.1,0.4,2.4,10,initial,36.05,324,342,361,379,397,9,9,9,9,9,,,,,,,1,0,1,0,0,29,29,51,,,,,,,,,,,,num_5,1.2978177000768483,num_5,0.25,0.3,0.15000000000000002,0.45,5.73083,17.19248,return,3.24394499999471,,,,,,,,,,,,,,,,,915,20,female,left_right_width,2024-10-23_11h41.55.247,exp1,2023.1.0,59.89390395343217,
,,,,,,,,,,,,,,,,4,9.25,9.75,10.25,10.75,0,0.5,0.1,0.4,1.9000000000000001,10,initial,36.05,333,351,370,388,0,9,9,9,9,0,,,,,,,1,0,1,0,0,30,30,41,,,,,,,,,,,,num_4,1.0038916002959013,num_4,0.5,0.8,0.35000000000000003,0.5,13.37193,19.10275,return,4.1475572001654655,,,,,,,,,,,,,,,,,915,20,female,left_right_width,2024-10-23_11h41.55.247,exp1,2023.1.0,59.89390395343217,
,,,,,,,,,,,,,,,,5,9,9.5,10,10.5,11,0.5,0.1,0.4,2.4,10,initial,36.05,324,342,361,379,397,9,9,9,9,9,,,,,,,1,0,1,0,0,31,31,19,,,,,,,,,,,,num_4,1.7760822002310306,num_4,0.25,1.0,0.3,0.5,11.46165,19.10275,return,2.785264099948108,,,,,,,,,,,,,,,,,915,20,female,left_right_width,2024-10-23_11h41.55.247,exp1,2023.1.0,59.89390395343217,
,,,,,,,,,,,,,,,,5,9,9.5,10,10.5,11,0.5,0.1,0.4,2.4,10,initial,36.05,324,342,361,379,397,9,9,9,9,9,,,,,,,1,0,1,0,0,32,32,50,,,,,,,,,,,,num_4,1.7619058000855148,num_4,0.45,0.6,0.35000000000000003,0.5,13.37193,19.10275,return,3.445051500108093,,,,,,,,,,,,,,,,,915,20,female,left_right_width,2024-10-23_11h41.55.247,exp1,2023.1.0,59.89390395343217,
,,,,,,,,,,,,,,,,3,9.5,10,10.5,0,0,0.5,0.1,0.4,1.4000000000000001,10,initial,36.05,342,361,379,0,0,9,9,9,0,0,,,,,,,1,0,1,0,0,33,33,0,,,,,,,,,,,,num_3,1.2939481001812965,num_3,0.4,1.3,0.25000000000000006,0.55,9.55138,21.01303,return,4.598382400115952,,,,,,,,,,,,,,,,,915,20,female,left_right_width,2024-10-23_11h41.55.247,exp1,2023.1.0,59.89390395343217,
,,,,,,,,,,,,,,,,4,9.25,9.75,10.25,10.75,0,0.5,0.1,0.4,1.9000000000000001,10,initial,36.05,333,351,370,388,0,9,9,9,9,0,,,,,,,1,0,1,0,0,34,34,44,,,,,,,,,,,,num_4,1.2993644999805838,num_4,0.25,0.8,0.39999999999999997,0.6,15.2822,22.9233,return,3.7068477000575513,,,,,,,,,,,,,,,,,915,20,female,left_right_width,2024-10-23_11h41.55.247,exp1,2023.1.0,59.89390395343217,
,,,,,,,,,,,,,,,,5,9,9.5,10,10.5,11,0.5,0.1,0.4,2.4,10,initial,36.05,324,342,361,379,397,9,9,9,9,9,,,,,,,1,0,1,0,0,35,35,47,,,,,,,,,,,,num_5,1.0531082001980394,num_5,0.25,1.2,0.39999999999999997,0.6,15.2822,22.9233,return,5.228414800250903,,,,,,,,,,,,,,,,,915,20,female,left_right_width,2024-10-23_11h41.55.247,exp1,2023.1.0,59.89390395343217,
,,,,,,,,,,,,,,,,4,9.25,9.75,10.25,10.75,0,0.5,0.1,0.4,1.9000000000000001,10,initial,36.05,333,351,370,388,0,9,9,9,9,0,,,,,,,1,0,1,0,0,36,36,15,,,,,,,,,,,,num_4,1.1131659999955446,num_4,0.3,1.3,0.39999999999999997,0.6,15.2822,22.9233,return,2.891576500143856,,,,,,,,,,,,,,,,,915,20,female,left_right_width,2024-10-23_11h41.55.247,exp1,2023.1.0,59.89390395343217,
,,,,,,,,,,,,,,,,3,9.5,10,10.5,0,0,0.5,0.1,0.4,1.4000000000000001,10,initial,36.05,342,361,379,0,0,9,9,9,0,0,,,,,,,1,0,1,0,0,37,37,3,,,,,,,,,,,,num_3,1.9368947001639754,num_3,0.2,0.7,0.39999999999999997,0.7,15.2822,26.74385,return,3.4525444000028074,,,,,,,,,,,,,,,,,915,20,female,left_right_width,2024-10-23_11h41.55.247,exp1,2023.1.0,59.89390395343217,
,,,,,,,,,,,,,,,,3,9.5,10,10.5,0,0,0.5,0.1,0.4,1.4000000000000001,10,initial,36.05,342,361,379,0,0,9,9,9,0,0,,,,,,,1,0,1,0,0,38,38,29,,,,,,,,,,,,num_3,1.2015051001217216,num_3,0.45,0.8,0.25000000000000006,0.5,9.55138,19.10275,return,4.747122100088745,,,,,,,,,,,,,,,,,915,20,female,left_right_width,2024-10-23_11h41.55.247,exp1,2023.1.0,59.89390395343217,
,,,,,,,,,,,,,,,,5,9,9.5,10,10.5,11,0.5,0.1,0.4,2.4,10,initial,36.05,324,342,361,379,397,9,9,9,9,9,,,,,,,1,0,1,0,0,39,39,23,,,,,,,,,,,,num_5,0.922941000200808,num_5,0.4,0.6,0.4,0.6,15.2822,22.9233,return,0.8973432001657784,,,,,,,,,,,,,,,,,915,20,female,left_right_width,2024-10-23_11h41.55.247,exp1,2023.1.0,59.89390395343217,
,,,,,,,,,,,,,,,,4,9.25,9.75,10.25,10.75,0,0.5,0.1,0.4,1.9000000000000001,10,initial,36.05,333,351,370,388,0,9,9,9,9,0,,,,,,,1,0,1,0,0,40,40,14,,,,,,,,,,,,num_4,1.0766774001531303,num_4,0.4,0.6,0.25000000000000006,0.6,9.55138,22.9233,return,3.1100947000086308,,,,,,,,,,,,,,,,,915,20,female,left_right_width,2024-10-23_11h41.55.247,exp1,2023.1.0,59.89390395343217,
,,,,,,,,,,,,,,,,3,9.5,10,10.5,0,0,0.5,0.1,0.4,1.4000000000000001,10,initial,36.05,342,361,379,0,0,9,9,9,0,0,,,,,,,1,0,1,0,0,41,41,6,,,,,,,,,,,,num_3,1.2993954000994563,num_3,0.4,0.6,0.25000000000000006,0.5,9.55138,19.10275,return,3.709231600165367,,,,,,,,,,,,,,,,,915,20,female,left_right_width,2024-10-23_11h41.55.247,exp1,2023.1.0,59.89390395343217,
,,,,,,,,,,,,,,,,5,9,9.5,10,10.5,11,0.5,0.1,0.4,2.4,10,initial,36.05,324,342,361,379,397,9,9,9,9,9,,,,,,,1,0,1,0,0,42,42,20,,,,,,,,,,,,num_5,1.3476003999821842,num_5,0.3,0.5,0.15000000000000002,0.45,5.73083,17.19248,return,2.5142767000943422,,,,,,,,,,,,,,,,,915,20,female,left_right_width,2024-10-23_11h41.55.247,exp1,2023.1.0,59.89390395343217,
,,,,,,,,,,,,,,,,5,9,9.5,10,10.5,11,0.5,0.1,0.4,2.4,10,initial,36.05,324,342,361,379,397,9,9,9,9,9,,,,,,,1,0,1,0,0,43,43,46,,,,,,,,,,,,num_4,1.1193916001357138,num_4,0.35,0.7,0.3,0.7,11.46165,26.74385,return,1.9336177001241595,,,,,,,,,,,,,,,,,915,20,female,left_right_width,2024-10-23_11h41.55.247,exp1,2023.1.0,59.89390395343217,
,,,,,,,,,,,,,,,,4,9.25,9.75,10.25,10.75,0,0.5,0.1,0.4,1.9000000000000001,10,initial,36.05,333,351,370,388,0,9,9,9,9,0,,,,,,,1,0,1,0,0,44,44,42,,,,,,,,,,,,num_5,1.249247400322929,num_5,0.55,0.6,0.25000000000000006,0.45,9.55138,17.19248,return,4.718732200097293,,,,,,,,,,,,,,,,,915,20,female,left_right_width,2024-10-23_11h41.55.247,exp1,2023.1.0,59.89390395343217,
,,,,,,,,,,,,,,,,4,9.25,9.75,10.25,10.75,0,0.5,0.1,0.4,1.9000000000000001,10,initial,36.05,333,351,370,388,0,9,9,9,9,0,,,,,,,1,0,1,0,0,45,45,36,,,,,,,,,,,,num_4,1.0495118000544608,num_4,0.35,0.4,0.35,0.6,13.37193,22.9233,return,2.7822855000849813,,,,,,,,,,,,,,,,,915,20,female,left_right_width,2024-10-23_11h41.55.247,exp1,2023.1.0,59.89390395343217,
,,,,,,,,,,,,,,,,5,9,9.5,10,10.5,11,0.5,0.1,0.4,2.4,10,initial,36.05,324,342,361,379,397,9,9,9,9,9,,,,,,,1,0,1,0,0,46,46,18,,,,,,,,,,,,num_4,1.0838150000199676,num_4,0.25,1.0,0.39999999999999997,0.6,15.2822,22.9233,return,2.8161148002836853,,,,,,,,,,,,,,,,,915,20,female,left_right_width,2024-10-23_11h41.55.247,exp1,2023.1.0,59.89390395343217,
,,,,,,,,,,,,,,,,4,9.25,9.75,10.25,10.75,0,0.5,0.1,0.4,1.9000000000000001,10,initial,36.05,333,351,370,388,0,9,9,9,9,0,,,,,,,1,0,1,0,0,47,47,9,,,,,,,,,,,,num_3,1.4573231001850218,num_3,0.35,1.3,0.7000000000000001,1.2,26.74385,45.8466,return,3.3659823001362383,,,,,,,,,,,,,,,,,915,20,female,left_right_width,2024-10-23_11h41.55.247,exp1,2023.1.0,59.89390395343217,
,,,,,,,,,,,,,,,,4,9.25,9.75,10.25,10.75,0,0.5,0.1,0.4,1.9000000000000001,10,initial,36.05,333,351,370,388,0,9,9,9,9,0,,,,,,,1,0,1,0,0,48,48,13,,,,,,,,,,,,num_3,1.132707100128755,num_3,0.3,0.7,0.35,0.65,13.37193,24.83358,return,3.387648600153625,,,,,,,,,,,,,,,,,915,20,female,left_right_width,2024-10-23_11h41.55.247,exp1,2023.1.0,59.89390395343217,
,,,,,,,,,,,,,,,,5,9,9.5,10,10.5,11,0.5,0.1,0.4,2.4,10,initial,36.05,324,342,361,379,397,9,9,9,9,9,,,,,,,1,0,1,0,0,49,49,25,,,,,,,,,,,,num_4,1.1120239002630115,num_4,0.4,1.2,0.30000000000000004,0.5,11.46165,19.10275,return,3.4477514000609517,,,,,,,,,,,,,,,,,915,20,female,left_right_width,2024-10-23_11h41.55.247,exp1,2023.1.0,59.89390395343217,
,,,,,,,,,,,,,,,,4,9.25,9.75,10.25,10.75,0,0.5,0.1,0.4,1.9000000000000001,10,initial,36.05,333,351,370,388,0,9,9,9,9,0,,,,,,,1,0,1,0,0,50,50,43,,,,,,,,,,,,num_3,1.1760947001166642,num_3,0.2,0.9,0.35,0.8,13.37193,30.5644,return,3.891542300116271,,,,,,,,,,,,,,,,,915,20,female,left_right_width,2024-10-23_11h41.55.247,exp1,2023.1.0,59.89390395343217,
,,,,,,,,,,,,,,,,5,9,9.5,10,10.5,11,0.5,0.1,0.4,2.4,10,initial,36.05,324,342,361,379,397,9,9,9,9,9,,,,,,,1,0,1,0,0,51,51,49,,,,,,,,,,,,num_5,0.9975753999315202,num_5,0.3,1.3,0.3,0.55,11.46165,21.01303,return,4.668278400087729,,,,,,,,,,,,,,,,,915,20,female,left_right_width,2024-10-23_11h41.55.247,exp1,2023.1.0,59.89390395343217,
,,,,,,,,,,,,,,,,5,9,9.5,10,10.5,11,0.5,0.1,0.4,2.4,10,initial,36.05,324,342,361,379,397,9,9,9,9,9,,,,,,,1,0,1,0,0,52,52,52,,,,,,,,,,,,num_5,1.0915620001032948,num_5,0.3,0.7,0.35,0.5,13.37193,19.10275,return,4.09937070007436,,,,,,,,,,,,,,,,,915,20,female,left_right_width,2024-10-23_11h41.55.247,exp1,2023.1.0,59.89390395343217,
,,,,,,,,,,,,,,,,3,9.5,10,10.5,0,0,0.5,0.1,0.4,1.4000000000000001,10,initial,36.05,342,361,379,0,0,9,9,9,0,0,,,,,,,1,0,1,0,0,53,53,7,,,,,,,,,,,,num_3,1.3544218000024557,num_3,0.35,0.8,0.35,0.8,13.37193,30.5644,return,1.0050308001227677,,,,,,,,,,,,,,,,,915,20,female,left_right_width,2024-10-23_11h41.55.247,exp1,2023.1.0,59.89390395343217,
,,,,,,,,,,,,,,,,,,,,,,,,,,,,,,,,,,,,,,,,,,,,,1,0,1,0,,,,,,,,,,,,,,,,,,,,,,,,,,,,,1397.8065094999038,1397.8065094999038,1397.8065094999038,,,,,,,,,,,,915,20,female,left_right_width,2024-10-23_11h41.55.247,exp1,2023.1.0,59.89390395343217,
,,,,,,,,,,,,,,,,3,9.5,10,10.5,0,0,0.5,0.25,0.25,1.25,10,initial,36.05,342,361,379,0,0,9,9,9,0,0,,,,,,,2,0,2,0,0,0,0,5,,,,,,,,,,,,num_3,1.1828598999418318,num_3,0.25,0.3,0.15000000000000002,0.35,5.73083,13.37193,return,3.4474686000030488,,,,,,,,,,,,,,,,,915,20,female,left_right_width,2024-10-23_11h41.55.247,exp1,2023.1.0,59.89390395343217,
,,,,,,,,,,,,,,,,3,9.5,10,10.5,0,0,0.5,0.25,0.25,1.25,10,initial,36.05,342,361,379,0,0,9,9,9,0,0,,,,,,,2,0,2,0,0,1,1,2,,,,,,,,,,,,num_2,1.057735700160265,num_2,0.5,1.0,0.15000000000000008,0.5,5.73083,19.10275,return,3.749956700252369,,,,,,,,,,,,,,,,,915,20,female,left_right_width,2024-10-23_11h41.55.247,exp1,2023.1.0,59.89390395343217,
,,,,,,,,,,,,,,,,4,9.25,9.75,10.25,10.75,0,0.5,0.25,0.25,1.75,10,initial,36.05,333,351,370,388,0,9,9,9,9,0,,,,,,,2,0,2,0,0,2,2,37,,,,,,,,,,,,num_4,0.963638000190258,num_4,0.2,1.1,0.2,1.1,7.6411,42.02605,return,0.7797630000859499,,,,,,,,,,,,,,,,,915,20,female,left_right_width,2024-10-23_11h41.55.247,exp1,2023.1.0,59.89390395343217,
,,,,,,,,,,,,,,,,5,9,9.5,10,10.5,11,0.5,0.25,0.25,2.25,10,initial,36.05,324,342,361,379,397,9,9,9,9,9,,,,,,,2,0,2,0,0,3,3,45,,,,,,,,,,,,num_3,1.8382309000007808,num_3,0.25,0.7,0.25,0.55,9.55138,21.01303,return,1.907607499975711,,,,,,,,,,,,,,,,,915,20,female,left_right_width,2024-10-23_11h41.55.247,exp1,2023.1.0,59.89390395343217,
,,,,,,,,,,,,,,,,4,9.25,9.75,10.25,10.75,0,0.5,0.25,0.25,1.75,10,initial,36.05,333,351,370,388,0,9,9,9,9,0,,,,,,,2,0,2,0,0,4,4,9,,,,,,,,,,,,num_4,0.9328259001486003,num_4,0.3,0.5,0.2,0.7,7.6411,26.74385,return,5.1657533000689,,,,,,,,,,,,,,,,,915,20,female,left_right_width,2024-10-23_11h41.55.247,exp1,2023.1.0,59.89390395343217,
,,,,,,,,,,,,,,,,4,9.25,9.75,10.25,10.75,0,0.5,0.25,0.25,1.75,10,initial,36.05,333,351,370,388,0,9,9,9,9,0,,,,,,,2,0,2,0,0,5,5,40,,,,,,,,,,,,num_4,0.979756599990651,num_4,0.2,0.4,0.2,0.8,7.6411,30.5644,return,2.008016000268981,,,,,,,,,,,,,,,,,915,20,female,left_right_width,2024-10-23_11h41.55.247,exp1,2023.1.0,59.89390395343217,
,,,,,,,,,,,,,,,,4,9.25,9.75,10.25,10.75,0,0.5,0.25,0.25,1.75,10,initial,36.05,333,351,370,388,0,9,9,9,9,0,,,,,,,2,0,2,0,0,6,6,42,,,,,,,,,,,,num_3,1.4322299000341445,num_3,0.35,0.7,0.15000000000000002,0.7,5.73083,26.74385,return,3.6878609999548644,,,,,,,,,,,,,,,,,915,20,female,left_right_width,2024-10-23_11h41.55.247,exp1,2023.1.0,59.89390395343217,
,,,,,,,,,,,,,,,,3,9.5,10,10.5,0,0,0.5,0.25,0.25,1.25,10,initial,36.05,342,361,379,0,0,9,9,9,0,0,,,,,,,2,0,2,0,0,7,7,29,,,,,,,,,,,,num_3,1.1157713001593947,num_3,0.45,0.5,0.15000000000000008,0.6,5.73083,22.9233,return,5.534275300102308,,,,,,,,,,,,,,,,,915,20,female,left_right_width,2024-10-23_11h41.55.247,exp1,2023.1.0,59.89390395343217,
,,,,,,,,,,,,,,,,3,9.5,10,10.5,0,0,0.5,0.25,0.25,1.25,10,initial,36.05,342,361,379,0,0,9,9,9,0,0,,,,,,,2,0,2,0,0,8,8,34,,,,,,,,,,,,num_3,1.105559600284323,num_3,0.35,1.3,0.15000000000000002,0.8,5.73083,30.5644,return,5.715515300165862,,,,,,,,,,,,,,,,,915,20,female,left_right_width,2024-10-23_11h41.55.247,exp1,2023.1.0,59.89390395343217,
,,,,,,,,,,,,,,,,4,9.25,9.75,10.25,10.75,0,0.5,0.25,0.25,1.75,10,initial,36.05,333,351,370,388,0,9,9,9,9,0,,,,,,,2,0,2,0,0,9,9,44,,,,,,,,,,,,num_4,0.8700855001807213,num_4,0.45,1.3,0.15000000000000008,0.8,5.73083,30.5644,return,4.304092300124466,,,,,,,,,,,,,,,,,915,20,female,left_right_width,2024-10-23_11h41.55.247,exp1,2023.1.0,59.89390395343217,
,,,,,,,,,,,,,,,,5,9,9.5,10,10.5,11,0.5,0.25,0.25,2.25,10,initial,36.05,324,342,361,379,397,9,9,9,9,9,,,,,,,2,0,2,0,0,10,10,19,,,,,,,,,,,,num_5,0.9188949002418667,num_5,0.45,0.8,0.15000000000000008,0.65,5.73083,24.83358,return,4.481247100280598,,,,,,,,,,,,,,,,,915,20,female,left_right_width,2024-10-23_11h41.55.247,exp1,2023.1.0,59.89390395343217,
,,,,,,,,,,,,,,,,3,9.5,10,10.5,0,0,0.5,0.25,0.25,1.25,10,initial,36.05,342,361,379,0,0,9,9,9,0,0,,,,,,,2,0,2,0,0,11,11,1,,,,,,,,,,,,num_3,1.087765500182286,num_3,0.25,1.2,0.2,1.2,7.6411,45.8466,return,2.3662267001345754,,,,,,,,,,,,,,,,,915,20,female,left_right_width,2024-10-23_11h41.55.247,exp1,2023.1.0,59.89390395343217,
,,,,,,,,,,,,,,,,4,9.25,9.75,10.25,10.75,0,0.5,0.25,0.25,1.75,10,initial,36.05,333,351,370,388,0,9,9,9,9,0,,,,,,,2,0,2,0,0,12,12,36,,,,,,,,,,,,num_3,1.214064200175926,num_3,0.3,1,0.15000000000000002,0.9,5.73083,34.38495,return,4.774989600293338,,,,,,,,,,,,,,,,,915,20,female,left_right_width,2024-10-23_11h41.55.247,exp1,2023.1.0,59.89390395343217,
,,,,,,,,,,,,,,,,3,9.5,10,10.5,0,0,0.5,0.25,0.25,1.25,10,initial,36.05,342,361,379,0,0,9,9,9,0,0,,,,,,,2,0,2,0,0,13,13,8,,,,,,,,,,,,num_2,0.9802983002737164,num_2,0.4,1.6,0.20000000000000007,1.0,7.6411,38.2055,return,5.275964400265366,,,,,,,,,,,,,,,,,915,20,female,left_right_width,2024-10-23_11h41.55.247,exp1,2023.1.0,59.89390395343217,
,,,,,,,,,,,,,,,,5,9,9.5,10,10.5,11,0.5,0.25,0.25,2.25,10,initial,36.05,324,342,361,379,397,9,9,9,9,9,,,,,,,2,0,2,0,0,14,14,51,,,,,,,,,,,,num_4,1.01461479999125,num_4,0.25,1.1,0.25,1.0,9.55138,38.2055,return,3.3414499000646174,,,,,,,,,,,,,,,,,915,20,female,left_right_width,2024-10-23_11h41.55.247,exp1,2023.1.0,59.89390395343217,
,,,,,,,,,,,,,,,,3,9.5,10,10.5,0,0,0.5,0.25,0.25,1.25,10,initial,36.05,342,361,379,0,0,9,9,9,0,0,,,,,,,2,0,2,0,0,15,15,4,,,,,,,,,,,,num_3,1.1018176001962274,num_3,0.35,1.1,0.2,1.05,7.6411,40.11578,return,3.710878800135106,,,,,,,,,,,,,,,,,915,20,female,left_right_width,2024-10-23_11h41.55.247,exp1,2023.1.0,59.89390395343217,
,,,,,,,,,,,,,,,,5,9,9.5,10,10.5,11,0.5,0.25,0.25,2.25,10,initial,36.05,324,342,361,379,397,9,9,9,9,9,,,,,,,2,0,2,0,0,16,16,20,,,,,,,,,,,,num_4,1.0874443002976477,num_4,0.35,0.5,0.15000000000000002,0.5,5.73083,19.10275,return,4.242497000144795,,,,,,,,,,,,,,,,,915,20,female,left_right_width,2024-10-23_11h41.55.247,exp1,2023.1.0,59.89390395343217,
,,,,,,,,,,,,,,,,5,9,9.5,10,10.5,11,0.5,0.25,0.25,2.25,10,initial,36.05,324,342,361,379,397,9,9,9,9,9,,,,,,,2,0,2,0,0,17,17,49,,,,,,,,,,,,num_5,0.9659782000817358,num_5,0.45,1.0,0.15000000000000008,0.65,5.73083,24.83358,return,4.268864100100473,,,,,,,,,,,,,,,,,915,20,female,left_right_width,2024-10-23_11h41.55.247,exp1,2023.1.0,59.89390395343217,
,,,,,,,,,,,,,,,,3,9.5,10,10.5,0,0,0.5,0.25,0.25,1.25,10,initial,36.05,342,361,379,0,0,9,9,9,0,0,,,,,,,2,0,2,0,0,18,18,6,,,,,,,,,,,,num_2,1.095228899968788,num_2,0.25,1.2,0.25,0.6,9.55138,22.9233,return,2.4075694002676755,,,,,,,,,,,,,,,,,915,20,female,left_right_width,2024-10-23_11h41.55.247,exp1,2023.1.0,59.89390395343217,
,,,,,,,,,,,,,,,,3,9.5,10,10.5,0,0,0.5,0.25,0.25,1.25,10,initial,36.05,342,361,379,0,0,9,9,9,0,0,,,,,,,2,0,2,0,0,19,19,31,,,,,,,,,,,,num_2,0.9472372001037002,num_2,0.2,1.0,0.2,0.6,7.6411,22.9233,return,2.1186593000311404,,,,,,,,,,,,,,,,,915,20,female,left_right_width,2024-10-23_11h41.55.247,exp1,2023.1.0,59.89390395343217,
,,,,,,,,,,,,,,,,3,9.5,10,10.5,0,0,0.5,0.25,0.25,1.25,10,initial,36.05,342,361,379,0,0,9,9,9,0,0,,,,,,,2,0,2,0,0,20,20,32,,,,,,,,,,,,num_3,1.087437900248915,num_3,0.5,1.2,0.15000000000000008,0.65,5.73083,24.83358,return,4.049471599981189,,,,,,,,,,,,,,,,,915,20,female,left_right_width,2024-10-23_11h41.55.247,exp1,2023.1.0,59.89390395343217,
,,,,,,,,,,,,,,,,4,9.25,9.75,10.25,10.75,0,0.5,0.25,0.25,1.75,10,initial,36.05,333,351,370,388,0,9,9,9,9,0,,,,,,,2,0,2,0,0,21,21,41,,,,,,,,,,,,num_4,0.9467580001801252,num_4,0.5,0.8,0.15000000000000008,0.4,5.73083,15.2822,return,6.023455100134015,,,,,,,,,,,,,,,,,915,20,female,left_right_width,2024-10-23_11h41.55.247,exp1,2023.1.0,59.89390395343217,
,,,,,,,,,,,,,,,,4,9.25,9.75,10.25,10.75,0,0.5,0.25,0.25,1.75,10,initial,36.05,333,351,370,388,0,9,9,9,9,0,,,,,,,2,0,2,0,0,22,22,14,,,,,,,,,,,,num_4,1.0694140999112278,num_4,0.35,0.8,0.15000000000000002,0.5,5.73083,19.10275,return,4.113314799964428,,,,,,,,,,,,,,,,,915,20,female,left_right_width,2024-10-23_11h41.55.247,exp1,2023.1.0,59.89390395343217,
,,,,,,,,,,,,,,,,4,9.25,9.75,10.25,10.75,0,0.5,0.25,0.25,1.75,10,initial,36.05,333,351,370,388,0,9,9,9,9,0,,,,,,,2,0,2,0,0,23,23,43,,,,,,,,,,,,num_4,0.9993808001745492,num_4,0.4,0.9,0.15000000000000008,0.5,5.73083,19.10275,return,2.985458900220692,,,,,,,,,,,,,,,,,915,20,female,left_right_width,2024-10-23_11h41.55.247,exp1,2023.1.0,59.89390395343217,
,,,,,,,,,,,,,,,,3,9.5,10,10.5,0,0,0.5,0.25,0.25,1.25,10,initial,36.05,342,361,379,0,0,9,9,9,0,0,,,,,,,2,0,2,0,0,24,24,35,,,,,,,,,,,,num_3,1.139603900257498,num_3,0.2,1.3,0.2,0.65,7.6411,24.83358,return,6.050014600157738,,,,,,,,,,,,,,,,,915,20,female,left_right_width,2024-10-23_11h41.55.247,exp1,2023.1.0,59.89390395343217,
,,,,,,,,,,,,,,,,4,9.25,9.75,10.25,10.75,0,0.5,0.25,0.25,1.75,10,initial,36.05,333,351,370,388,0,9,9,9,9,0,,,,,,,2,0,2,0,0,25,25,17,,,,,,,,,,,,num_4,0.9124201000668108,num_4,0.5,0.9,0.25000000000000006,0.6,9.55138,22.9233,return,2.8273281999863684,,,,,,,,,,,,,,,,,915,20,female,left_right_width,2024-10-23_11h41.55.247,exp1,2023.1.0,59.89390395343217,
,,,,,,,,,,,,,,,,3,9.5,10,10.5,0,0,0.5,0.25,0.25,1.25,10,initial,36.05,342,361,379,0,0,9,9,9,0,0,,,,,,,2,0,2,0,0,26,26,7,,,,,,,,,,,,num_2,1.0020538000389934,num_2,0.45,1.6,0.20000000000000007,0.5,7.6411,19.10275,return,4.363239400321618,,,,,,,,,,,,,,,,,915,20,female,left_right_width,2024-10-23_11h41.55.247,exp1,2023.1.0,59.89390395343217,
,,,,,,,,,,,,,,,,5,9,9.5,10,10.5,11,0.5,0.25,0.25,2.25,10,initial,36.05,324,342,361,379,397,9,9,9,9,9,,,,,,,2,0,2,0,0,27,27,24,,,,,,,,,,,,num_5,1.1622131001204252,num_5,0.3,0.7,0.2,0.55,7.6411,21.01303,return,2.0993232000619173,,,,,,,,,,,,,,,,,915,20,female,left_right_width,2024-10-23_11h41.55.247,exp1,2023.1.0,59.89390395343217,
,,,,,,,,,,,,,,,,5,9,9.5,10,10.5,11,0.5,0.25,0.25,2.25,10,initial,36.05,324,342,361,379,397,9,9,9,9,9,,,,,,,2,0,2,0,0,28,28,52,,,,,,,,,,,,num_5,0.918828499969095,num_5,0.35,1.0,0.15000000000000002,0.5,5.73083,19.10275,return,3.3592413002625108,,,,,,,,,,,,,,,,,915,20,female,left_right_width,2024-10-23_11h41.55.247,exp1,2023.1.0,59.89390395343217,
,,,,,,,,,,,,,,,,4,9.25,9.75,10.25,10.75,0,0.5,0.25,0.25,1.75,10,initial,36.05,333,351,370,388,0,9,9,9,9,0,,,,,,,2,0,2,0,0,29,29,38,,,,,,,,,,,,num_4,1.3626240000594407,num_4,0.2,0.4,0.15000000000000002,0.7,5.73083,26.74385,return,2.920700800139457,,,,,,,,,,,,,,,,,915,20,female,left_right_width,2024-10-23_11h41.55.247,exp1,2023.1.0,59.89390395343217,
,,,,,,,,,,,,,,,,3,9.5,10,10.5,0,0,0.5,0.25,0.25,1.25,10,initial,36.05,342,361,379,0,0,9,9,9,0,0,,,,,,,2,0,2,0,0,30,30,27,,,,,,,,,,,,num_3,1.401320300064981,num_3,0.45,1.1,0.20000000000000007,1.15,7.6411,43.93633,return,3.402419399935752,,,,,,,,,,,,,,,,,915,20,female,left_right_width,2024-10-23_11h41.55.247,exp1,2023.1.0,59.89390395343217,
,,,,,,,,,,,,,,,,5,9,9.5,10,10.5,11,0.5,0.25,0.25,2.25,10,initial,36.05,324,342,361,379,397,9,9,9,9,9,,,,,,,2,0,2,0,0,31,31,18,,,,,,,,,,,,num_5,1.0855559001211077,num_5,0.4,0.5,0.15000000000000008,0.65,5.73083,24.83358,return,5.728610600112006,,,,,,,,,,,,,,,,,915,20,female,left_right_width,2024-10-23_11h41.55.247,exp1,2023.1.0,59.89390395343217,
,,,,,,,,,,,,,,,,5,9,9.5,10,10.5,11,0.5,0.25,0.25,2.25,10,initial,36.05,324,342,361,379,397,9,9,9,9,9,,,,,,,2,0,2,0,0,32,32,22,,,,,,,,,,,,num_4,1.3493006001226604,num_4,0.55,0.7,0.15000000000000008,1.0,5.73083,38.2055,return,4.091718400130048,,,,,,,,,,,,,,,,,915,20,female,left_right_width,2024-10-23_11h41.55.247,exp1,2023.1.0,59.89390395343217,
,,,,,,,,,,,,,,,,3,9.5,10,10.5,0,0,0.5,0.25,0.25,1.25,10,initial,36.05,342,361,379,0,0,9,9,9,0,0,,,,,,,2,0,2,0,0,33,33,0,,,,,,,,,,,,num_3,1.1769143000710756,num_3,0.2,1.3,0.10000000000000002,1.35,3.82055,51.57743,return,2.1160691000986844,,,,,,,,,,,,,,,,,915,20,female,left_right_width,2024-10-23_11h41.55.247,exp1,2023.1.0,59.89390395343217,
,,,,,,,,,,,,,,,,5,9,9.5,10,10.5,11,0.5,0.25,0.25,2.25,10,initial,36.05,324,342,361,379,397,9,9,9,9,9,,,,,,,2,0,2,0,0,34,34,48,,,,,,,,,,,,num_4,1.0786224000621587,num_4,0.25,0.9,0.2,0.6,7.6411,22.9233,return,3.994169400073588,,,,,,,,,,,,,,,,,915,20,female,left_right_width,2024-10-23_11h41.55.247,exp1,2023.1.0,59.89390395343217,
,,,,,,,,,,,,,,,,4,9.25,9.75,10.25,10.75,0,0.5,0.25,0.25,1.75,10,initial,36.05,333,351,370,388,0,9,9,9,9,0,,,,,,,2,0,2,0,0,35,35,11,,,,,,,,,,,,num_4,0.8989738000091165,num_4,0.2,0.5,0.15000000000000002,0.5,5.73083,19.10275,return,2.6703300001099706,,,,,,,,,,,,,,,,,915,20,female,left_right_width,2024-10-23_11h41.55.247,exp1,2023.1.0,59.89390395343217,
,,,,,,,,,,,,,,,,5,9,9.5,10,10.5,11,0.5,0.25,0.25,2.25,10,initial,36.05,324,342,361,379,397,9,9,9,9,9,,,,,,,2,0,2,0,0,36,36,46,,,,,,,,,,,,num_5,0.8734444000292569,num_5,0.35,0.4,0.2,0.6,7.6411,22.9233,return,5.488205400062725,,,,,,,,,,,,,,,,,915,20,female,left_right_width,2024-10-23_11h41.55.247,exp1,2023.1.0,59.89390395343217,
,,,,,,,,,,,,,,,,3,9.5,10,10.5,0,0,0.5,0.25,0.25,1.25,10,initial,36.05,342,361,379,0,0,9,9,9,0,0,,,,,,,2,0,2,0,0,37,37,3,,,,,,,,,,,,num_3,1.2342791000846773,num_3,0.35,0.8,0.2,0.85,7.6411,32.47468,return,2.3940035002306104,,,,,,,,,,,,,,,,,915,20,female,left_right_width,2024-10-23_11h41.55.247,exp1,2023.1.0,59.89390395343217,
,,,,,,,,,,,,,,,,4,9.25,9.75,10.25,10.75,0,0.5,0.25,0.25,1.75,10,initial,36.05,333,351,370,388,0,9,9,9,9,0,,,,,,,2,0,2,0,0,38,38,39,,,,,,,,,,,,num_6,1.6141075000632554,num_6,0.3,0.9,0.3,0.3,11.46165,11.46165,return,4.281820600153878,,,,,,,,,,,,,,,,,915,20,female,left_right_width,2024-10-23_11h41.55.247,exp1,2023.1.0,59.89390395343217,
,,,,,,,,,,,,,,,,4,9.25,9.75,10.25,10.75,0,0.5,0.25,0.25,1.75,10,initial,36.05,333,351,370,388,0,9,9,9,9,0,,,,,,,2,0,2,0,0,39,39,16,,,,,,,,,,,,num_4,1.5447478999849409,num_4,0.25,1.2,0.15000000000000002,0.5,5.73083,19.10275,return,4.168539000209421,,,,,,,,,,,,,,,,,915,20,female,left_right_width,2024-10-23_11h41.55.247,exp1,2023.1.0,59.89390395343217,
,,,,,,,,,,,,,,,,4,9.25,9.75,10.25,10.75,0,0.5,0.25,0.25,1.75,10,initial,36.05,333,351,370,388,0,9,9,9,9,0,,,,,,,2,0,2,0,0,40,40,13,,,,,,,,,,,,num_4,1.6999629000201821,num_4,0.25,0.8,0.15000000000000002,0.5,5.73083,19.10275,return,4.239564400166273,,,,,,,,,,,,,,,,,915,20,female,left_right_width,2024-10-23_11h41.55.247,exp1,2023.1.0,59.89390395343217,
,,,,,,,,,,,,,,,,3,9.5,10,10.5,0,0,0.5,0.25,0.25,1.25,10,initial,36.05,342,361,379,0,0,9,9,9,0,0,,,,,,,2,0,2,0,0,41,41,30,,,,,,,,,,,,num_2,1.197043800028041,num_2,0.45,0.8,0.25000000000000006,0.9,9.55138,34.38495,return,2.7272358001209795,,,,,,,,,,,,,,,,,915,20,female,left_right_width,2024-10-23_11h41.55.247,exp1,2023.1.0,59.89390395343217,
,,,,,,,,,,,,,,,,5,9,9.5,10,10.5,11,0.5,0.25,0.25,2.25,10,initial,36.05,324,342,361,379,397,9,9,9,9,9,,,,,,,2,0,2,0,0,42,42,25,,,,,,,,,,,,num_4,1.0993820999283344,num_4,0.3,0.3,0.3,0.7,11.46165,26.74385,return,4.904194900067523,,,,,,,,,,,,,,,,,915,20,female,left_right_width,2024-10-23_11h41.55.247,exp1,2023.1.0,59.89390395343217,
,,,,,,,,,,,,,,,,4,9.25,9.75,10.25,10.75,0,0.5,0.25,0.25,1.75,10,initial,36.05,333,351,370,388,0,9,9,9,9,0,,,,,,,2,0,2,0,0,43,43,15,,,,,,,,,,,,num_5,1.2202595002017915,num_5,0.45,0.6,0.15000000000000008,0.5,5.73083,19.10275,return,2.9373452002182603,,,,,,,,,,,,,,,,,915,20,female,left_right_width,2024-10-23_11h41.55.247,exp1,2023.1.0,59.89390395343217,
,,,,,,,,,,,,,,,,5,9,9.5,10,10.5,11,0.5,0.25,0.25,2.25,10,initial,36.05,324,342,361,379,397,9,9,9,9,9,,,,,,,2,0,2,0,0,44,44,23,,,,,,,,,,,,num_4,1.045602299971506,num_4,0.45,0.8,0.20000000000000007,0.6,7.6411,22.9233,return,2.794167500222102,,,,,,,,,,,,,,,,,915,20,female,left_right_width,2024-10-23_11h41.55.247,exp1,2023.1.0,59.89390395343217,
,,,,,,,,,,,,,,,,3,9.5,10,10.5,0,0,0.5,0.25,0.25,1.25,10,initial,36.05,342,361,379,0,0,9,9,9,0,0,,,,,,,2,0,2,0,0,45,45,28,,,,,,,,,,,,num_3,1.182434800080955,num_3,0.5,1,0.20000000000000007,0.65,7.6411,24.83358,return,3.5179920000955462,,,,,,,,,,,,,,,,,915,20,female,left_right_width,2024-10-23_11h41.55.247,exp1,2023.1.0,59.89390395343217,
,,,,,,,,,,,,,,,,5,9,9.5,10,10.5,11,0.5,0.25,0.25,2.25,10,initial,36.05,324,342,361,379,397,9,9,9,9,9,,,,,,,2,0,2,0,0,46,46,21,,,,,,,,,,,,num_5,1.1674030001740903,num_5,0.35,0.6,0.15000000000000002,0.5,5.73083,19.10275,return,3.1492280999664217,,,,,,,,,,,,,,,,,915,20,female,left_right_width,2024-10-23_11h41.55.247,exp1,2023.1.0,59.89390395343217,
,,,,,,,,,,,,,,,,4,9.25,9.75,10.25,10.75,0,0.5,0.25,0.25,1.75,10,initial,36.05,333,351,370,388,0,9,9,9,9,0,,,,,,,2,0,2,0,0,47,47,12,,,,,,,,,,,,num_4,0.9590102001093328,num_4,0.45,0.7,0.20000000000000007,0.5,7.6411,19.10275,return,4.6103432001546025,,,,,,,,,,,,,,,,,915,20,female,left_right_width,2024-10-23_11h41.55.247,exp1,2023.1.0,59.89390395343217,
,,,,,,,,,,,,,,,,3,9.5,10,10.5,0,0,0.5,0.25,0.25,1.25,10,initial,36.05,342,361,379,0,0,9,9,9,0,0,,,,,,,2,0,2,0,0,48,48,33,,,,,,,,,,,,num_3,1.1277703002560884,num_3,0.45,0.8,0.15000000000000008,0.5,5.73083,19.10275,return,3.5099406002555043,,,,,,,,,,,,,,,,,915,20,female,left_right_width,2024-10-23_11h41.55.247,exp1,2023.1.0,59.89390395343217,
,,,,,,,,,,,,,,,,5,9,9.5,10,10.5,11,0.5,0.25,0.25,2.25,10,initial,36.05,324,342,361,379,397,9,9,9,9,9,,,,,,,2,0,2,0,0,49,49,26,,,,,,,,,,,,num_5,0.9602651000022888,num_5,0.4,0.7,0.20000000000000007,0.45,7.6411,17.19248,return,5.333476400235668,,,,,,,,,,,,,,,,,915,20,female,left_right_width,2024-10-23_11h41.55.247,exp1,2023.1.0,59.89390395343217,
,,,,,,,,,,,,,,,,5,9,9.5,10,10.5,11,0.5,0.25,0.25,2.25,10,initial,36.05,324,342,361,379,397,9,9,9,9,9,,,,,,,2,0,2,0,0,50,50,47,,,,,,,,,,,,num_5,1.5159801000263542,num_5,0.4,0.7,0.15000000000000008,0.65,5.73083,24.83358,return,3.2325963000766933,,,,,,,,,,,,,,,,,915,20,female,left_right_width,2024-10-23_11h41.55.247,exp1,2023.1.0,59.89390395343217,
,,,,,,,,,,,,,,,,4,9.25,9.75,10.25,10.75,0,0.5,0.25,0.25,1.75,10,initial,36.05,333,351,370,388,0,9,9,9,9,0,,,,,,,2,0,2,0,0,51,51,10,,,,,,,,,,,,num_4,1.1113445002119988,num_4,0.4,1.3,0.20000000000000007,0.6,7.6411,22.9233,return,4.134916899958625,,,,,,,,,,,,,,,,,915,20,female,left_right_width,2024-10-23_11h41.55.247,exp1,2023.1.0,59.89390395343217,
,,,,,,,,,,,,,,,,5,9,9.5,10,10.5,11,0.5,0.25,0.25,2.25,10,initial,36.05,324,342,361,379,397,9,9,9,9,9,,,,,,,2,0,2,0,0,52,52,53,,,,,,,,,,,,num_5,0.9683034000918269,num_5,0.55,1.3,0.15000000000000008,0.55,5.73083,21.01303,return,5.180019200081006,,,,,,,,,,,,,,,,,915,20,female,left_right_width,2024-10-23_11h41.55.247,exp1,2023.1.0,59.89390395343217,
,,,,,,,,,,,,,,,,5,9,9.5,10,10.5,11,0.5,0.25,0.25,2.25,10,initial,36.05,324,342,361,379,397,9,9,9,9,9,,,,,,,2,0,2,0,0,53,53,50,,,,,,,,,,,,num_5,0.9776774002239108,num_5,0.4,1.3,0.15000000000000008,0.55,5.73083,21.01303,return,5.367785000009462,,,,,,,,,,,,,,,,,915,20,female,left_right_width,2024-10-23_11h41.55.247,exp1,2023.1.0,59.89390395343217,
,,,,,,,,,,,,,,,,,,,,,,,,,,,,,,,,,,,,,,,,,,,,,2,0,2,0,,,,,,,,,,,,,,,,,,,,,,,,,,,,,1770.8056604999583,1770.8056604999583,1770.8056604999583,,,,,,,,,,,,915,20,female,left_right_width,2024-10-23_11h41.55.247,exp1,2023.1.0,59.89390395343217,
,,,,,,,,,,,,,,,,4,9.25,9.75,10.25,10.75,0,0.5,0.1,0.4,1.9000000000000001,10,initial,36.05,333,351,370,388,0,9,9,9,9,0,,,,,,,3,0,3,0,0,0,0,36,,,,,,,,,,,,num_4,0.9661106001585722,num_4,0.25,0.9,0.49999999999999994,0.7,19.10275,26.74385,return,2.6987197000999004,,,,,,,,,,,,,,,,,915,20,female,left_right_width,2024-10-23_11h41.55.247,exp1,2023.1.0,59.89390395343217,
,,,,,,,,,,,,,,,,3,9.5,10,10.5,0,0,0.5,0.1,0.4,1.4000000000000001,10,initial,36.05,342,361,379,0,0,9,9,9,0,0,,,,,,,3,0,3,0,0,1,1,5,,,,,,,,,,,,num_3,1.0175962001085281,num_3,0.55,1.3,0.55,0.8,21.01303,30.5644,return,2.9854280001018196,,,,,,,,,,,,,,,,,915,20,female,left_right_width,2024-10-23_11h41.55.247,exp1,2023.1.0,59.89390395343217,
,,,,,,,,,,,,,,,,4,9.25,9.75,10.25,10.75,0,0.5,0.1,0.4,1.9000000000000001,10,initial,36.05,333,351,370,388,0,9,9,9,9,0,,,,,,,3,0,3,0,0,2,2,14,,,,,,,,,,,,num_4,1.222341800108552,num_4,0.2,0.5,0.3,0.4,11.46165,15.2822,return,4.114128900226206,,,,,,,,,,,,,,,,,915,20,female,left_right_width,2024-10-23_11h41.55.247,exp1,2023.1.0,59.89390395343217,
,,,,,,,,,,,,,,,,3,9.5,10,10.5,0,0,0.5,0.1,0.4,1.4000000000000001,10,initial,36.05,342,361,379,0,0,9,9,9,0,0,,,,,,,3,0,3,0,0,3,3,4,,,,,,,,,,,,num_2,1.1362761000636965,num_2,0.55,0.6,0.55,0.8,21.01303,30.5644,return,2.7165993000380695,,,,,,,,,,,,,,,,,915,20,female,left_right_width,2024-10-23_11h41.55.247,exp1,2023.1.0,59.89390395343217,
,,,,,,,,,,,,,,,,5,9,9.5,10,10.5,11,0.5,0.1,0.4,2.4,10,initial,36.05,324,342,361,379,397,9,9,9,9,9,,,,,,,3,0,3,0,0,4,4,48,,,,,,,,,,,,num_4,1.0216904000844806,num_4,0.55,1.2,0.4,0.6,15.2822,22.9233,return,3.6458123000338674,,,,,,,,,,,,,,,,,915,20,female,left_right_width,2024-10-23_11h41.55.247,exp1,2023.1.0,59.89390395343217,
,,,,,,,,,,,,,,,,5,9,9.5,10,10.5,11,0.5,0.1,0.4,2.4,10,initial,36.05,324,342,361,379,397,9,9,9,9,9,,,,,,,3,0,3,0,0,5,5,21,,,,,,,,,,,,num_6,1.2890266000758857,num_6,0.5,1.0,0.45,0.6,17.19248,22.9233,return,4.225288600195199,,,,,,,,,,,,,,,,,915,20,female,left_right_width,2024-10-23_11h41.55.247,exp1,2023.1.0,59.89390395343217,
,,,,,,,,,,,,,,,,5,9,9.5,10,10.5,11,0.5,0.1,0.4,2.4,10,initial,36.05,324,342,361,379,397,9,9,9,9,9,,,,,,,3,0,3,0,0,6,6,20,,,,,,,,,,,,num_5,0.990158200263977,num_5,0.4,1.3,0.4,0.6,15.2822,22.9233,return,3.669506600126624,,,,,,,,,,,,,,,,,915,20,female,left_right_width,2024-10-23_11h41.55.247,exp1,2023.1.0,59.89390395343217,
,,,,,,,,,,,,,,,,5,9,9.5,10,10.5,11,0.5,0.1,0.4,2.4,10,initial,36.05,324,342,361,379,397,9,9,9,9,9,,,,,,,3,0,3,0,0,7,7,26,,,,,,,,,,,,num_5,1.0114746000617743,num_5,0.2,1.0,0.3,0.45,11.46165,17.19248,return,3.2050085000228137,,,,,,,,,,,,,,,,,915,20,female,left_right_width,2024-10-23_11h41.55.247,exp1,2023.1.0,59.89390395343217,
,,,,,,,,,,,,,,,,4,9.25,9.75,10.25,10.75,0,0.5,0.1,0.4,1.9000000000000001,10,initial,36.05,333,351,370,388,0,9,9,9,9,0,,,,,,,3,0,3,0,0,8,8,12,,,,,,,,,,,,num_4,0.9414990001823753,num_4,0.55,0.8,0.4,0.5,15.2822,19.10275,return,3.074660900281742,,,,,,,,,,,,,,,,,915,20,female,left_right_width,2024-10-23_11h41.55.247,exp1,2023.1.0,59.89390395343217,
,,,,,,,,,,,,,,,,5,9,9.5,10,10.5,11,0.5,0.1,0.4,2.4,10,initial,36.05,324,342,361,379,397,9,9,9,9,9,,,,,,,3,0,3,0,0,9,9,49,,,,,,,,,,,,num_4,1.5194058001507074,num_4,0.25,1.0,0.35,0.5,13.37193,19.10275,return,5.60160019993782,,,,,,,,,,,,,,,,,915,20,female,left_right_width,2024-10-23_11h41.55.247,exp1,2023.1.0,59.89390395343217,
,,,,,,,,,,,,,,,,3,9.5,10,10.5,0,0,0.5,0.1,0.4,1.4000000000000001,10,initial,36.05,342,361,379,0,0,9,9,9,0,0,,,,,,,3,0,3,0,0,10,10,1,,,,,,,,,,,,num_3,1.6179355003405362,num_3,0.5,1,0.45,0.6,17.19248,22.9233,return,3.0395357001107186,,,,,,,,,,,,,,,,,915,20,female,left_right_width,2024-10-23_11h41.55.247,exp1,2023.1.0,59.89390395343217,
,,,,,,,,,,,,,,,,3,9.5,10,10.5,0,0,0.5,0.1,0.4,1.4000000000000001,10,initial,36.05,342,361,379,0,0,9,9,9,0,0,,,,,,,3,0,3,0,0,11,11,33,,,,,,,,,,,,num_2,1.2874188001733273,num_2,0.2,1.4,0.39999999999999997,0.6,15.2822,22.9233,return,4.0320726002100855,,,,,,,,,,,,,,,,,915,20,female,left_right_width,2024-10-23_11h41.55.247,exp1,2023.1.0,59.89390395343217,
,,,,,,,,,,,,,,,,5,9,9.5,10,10.5,11,0.5,0.1,0.4,2.4,10,initial,36.05,324,342,361,379,397,9,9,9,9,9,,,,,,,3,0,3,0,0,12,12,53,,,,,,,,,,,,num_4,1.851786500075832,num_4,0.2,0.6,0.39999999999999997,0.6,15.2822,22.9233,return,2.4959431001916528,,,,,,,,,,,,,,,,,915,20,female,left_right_width,2024-10-23_11h41.55.247,exp1,2023.1.0,59.89390395343217,
,,,,,,,,,,,,,,,,4,9.25,9.75,10.25,10.75,0,0.5,0.1,0.4,1.9000000000000001,10,initial,36.05,333,351,370,388,0,9,9,9,9,0,,,,,,,3,0,3,0,0,13,13,15,,,,,,,,,,,,num_3,1.3151760001201183,num_3,0.2,1.3,0.49999999999999994,0.75,19.10275,28.65413,return,4.621715500019491,,,,,,,,,,,,,,,,,915,20,female,left_right_width,2024-10-23_11h41.55.247,exp1,2023.1.0,59.89390395343217,
,,,,,,,,,,,,,,,,3,9.5,10,10.5,0,0,0.5,0.1,0.4,1.4000000000000001,10,initial,36.05,342,361,379,0,0,9,9,9,0,0,,,,,,,3,0,3,0,0,14,14,0,,,,,,,,,,,,num_3,1.3768458000849932,num_3,0.4,0.6,0.45,0.5,17.19248,19.10275,return,3.333725200034678,,,,,,,,,,,,,,,,,915,20,female,left_right_width,2024-10-23_11h41.55.247,exp1,2023.1.0,59.89390395343217,
,,,,,,,,,,,,,,,,3,9.5,10,10.5,0,0,0.5,0.1,0.4,1.4000000000000001,10,initial,36.05,342,361,379,0,0,9,9,9,0,0,,,,,,,3,0,3,0,0,15,15,6,,,,,,,,,,,,num_3,1.0954454001039267,num_3,0.4,1.3,0.45,0.6,17.19248,22.9233,return,3.943442099960521,,,,,,,,,,,,,,,,,915,20,female,left_right_width,2024-10-23_11h41.55.247,exp1,2023.1.0,59.89390395343217,
,,,,,,,,,,,,,,,,3,9.5,10,10.5,0,0,0.5,0.1,0.4,1.4000000000000001,10,initial,36.05,342,361,379,0,0,9,9,9,0,0,,,,,,,3,0,3,0,0,16,16,2,,,,,,,,,,,,num_2,1.0067237000912428,num_2,0.4,1.0,0.5,0.6,19.10275,22.9233,return,2.3665473002474755,,,,,,,,,,,,,,,,,915,20,female,left_right_width,2024-10-23_11h41.55.247,exp1,2023.1.0,59.89390395343217,
,,,,,,,,,,,,,,,,3,9.5,10,10.5,0,0,0.5,0.1,0.4,1.4000000000000001,10,initial,36.05,342,361,379,0,0,9,9,9,0,0,,,,,,,3,0,3,0,0,17,17,29,,,,,,,,,,,,num_2,0.9898545001633465,num_2,0.2,0.6,0.3,0.5,11.46165,19.10275,return,3.653630900196731,,,,,,,,,,,,,,,,,915,20,female,left_right_width,2024-10-23_11h41.55.247,exp1,2023.1.0,59.89390395343217,
,,,,,,,,,,,,,,,,4,9.25,9.75,10.25,10.75,0,0.5,0.1,0.4,1.9000000000000001,10,initial,36.05,333,351,370,388,0,9,9,9,9,0,,,,,,,3,0,3,0,0,18,18,40,,,,,,,,,,,,num_4,0.9993265003431588,num_4,0.25,0.4,0.35,0.5,13.37193,19.10275,return,2.8255678000859916,,,,,,,,,,,,,,,,,915,20,female,left_right_width,2024-10-23_11h41.55.247,exp1,2023.1.0,59.89390395343217,
,,,,,,,,,,,,,,,,4,9.25,9.75,10.25,10.75,0,0.5,0.1,0.4,1.9000000000000001,10,initial,36.05,333,351,370,388,0,9,9,9,9,0,,,,,,,3,0,3,0,0,19,19,16,,,,,,,,,,,,num_4,0.9492981000803411,num_4,0.3,1.2,0.35,0.5,13.37193,19.10275,return,2.6355930001009256,,,,,,,,,,,,,,,,,915,20,female,left_right_width,2024-10-23_11h41.55.247,exp1,2023.1.0,59.89390395343217,
,,,,,,,,,,,,,,,,3,9.5,10,10.5,0,0,0.5,0.1,0.4,1.4000000000000001,10,initial,36.05,342,361,379,0,0,9,9,9,0,0,,,,,,,3,0,3,0,0,20,20,34,,,,,,,,,,,,num_3,1.0356713000219315,num_3,0.35,0.7,0.35,0.45,13.37193,17.19248,return,2.4016487000044435,,,,,,,,,,,,,,,,,915,20,female,left_right_width,2024-10-23_11h41.55.247,exp1,2023.1.0,59.89390395343217,
,,,,,,,,,,,,,,,,5,9,9.5,10,10.5,11,0.5,0.1,0.4,2.4,10,initial,36.05,324,342,361,379,397,9,9,9,9,9,,,,,,,3,0,3,0,0,21,21,51,,,,,,,,,,,,num_4,1.3070693002082407,num_4,0.5,1.2,0.35000000000000003,0.5,13.37193,19.10275,return,8.049893700052053,,,,,,,,,,,,,,,,,915,20,female,left_right_width,2024-10-23_11h41.55.247,exp1,2023.1.0,59.89390395343217,
,,,,,,,,,,,,,,,,3,9.5,10,10.5,0,0,0.5,0.1,0.4,1.4000000000000001,10,initial,36.05,342,361,379,0,0,9,9,9,0,0,,,,,,,3,0,3,0,0,22,22,32,,,,,,,,,,,,num_3,1.0467906002886593,num_3,0.2,0.3,0.35,0.5,13.37193,19.10275,return,4.5031526000238955,,,,,,,,,,,,,,,,,915,20,female,left_right_width,2024-10-23_11h41.55.247,exp1,2023.1.0,59.89390395343217,
,,,,,,,,,,,,,,,,3,9.5,10,10.5,0,0,0.5,0.1,0.4,1.4000000000000001,10,initial,36.05,342,361,379,0,0,9,9,9,0,0,,,,,,,3,0,3,0,0,23,23,30,,,,,,,,,,,,num_3,1.1786495002452284,num_3,0.4,0.9,0.25000000000000006,0.4,9.55138,15.2822,return,4.7428791001439095,,,,,,,,,,,,,,,,,915,20,female,left_right_width,2024-10-23_11h41.55.247,exp1,2023.1.0,59.89390395343217,
,,,,,,,,,,,,,,,,5,9,9.5,10,10.5,11,0.5,0.1,0.4,2.4,10,initial,36.05,324,342,361,379,397,9,9,9,9,9,,,,,,,3,0,3,0,0,24,24,46,,,,,,,,,,,,num_5,1.0703334000427276,num_5,0.55,0.9,0.25000000000000006,0.4,9.55138,15.2822,return,3.857804800150916,,,,,,,,,,,,,,,,,915,20,female,left_right_width,2024-10-23_11h41.55.247,exp1,2023.1.0,59.89390395343217,
,,,,,,,,,,,,,,,,4,9.25,9.75,10.25,10.75,0,0.5,0.1,0.4,1.9000000000000001,10,initial,36.05,333,351,370,388,0,9,9,9,9,0,,,,,,,3,0,3,0,0,25,25,44,,,,,,,,,,,,num_4,0.9809005002025515,num_4,0.2,0.5,0.35,0.5,13.37193,19.10275,return,1.9969460000284016,,,,,,,,,,,,,,,,,915,20,female,left_right_width,2024-10-23_11h41.55.247,exp1,2023.1.0,59.89390395343217,
,,,,,,,,,,,,,,,,5,9,9.5,10,10.5,11,0.5,0.1,0.4,2.4,10,initial,36.05,324,342,361,379,397,9,9,9,9,9,,,,,,,3,0,3,0,0,26,26,22,,,,,,,,,,,,num_5,0.9810422002337873,num_5,0.35,0.7,0.3,0.5,11.46165,19.10275,return,2.2616034001111984,,,,,,,,,,,,,,,,,915,20,female,left_right_width,2024-10-23_11h41.55.247,exp1,2023.1.0,59.89390395343217,
,,,,,,,,,,,,,,,,3,9.5,10,10.5,0,0,0.5,0.1,0.4,1.4000000000000001,10,initial,36.05,342,361,379,0,0,9,9,9,0,0,,,,,,,3,0,3,0,0,27,27,27,,,,,,,,,,,,num_3,1.0613903000485152,num_3,0.4,0.5,0.30000000000000004,0.45,11.46165,17.19248,return,3.3779897002968937,,,,,,,,,,,,,,,,,915,20,female,left_right_width,2024-10-23_11h41.55.247,exp1,2023.1.0,59.89390395343217,
,,,,,,,,,,,,,,,,5,9,9.5,10,10.5,11,0.5,0.1,0.4,2.4,10,initial,36.05,324,342,361,379,397,9,9,9,9,9,,,,,,,3,0,3,0,0,28,28,47,,,,,,,,,,,,num_5,0.8947125002741814,num_5,0.2,1.2,0.35,0.55,13.37193,21.01303,return,4.100592800183222,,,,,,,,,,,,,,,,,915,20,female,left_right_width,2024-10-23_11h41.55.247,exp1,2023.1.0,59.89390395343217,
,,,,,,,,,,,,,,,,4,9.25,9.75,10.25,10.75,0,0.5,0.1,0.4,1.9000000000000001,10,initial,36.05,333,351,370,388,0,9,9,9,9,0,,,,,,,3,0,3,0,0,29,29,11,,,,,,,,,,,,num_4,0.959666799986735,num_4,0.35,0.7,0.44999999999999996,0.7,17.19248,26.74385,return,3.1564827002584934,,,,,,,,,,,,,,,,,915,20,female,left_right_width,2024-10-23_11h41.55.247,exp1,2023.1.0,59.89390395343217,
,,,,,,,,,,,,,,,,4,9.25,9.75,10.25,10.75,0,0.5,0.1,0.4,1.9000000000000001,10,initial,36.05,333,351,370,388,0,9,9,9,9,0,,,,,,,3,0,3,0,0,30,30,17,,,,,,,,,,,,num_4,0.929060900118202,num_4,0.55,0.7,0.4,0.6,15.2822,22.9233,return,2.4072629001457244,,,,,,,,,,,,,,,,,915,20,female,left_right_width,2024-10-23_11h41.55.247,exp1,2023.1.0,59.89390395343217,
,,,,,,,,,,,,,,,,4,9.25,9.75,10.25,10.75,0,0.5,0.1,0.4,1.9000000000000001,10,initial,36.05,333,351,370,388,0,9,9,9,9,0,,,,,,,3,0,3,0,0,31,31,42,,,,,,,,,,,,num_4,1.7562808003276587,num_4,0.2,0.5,0.35,0.5,13.37193,19.10275,return,1.9676163999829441,,,,,,,,,,,,,,,,,915,20,female,left_right_width,2024-10-23_11h41.55.247,exp1,2023.1.0,59.89390395343217,
,,,,,,,,,,,,,,,,5,9,9.5,10,10.5,11,0.5,0.1,0.4,2.4,10,initial,36.05,324,342,361,379,397,9,9,9,9,9,,,,,,,3,0,3,0,0,32,32,23,,,,,,,,,,,,num_5,1.0849792999215424,num_5,0.3,0.5,0.3,0.5,11.46165,19.10275,return,1.2294851001352072,,,,,,,,,,,,,,,,,915,20,female,left_right_width,2024-10-23_11h41.55.247,exp1,2023.1.0,59.89390395343217,
,,,,,,,,,,,,,,,,5,9,9.5,10,10.5,11,0.5,0.1,0.4,2.4,10,initial,36.05,324,342,361,379,397,9,9,9,9,9,,,,,,,3,0,3,0,0,33,33,52,,,,,,,,,,,,num_4,0.8992741999682039,num_4,0.25,0.3,0.3,0.5,11.46165,19.10275,return,3.230010899947956,,,,,,,,,,,,,,,,,915,20,female,left_right_width,2024-10-23_11h41.55.247,exp1,2023.1.0,59.89390395343217,
,,,,,,,,,,,,,,,,4,9.25,9.75,10.25,10.75,0,0.5,0.1,0.4,1.9000000000000001,10,initial,36.05,333,351,370,388,0,9,9,9,9,0,,,,,,,3,0,3,0,0,34,34,9,,,,,,,,,,,,num_5,1.0767383000347763,num_5,0.25,0.3,0.35,0.45,13.37193,17.19248,return,3.925539900083095,,,,,,,,,,,,,,,,,915,20,female,left_right_width,2024-10-23_11h41.55.247,exp1,2023.1.0,59.89390395343217,
,,,,,,,,,,,,,,,,5,9,9.5,10,10.5,11,0.5,0.1,0.4,2.4,10,initial,36.05,324,342,361,379,397,9,9,9,9,9,,,,,,,3,0,3,0,0,35,35,45,,,,,,,,,,,,num_6,0.9307424002327025,num_6,0.35,0.5,0.25,0.5,9.55138,19.10275,return,3.349881400121376,,,,,,,,,,,,,,,,,915,20,female,left_right_width,2024-10-23_11h41.55.247,exp1,2023.1.0,59.89390395343217,
,,,,,,,,,,,,,,,,4,9.25,9.75,10.25,10.75,0,0.5,0.1,0.4,1.9000000000000001,10,initial,36.05,333,351,370,388,0,9,9,9,9,0,,,,,,,3,0,3,0,0,36,36,13,,,,,,,,,,,,num_4,0.9893644000403583,num_4,0.55,1.0,0.25000000000000006,0.5,9.55138,19.10275,return,3.6832642001099885,,,,,,,,,,,,,,,,,915,20,female,left_right_width,2024-10-23_11h41.55.247,exp1,2023.1.0,59.89390395343217,
,,,,,,,,,,,,,,,,3,9.5,10,10.5,0,0,0.5,0.1,0.4,1.4000000000000001,10,initial,36.05,342,361,379,0,0,9,9,9,0,0,,,,,,,3,0,3,0,0,37,37,8,,,,,,,,,,,,num_3,1.3390210000798106,num_3,0.25,1.3,0.3,0.6,11.46165,22.9233,return,4.878593000117689,,,,,,,,,,,,,,,,,915,20,female,left_right_width,2024-10-23_11h41.55.247,exp1,2023.1.0,59.89390395343217,
,,,,,,,,,,,,,,,,4,9.25,9.75,10.25,10.75,0,0.5,0.1,0.4,1.9000000000000001,10,initial,36.05,333,351,370,388,0,9,9,9,9,0,,,,,,,3,0,3,0,0,38,38,39,,,,,,,,,,,,num_3,1.1816889001056552,num_3,0.2,0.6,0.44999999999999996,0.65,17.19248,24.83358,return,2.970119900070131,,,,,,,,,,,,,,,,,915,20,female,left_right_width,2024-10-23_11h41.55.247,exp1,2023.1.0,59.89390395343217,
,,,,,,,,,,,,,,,,4,9.25,9.75,10.25,10.75,0,0.5,0.1,0.4,1.9000000000000001,10,initial,36.05,333,351,370,388,0,9,9,9,9,0,,,,,,,3,0,3,0,0,39,39,37,,,,,,,,,,,,num_4,0.9896955001167953,num_4,0.25,0.7,0.39999999999999997,0.6,15.2822,22.9233,return,3.699257500236854,,,,,,,,,,,,,,,,,915,20,female,left_right_width,2024-10-23_11h41.55.247,exp1,2023.1.0,59.89390395343217,
,,,,,,,,,,,,,,,,4,9.25,9.75,10.25,10.75,0,0.5,0.1,0.4,1.9000000000000001,10,initial,36.05,333,351,370,388,0,9,9,9,9,0,,,,,,,3,0,3,0,0,40,40,43,,,,,,,,,,,,num_3,3.235988600179553,num_3,0.5,1.2,0.30000000000000004,0.8,11.46165,30.5644,return,4.0454853002447635,,,,,,,,,,,,,,,,,915,20,female,left_right_width,2024-10-23_11h41.55.247,exp1,2023.1.0,59.89390395343217,
,,,,,,,,,,,,,,,,5,9,9.5,10,10.5,11,0.5,0.1,0.4,2.4,10,initial,36.05,324,342,361,379,397,9,9,9,9,9,,,,,,,3,0,3,0,0,41,41,18,,,,,,,,,,,,num_5,0.9294686000794172,num_5,0.25,0.8,0.35,0.55,13.37193,21.01303,return,3.2270700000226498,,,,,,,,,,,,,,,,,915,20,female,left_right_width,2024-10-23_11h41.55.247,exp1,2023.1.0,59.89390395343217,
,,,,,,,,,,,,,,,,3,9.5,10,10.5,0,0,0.5,0.1,0.4,1.4000000000000001,10,initial,36.05,342,361,379,0,0,9,9,9,0,0,,,,,,,3,0,3,0,0,42,42,3,,,,,,,,,,,,num_3,1.163350600283593,num_3,0.25,0.3,0.25,0.45,9.55138,17.19248,return,1.9295561001636088,,,,,,,,,,,,,,,,,915,20,female,left_right_width,2024-10-23_11h41.55.247,exp1,2023.1.0,59.89390395343217,
,,,,,,,,,,,,,,,,3,9.5,10,10.5,0,0,0.5,0.1,0.4,1.4000000000000001,10,initial,36.05,342,361,379,0,0,9,9,9,0,0,,,,,,,3,0,3,0,0,43,43,31,,,,,,,,,,,,num_2,0.945589000126347,num_2,0.4,1.6,0.4,0.7,15.2822,26.74385,return,3.144681400153786,,,,,,,,,,,,,,,,,915,20,female,left_right_width,2024-10-23_11h41.55.247,exp1,2023.1.0,59.89390395343217,
,,,,,,,,,,,,,,,,4,9.25,9.75,10.25,10.75,0,0.5,0.1,0.4,1.9000000000000001,10,initial,36.05,333,351,370,388,0,9,9,9,9,0,,,,,,,3,0,3,0,0,44,44,41,,,,,,,,,,,,num_3,0.9281625002622604,num_3,0.25,0.8,0.35,0.55,13.37193,21.01303,return,2.4104148000478745,,,,,,,,,,,,,,,,,915,20,female,left_right_width,2024-10-23_11h41.55.247,exp1,2023.1.0,59.89390395343217,
,,,,,,,,,,,,,,,,5,9,9.5,10,10.5,11,0.5,0.1,0.4,2.4,10,initial,36.05,324,342,361,379,397,9,9,9,9,9,,,,,,,3,0,3,0,0,45,45,24,,,,,,,,,,,,num_5,1.1658867001533508,num_5,0.35,1.2,0.3,0.55,11.46165,21.01303,return,3.7686903001740575,,,,,,,,,,,,,,,,,915,20,female,left_right_width,2024-10-23_11h41.55.247,exp1,2023.1.0,59.89390395343217,
,,,,,,,,,,,,,,,,4,9.25,9.75,10.25,10.75,0,0.5,0.1,0.4,1.9000000000000001,10,initial,36.05,333,351,370,388,0,9,9,9,9,0,,,,,,,3,0,3,0,0,46,46,10,,,,,,,,,,,,num_3,1.2582459000404924,num_3,0.3,0.9,0.35,0.6,13.37193,22.9233,return,2.2467986000701785,,,,,,,,,,,,,,,,,915,20,female,left_right_width,2024-10-23_11h41.55.247,exp1,2023.1.0,59.89390395343217,
,,,,,,,,,,,,,,,,3,9.5,10,10.5,0,0,0.5,0.1,0.4,1.4000000000000001,10,initial,36.05,342,361,379,0,0,9,9,9,0,0,,,,,,,3,0,3,0,0,47,47,7,,,,,,,,,,,,num_3,0.9420206001959741,num_3,0.35,0.9,0.39999999999999997,0.6,15.2822,22.9233,return,2.1781961002852768,,,,,,,,,,,,,,,,,915,20,female,left_right_width,2024-10-23_11h41.55.247,exp1,2023.1.0,59.89390395343217,
,,,,,,,,,,,,,,,,5,9,9.5,10,10.5,11,0.5,0.1,0.4,2.4,10,initial,36.05,324,342,361,379,397,9,9,9,9,9,,,,,,,3,0,3,0,0,48,48,25,,,,,,,,,,,,num_5,1.1453609000891447,num_5,0.3,0.8,0.25,0.45,9.55138,17.19248,return,4.053062800085172,,,,,,,,,,,,,,,,,915,20,female,left_right_width,2024-10-23_11h41.55.247,exp1,2023.1.0,59.89390395343217,
,,,,,,,,,,,,,,,,5,9,9.5,10,10.5,11,0.5,0.1,0.4,2.4,10,initial,36.05,324,342,361,379,397,9,9,9,9,9,,,,,,,3,0,3,0,0,49,49,19,,,,,,,,,,,,num_5,0.9110949002206326,num_5,0.45,1.1,0.35000000000000003,0.6,13.37193,22.9233,return,3.8949474000837654,,,,,,,,,,,,,,,,,915,20,female,left_right_width,2024-10-23_11h41.55.247,exp1,2023.1.0,59.89390395343217,
,,,,,,,,,,,,,,,,5,9,9.5,10,10.5,11,0.5,0.1,0.4,2.4,10,initial,36.05,324,342,361,379,397,9,9,9,9,9,,,,,,,3,0,3,0,0,50,50,50,,,,,,,,,,,,num_4,0.8521414001006633,num_4,0.45,1.2,0.35000000000000003,0.5,13.37193,19.10275,return,5.035811900161207,,,,,,,,,,,,,,,,,915,20,female,left_right_width,2024-10-23_11h41.55.247,exp1,2023.1.0,59.89390395343217,
,,,,,,,,,,,,,,,,3,9.5,10,10.5,0,0,0.5,0.1,0.4,1.4000000000000001,10,initial,36.05,342,361,379,0,0,9,9,9,0,0,,,,,,,3,0,3,0,0,51,51,28,,,,,,,,,,,,num_2,1.723024200182408,num_2,0.3,0.4,0.35,0.6,13.37193,22.9233,return,2.6537077000830323,,,,,,,,,,,,,,,,,915,20,female,left_right_width,2024-10-23_11h41.55.247,exp1,2023.1.0,59.89390395343217,
,,,,,,,,,,,,,,,,4,9.25,9.75,10.25,10.75,0,0.5,0.1,0.4,1.9000000000000001,10,initial,36.05,333,351,370,388,0,9,9,9,9,0,,,,,,,3,0,3,0,0,52,52,38,,,,,,,,,,,,num_3,1.1403839001432061,num_3,0.25,0.3,0.39999999999999997,0.5,15.2822,19.10275,return,3.381977899931371,,,,,,,,,,,,,,,,,915,20,female,left_right_width,2024-10-23_11h41.55.247,exp1,2023.1.0,59.89390395343217,
,,,,,,,,,,,,,,,,3,9.5,10,10.5,0,0,0.5,0.1,0.4,1.4000000000000001,10,initial,36.05,342,361,379,0,0,9,9,9,0,0,,,,,,,3,0,3,0,0,53,53,35,,,,,,,,,,,,num_2,1.6492466002237052,num_2,0.35,1.6,0.49999999999999994,0.9,19.10275,34.38495,return,4.267397900111973,,,,,,,,,,,,,,,,,915,20,female,left_right_width,2024-10-23_11h41.55.247,exp1,2023.1.0,59.89390395343217,
,,,,,,,,,,,,,,,,,,,,,,,,,,,,,,,,,,,,,,,,,,,,,3,0,3,0,,,,,,,,,,,,,,,,,,,,,,,,,,,,,2312.771307799965,2312.771307799965,2312.771307799965,,,,,,,,,,,,915,20,female,left_right_width,2024-10-23_11h41.55.247,exp1,2023.1.0,59.89390395343217,
,,,,,,,,,,,,,,,,5,8.2,9.1,10,10.9,11.8,0.9,0.35,0.55,4.15,10,initial,36.05,296,328,361,393,425,9,9,9,9,9,,,,,,,4,0,4,0,0,0,0,20,,,,,,,,,,,,num_5,0.9459701001178473,num_5,0.55,1.0,0.45,1.05,17.19248,40.11578,return,2.8548809001222253,,,,,,,,,,,,,,,,,915,20,female,left_right_width,2024-10-23_11h41.55.247,exp1,2023.1.0,59.89390395343217,
,,,,,,,,,,,,,,,,5,8.2,9.1,10,10.9,11.8,0.9,0.35,0.55,4.15,10,initial,36.05,296,328,361,393,425,9,9,9,9,9,,,,,,,4,0,4,0,0,1,1,21,,,,,,,,,,,,num_5,0.9923872000072151,num_5,0.45,0.6,0.45,1.0,17.19248,38.2055,return,3.3474114001728594,,,,,,,,,,,,,,,,,915,20,female,left_right_width,2024-10-23_11h41.55.247,exp1,2023.1.0,59.89390395343217,
,,,,,,,,,,,,,,,,5,8.2,9.1,10,10.9,11.8,0.9,0.35,0.55,4.15,10,initial,36.05,296,328,361,393,425,9,9,9,9,9,,,,,,,4,0,4,0,0,2,2,52,,,,,,,,,,,,num_4,0.9787640001159161,num_4,0.2,0.4,0.44999999999999996,0.9,17.19248,34.38495,return,2.9833880001679063,,,,,,,,,,,,,,,,,915,20,female,left_right_width,2024-10-23_11h41.55.247,exp1,2023.1.0,59.89390395343217,
,,,,,,,,,,,,,,,,4,8.65,9.55,10.45,11.35,0,0.9,0.35,0.55,3.25,10,initial,36.05,312,344,377,409,0,9,9,9,9,0,,,,,,,4,0,4,0,0,3,3,14,,,,,,,,,,,,num_4,0.9991858000867069,num_4,0.2,1.2,0.6,1.2,22.9233,45.8466,return,2.439390900079161,,,,,,,,,,,,,,,,,915,20,female,left_right_width,2024-10-23_11h41.55.247,exp1,2023.1.0,59.89390395343217,
,,,,,,,,,,,,,,,,4,8.65,9.55,10.45,11.35,0,0.9,0.35,0.55,3.25,10,initial,36.05,312,344,377,409,0,9,9,9,9,0,,,,,,,4,0,4,0,0,4,4,36,,,,,,,,,,,,num_4,1.1011952001135796,num_4,0.2,0.3,0.35,0.8,13.37193,30.5644,return,2.477536699967459,,,,,,,,,,,,,,,,,915,20,female,left_right_width,2024-10-23_11h41.55.247,exp1,2023.1.0,59.89390395343217,
,,,,,,,,,,,,,,,,4,8.65,9.55,10.45,11.35,0,0.9,0.35,0.55,3.25,10,initial,36.05,312,344,377,409,0,9,9,9,9,0,,,,,,,4,0,4,0,0,5,5,12,,,,,,,,,,,,num_3,1.2297084000892937,num_3,0.55,1.1,0.8000000000000003,1.3,30.5644,49.66716,return,2.952858000062406,,,,,,,,,,,,,,,,,915,20,female,left_right_width,2024-10-23_11h41.55.247,exp1,2023.1.0,59.89390395343217,
,,,,,,,,,,,,,,,,5,8.2,9.1,10,10.9,11.8,0.9,0.35,0.55,4.15,10,initial,36.05,296,328,361,393,425,9,9,9,9,9,,,,,,,4,0,4,0,0,6,6,19,,,,,,,,,,,,num_5,1.3045006000902504,num_5,0.35,1.2,0.49999999999999994,0.95,19.10275,36.29523,return,2.54045580024831,,,,,,,,,,,,,,,,,915,20,female,left_right_width,2024-10-23_11h41.55.247,exp1,2023.1.0,59.89390395343217,
,,,,,,,,,,,,,,,,3,9.1,10,10.9,0,0,0.9,0.35,0.55,2.35,10,initial,36.05,328,361,393,0,0,9,9,9,0,0,,,,,,,4,0,4,0,0,7,7,31,,,,,,,,,,,,num_3,1.0609873002395034,num_3,0.4,0.5,0.4,0.8,15.2822,30.5644,return,3.066010600188747,,,,,,,,,,,,,,,,,915,20,female,left_right_width,2024-10-23_11h41.55.247,exp1,2023.1.0,59.89390395343217,
,,,,,,,,,,,,,,,,5,8.2,9.1,10,10.9,11.8,0.9,0.35,0.55,4.15,10,initial,36.05,296,328,361,393,425,9,9,9,9,9,,,,,,,4,0,4,0,0,8,8,53,,,,,,,,,,,,num_4,1.8326468002051115,num_4,0.2,0.6,0.39999999999999997,0.8,15.2822,30.5644,return,2.446855200221762,,,,,,,,,,,,,,,,,915,20,female,left_right_width,2024-10-23_11h41.55.247,exp1,2023.1.0,59.89390395343217,
,,,,,,,,,,,,,,,,4,8.65,9.55,10.45,11.35,0,0.9,0.35,0.55,3.25,10,initial,36.05,312,344,377,409,0,9,9,9,9,0,,,,,,,4,0,4,0,0,9,9,43,,,,,,,,,,,,num_3,1.636653499910608,num_3,0.35,0.6,0.5499999999999999,0.85,21.01303,32.47468,return,3.1326924001332372,,,,,,,,,,,,,,,,,915,20,female,left_right_width,2024-10-23_11h41.55.247,exp1,2023.1.0,59.89390395343217,
,,,,,,,,,,,,,,,,4,8.65,9.55,10.45,11.35,0,0.9,0.35,0.55,3.25,10,initial,36.05,312,344,377,409,0,9,9,9,9,0,,,,,,,4,0,4,0,0,10,10,44,,,,,,,,,,,,num_3,1.4797090000938624,num_3,0.4,1.3,0.5,1.2,19.10275,45.8466,return,2.088666500058025,,,,,,,,,,,,,,,,,915,20,female,left_right_width,2024-10-23_11h41.55.247,exp1,2023.1.0,59.89390395343217,
,,,,,,,,,,,,,,,,4,8.65,9.55,10.45,11.35,0,0.9,0.35,0.55,3.25,10,initial,36.05,312,344,377,409,0,9,9,9,9,0,,,,,,,4,0,4,0,0,11,11,16,,,,,,,,,,,,num_3,1.1152015002444386,num_3,0.4,0.8,0.4,0.9,15.2822,34.38495,return,2.523305900162086,,,,,,,,,,,,,,,,,915,20,female,left_right_width,2024-10-23_11h41.55.247,exp1,2023.1.0,59.89390395343217,
,,,,,,,,,,,,,,,,4,8.65,9.55,10.45,11.35,0,0.9,0.35,0.55,3.25,10,initial,36.05,312,344,377,409,0,9,9,9,9,0,,,,,,,4,0,4,0,0,12,12,17,,,,,,,,,,,,num_4,0.9696094000246376,num_4,0.5,1.0,0.35000000000000003,0.8,13.37193,30.5644,return,2.781695900252089,,,,,,,,,,,,,,,,,915,20,female,left_right_width,2024-10-23_11h41.55.247,exp1,2023.1.0,59.89390395343217,
,,,,,,,,,,,,,,,,5,8.2,9.1,10,10.9,11.8,0.9,0.35,0.55,4.15,10,initial,36.05,296,328,361,393,425,9,9,9,9,9,,,,,,,4,0,4,0,0,13,13,23,,,,,,,,,,,,num_5,1.4016202001366764,num_5,0.3,0.7,0.39999999999999997,0.8,15.2822,30.5644,return,3.000348700210452,,,,,,,,,,,,,,,,,915,20,female,left_right_width,2024-10-23_11h41.55.247,exp1,2023.1.0,59.89390395343217,
,,,,,,,,,,,,,,,,3,9.1,10,10.9,0,0,0.9,0.35,0.55,2.35,10,initial,36.05,328,361,393,0,0,9,9,9,0,0,,,,,,,4,0,4,0,0,14,14,3,,,,,,,,,,,,num_2,1.0396635001525283,num_2,0.45,1.4,0.45,1.0,17.19248,38.2055,return,2.000680300174281,,,,,,,,,,,,,,,,,915,20,female,left_right_width,2024-10-23_11h41.55.247,exp1,2023.1.0,59.89390395343217,
,,,,,,,,,,,,,,,,3,9.1,10,10.9,0,0,0.9,0.35,0.55,2.35,10,initial,36.05,328,361,393,0,0,9,9,9,0,0,,,,,,,4,0,4,0,0,15,15,7,,,,,,,,,,,,num_3,1.0242600000929087,num_3,0.35,1.1,0.49999999999999994,0.85,19.10275,32.47468,return,2.6587336002849042,,,,,,,,,,,,,,,,,915,20,female,left_right_width,2024-10-23_11h41.55.247,exp1,2023.1.0,59.89390395343217,
,,,,,,,,,,,,,,,,5,8.2,9.1,10,10.9,11.8,0.9,0.35,0.55,4.15,10,initial,36.05,296,328,361,393,425,9,9,9,9,9,,,,,,,4,0,4,0,0,16,16,49,,,,,,,,,,,,num_2,1.2259828001260757,num_2,0.3,0.4,0.3,0.4,11.46165,15.2822,return,6.2744605001062155,,,,,,,,,,,,,,,,,915,20,female,left_right_width,2024-10-23_11h41.55.247,exp1,2023.1.0,59.89390395343217,
,,,,,,,,,,,,,,,,3,9.1,10,10.9,0,0,0.9,0.35,0.55,2.35,10,initial,36.05,328,361,393,0,0,9,9,9,0,0,,,,,,,4,0,4,0,0,17,17,5,,,,,,,,,,,,num_3,1.5345572002697736,num_3,0.45,1,0.55,0.95,21.01303,36.29523,return,1.5790701999794692,,,,,,,,,,,,,,,,,915,20,female,left_right_width,2024-10-23_11h41.55.247,exp1,2023.1.0,59.89390395343217,
,,,,,,,,,,,,,,,,3,9.1,10,10.9,0,0,0.9,0.35,0.55,2.35,10,initial,36.05,328,361,393,0,0,9,9,9,0,0,,,,,,,4,0,4,0,0,18,18,4,,,,,,,,,,,,num_3,3.325686100171879,num_3,0.55,0.7,0.35000000000000003,0.7,13.37193,26.74385,return,4.245418100152165,,,,,,,,,,,,,,,,,915,20,female,left_right_width,2024-10-23_11h41.55.247,exp1,2023.1.0,59.89390395343217,
,,,,,,,,,,,,,,,,3,9.1,10,10.9,0,0,0.9,0.35,0.55,2.35,10,initial,36.05,328,361,393,0,0,9,9,9,0,0,,,,,,,4,0,4,0,0,19,19,35,,,,,,,,,,,,num_3,1.0660849001724273,num_3,0.4,0.7,0.55,0.9,21.01303,34.38495,return,5.871548100141808,,,,,,,,,,,,,,,,,915,20,female,left_right_width,2024-10-23_11h41.55.247,exp1,2023.1.0,59.89390395343217,
,,,,,,,,,,,,,,,,5,8.2,9.1,10,10.9,11.8,0.9,0.35,0.55,4.15,10,initial,36.05,296,328,361,393,425,9,9,9,9,9,,,,,,,4,0,4,0,0,20,20,25,,,,,,,,,,,,num_5,0.852070800261572,num_5,0.5,1.2,0.6500000000000001,1.35,24.83358,51.57743,return,2.9627014002762735,,,,,,,,,,,,,,,,,915,20,female,left_right_width,2024-10-23_11h41.55.247,exp1,2023.1.0,59.89390395343217,
,,,,,,,,,,,,,,,,3,9.1,10,10.9,0,0,0.9,0.35,0.55,2.35,10,initial,36.05,328,361,393,0,0,9,9,9,0,0,,,,,,,4,0,4,0,0,21,21,8,,,,,,,,,,,,num_2,1.1571176000870764,num_2,0.25,1.2,0.6,1.2,22.9233,45.8466,return,2.6549374002497643,,,,,,,,,,,,,,,,,915,20,female,left_right_width,2024-10-23_11h41.55.247,exp1,2023.1.0,59.89390395343217,
,,,,,,,,,,,,,,,,4,8.65,9.55,10.45,11.35,0,0.9,0.35,0.55,3.25,10,initial,36.05,312,344,377,409,0,9,9,9,9,0,,,,,,,4,0,4,0,0,22,22,41,,,,,,,,,,,,num_3,1.0160326003096998,num_3,0.35,1.2,0.65,1.15,24.83358,43.93633,return,4.00826230016537,,,,,,,,,,,,,,,,,915,20,female,left_right_width,2024-10-23_11h41.55.247,exp1,2023.1.0,59.89390395343217,
,,,,,,,,,,,,,,,,3,9.1,10,10.9,0,0,0.9,0.35,0.55,2.35,10,initial,36.05,328,361,393,0,0,9,9,9,0,0,,,,,,,4,0,4,0,0,23,23,32,,,,,,,,,,,,num_2,0.8360615002457052,num_2,0.4,1.2,0.6000000000000001,1.3,22.9233,49.66716,return,1.966144700301811,,,,,,,,,,,,,,,,,915,20,female,left_right_width,2024-10-23_11h41.55.247,exp1,2023.1.0,59.89390395343217,
,,,,,,,,,,,,,,,,3,9.1,10,10.9,0,0,0.9,0.35,0.55,2.35,10,initial,36.05,328,361,393,0,0,9,9,9,0,0,,,,,,,4,0,4,0,0,24,24,27,,,,,,,,,,,,num_3,1.0144290002062917,num_3,0.4,0.6,0.6500000000000001,0.95,24.83358,36.29523,return,2.9029942001216114,,,,,,,,,,,,,,,,,915,20,female,left_right_width,2024-10-23_11h41.55.247,exp1,2023.1.0,59.89390395343217,
,,,,,,,,,,,,,,,,5,8.2,9.1,10,10.9,11.8,0.9,0.35,0.55,4.15,10,initial,36.05,296,328,361,393,425,9,9,9,9,9,,,,,,,4,0,4,0,0,25,25,22,,,,,,,,,,,,num_5,0.9779755999334157,num_5,0.3,1.0,0.5499999999999999,1.2,21.01303,45.8466,return,2.7616715002804995,,,,,,,,,,,,,,,,,915,20,female,left_right_width,2024-10-23_11h41.55.247,exp1,2023.1.0,59.89390395343217,
,,,,,,,,,,,,,,,,5,8.2,9.1,10,10.9,11.8,0.9,0.35,0.55,4.15,10,initial,36.05,296,328,361,393,425,9,9,9,9,9,,,,,,,4,0,4,0,0,26,26,50,,,,,,,,,,,,num_5,1.6464388000313193,num_5,0.25,0.8,0.39999999999999997,0.9,15.2822,34.38495,return,1.799381700111553,,,,,,,,,,,,,,,,,915,20,female,left_right_width,2024-10-23_11h41.55.247,exp1,2023.1.0,59.89390395343217,
,,,,,,,,,,,,,,,,4,8.65,9.55,10.45,11.35,0,0.9,0.35,0.55,3.25,10,initial,36.05,312,344,377,409,0,9,9,9,9,0,,,,,,,4,0,4,0,0,27,27,10,,,,,,,,,,,,num_4,0.901804800145328,num_4,0.45,1.2,0.55,1.3,21.01303,49.66716,return,1.9360402999445796,,,,,,,,,,,,,,,,,915,20,female,left_right_width,2024-10-23_11h41.55.247,exp1,2023.1.0,59.89390395343217,
,,,,,,,,,,,,,,,,3,9.1,10,10.9,0,0,0.9,0.35,0.55,2.35,10,initial,36.05,328,361,393,0,0,9,9,9,0,0,,,,,,,4,0,4,0,0,28,28,34,,,,,,,,,,,,num_2,1.1810339000076056,num_2,0.3,0.8,0.44999999999999996,1.0,17.19248,38.2055,return,1.81499610026367,,,,,,,,,,,,,,,,,915,20,female,left_right_width,2024-10-23_11h41.55.247,exp1,2023.1.0,59.89390395343217,
,,,,,,,,,,,,,,,,4,8.65,9.55,10.45,11.35,0,0.9,0.35,0.55,3.25,10,initial,36.05,312,344,377,409,0,9,9,9,9,0,,,,,,,4,0,4,0,0,29,29,42,,,,,,,,,,,,num_3,1.6687012002803385,num_3,0.25,0.3,0.49999999999999994,0.8,19.10275,30.5644,return,4.137478600023314,,,,,,,,,,,,,,,,,915,20,female,left_right_width,2024-10-23_11h41.55.247,exp1,2023.1.0,59.89390395343217,
,,,,,,,,,,,,,,,,5,8.2,9.1,10,10.9,11.8,0.9,0.35,0.55,4.15,10,initial,36.05,296,328,361,393,425,9,9,9,9,9,,,,,,,4,0,4,0,0,30,30,24,,,,,,,,,,,,num_4,1.7730927001684904,num_4,0.2,1.1,0.49999999999999994,1.0,19.10275,38.2055,return,3.5882715000770986,,,,,,,,,,,,,,,,,915,20,female,left_right_width,2024-10-23_11h41.55.247,exp1,2023.1.0,59.89390395343217,
,,,,,,,,,,,,,,,,4,8.65,9.55,10.45,11.35,0,0.9,0.35,0.55,3.25,10,initial,36.05,312,344,377,409,0,9,9,9,9,0,,,,,,,4,0,4,0,0,31,31,40,,,,,,,,,,,,num_3,1.1818818000610918,num_3,0.35,0.4,0.44999999999999996,0.95,17.19248,36.29523,return,3.4463150000665337,,,,,,,,,,,,,,,,,915,20,female,left_right_width,2024-10-23_11h41.55.247,exp1,2023.1.0,59.89390395343217,
,,,,,,,,,,,,,,,,4,8.65,9.55,10.45,11.35,0,0.9,0.35,0.55,3.25,10,initial,36.05,312,344,377,409,0,9,9,9,9,0,,,,,,,4,0,4,0,0,32,32,11,,,,,,,,,,,,num_4,1.1151977002155036,num_4,0.55,1.3,0.5,1.2,19.10275,45.8466,return,4.014339399989694,,,,,,,,,,,,,,,,,915,20,female,left_right_width,2024-10-23_11h41.55.247,exp1,2023.1.0,59.89390395343217,
,,,,,,,,,,,,,,,,5,8.2,9.1,10,10.9,11.8,0.9,0.35,0.55,4.15,10,initial,36.05,296,328,361,393,425,9,9,9,9,9,,,,,,,4,0,4,0,0,33,33,46,,,,,,,,,,,,num_5,0.9495176000054926,num_5,0.4,1.3,0.4,0.95,15.2822,36.29523,return,1.9168202001601458,,,,,,,,,,,,,,,,,915,20,female,left_right_width,2024-10-23_11h41.55.247,exp1,2023.1.0,59.89390395343217,
,,,,,,,,,,,,,,,,5,8.2,9.1,10,10.9,11.8,0.9,0.35,0.55,4.15,10,initial,36.05,296,328,361,393,425,9,9,9,9,9,,,,,,,4,0,4,0,0,34,34,51,,,,,,,,,,,,num_5,0.9496091001201421,num_5,0.2,1.2,0.44999999999999996,0.9,17.19248,34.38495,return,3.1508417001459748,,,,,,,,,,,,,,,,,915,20,female,left_right_width,2024-10-23_11h41.55.247,exp1,2023.1.0,59.89390395343217,
,,,,,,,,,,,,,,,,3,9.1,10,10.9,0,0,0.9,0.35,0.55,2.35,10,initial,36.05,328,361,393,0,0,9,9,9,0,0,,,,,,,4,0,4,0,0,35,35,30,,,,,,,,,,,,num_3,1.2428792002610862,num_3,0.35,0.8,0.49999999999999994,1.0,19.10275,38.2055,return,2.0722443002741784,,,,,,,,,,,,,,,,,915,20,female,left_right_width,2024-10-23_11h41.55.247,exp1,2023.1.0,59.89390395343217,
,,,,,,,,,,,,,,,,4,8.65,9.55,10.45,11.35,0,0.9,0.35,0.55,3.25,10,initial,36.05,312,344,377,409,0,9,9,9,9,0,,,,,,,4,0,4,0,0,36,36,13,,,,,,,,,,,,num_3,1.3016538000665605,num_3,0.4,0.5,0.45,1.1,17.19248,42.02605,return,3.1629441000986844,,,,,,,,,,,,,,,,,915,20,female,left_right_width,2024-10-23_11h41.55.247,exp1,2023.1.0,59.89390395343217,
,,,,,,,,,,,,,,,,3,9.1,10,10.9,0,0,0.9,0.35,0.55,2.35,10,initial,36.05,328,361,393,0,0,9,9,9,0,0,,,,,,,4,0,4,0,0,37,37,29,,,,,,,,,,,,num_2,1.0394959999248385,num_2,0.3,1.0,0.44999999999999996,1.1,17.19248,42.02605,return,1.6609276002272964,,,,,,,,,,,,,,,,,915,20,female,left_right_width,2024-10-23_11h41.55.247,exp1,2023.1.0,59.89390395343217,
,,,,,,,,,,,,,,,,4,8.65,9.55,10.45,11.35,0,0.9,0.35,0.55,3.25,10,initial,36.05,312,344,377,409,0,9,9,9,9,0,,,,,,,4,0,4,0,0,38,38,9,,,,,,,,,,,,num_4,0.9799828003160655,num_4,0.55,1.2,0.4,0.7,15.2822,26.74385,return,2.3736775000579655,,,,,,,,,,,,,,,,,915,20,female,left_right_width,2024-10-23_11h41.55.247,exp1,2023.1.0,59.89390395343217,
,,,,,,,,,,,,,,,,4,8.65,9.55,10.45,11.35,0,0.9,0.35,0.55,3.25,10,initial,36.05,312,344,377,409,0,9,9,9,9,0,,,,,,,4,0,4,0,0,39,39,39,,,,,,,,,,,,num_4,1.0602984002325684,num_4,0.5,1.1,0.35000000000000003,0.7,13.37193,26.74385,return,2.1474115001037717,,,,,,,,,,,,,,,,,915,20,female,left_right_width,2024-10-23_11h41.55.247,exp1,2023.1.0,59.89390395343217,
,,,,,,,,,,,,,,,,5,8.2,9.1,10,10.9,11.8,0.9,0.35,0.55,4.15,10,initial,36.05,296,328,361,393,425,9,9,9,9,9,,,,,,,4,0,4,0,0,40,40,26,,,,,,,,,,,,num_5,0.8760167001746595,num_5,0.3,0.7,0.39999999999999997,0.7,15.2822,26.74385,return,2.0336669001262635,,,,,,,,,,,,,,,,,915,20,female,left_right_width,2024-10-23_11h41.55.247,exp1,2023.1.0,59.89390395343217,
,,,,,,,,,,,,,,,,5,8.2,9.1,10,10.9,11.8,0.9,0.35,0.55,4.15,10,initial,36.05,296,328,361,393,425,9,9,9,9,9,,,,,,,4,0,4,0,0,41,41,47,,,,,,,,,,,,num_5,1.1608887000475079,num_5,0.2,1.3,0.49999999999999994,0.95,19.10275,36.29523,return,3.529498300049454,,,,,,,,,,,,,,,,,915,20,female,left_right_width,2024-10-23_11h41.55.247,exp1,2023.1.0,59.89390395343217,
,,,,,,,,,,,,,,,,3,9.1,10,10.9,0,0,0.9,0.35,0.55,2.35,10,initial,36.05,328,361,393,0,0,9,9,9,0,0,,,,,,,4,0,4,0,0,42,42,28,,,,,,,,,,,,num_2,0.98212830000557,num_2,0.2,0.4,0.5499999999999999,0.9,21.01303,34.38495,return,3.628961000125855,,,,,,,,,,,,,,,,,915,20,female,left_right_width,2024-10-23_11h41.55.247,exp1,2023.1.0,59.89390395343217,
,,,,,,,,,,,,,,,,3,9.1,10,10.9,0,0,0.9,0.35,0.55,2.35,10,initial,36.05,328,361,393,0,0,9,9,9,0,0,,,,,,,4,0,4,0,0,43,43,1,,,,,,,,,,,,num_2,1.2097042000386864,num_2,0.25,1.2,0.49999999999999994,1.1,19.10275,42.02605,return,2.8197738002054393,,,,,,,,,,,,,,,,,915,20,female,left_right_width,2024-10-23_11h41.55.247,exp1,2023.1.0,59.89390395343217,
,,,,,,,,,,,,,,,,4,8.65,9.55,10.45,11.35,0,0.9,0.35,0.55,3.25,10,initial,36.05,312,344,377,409,0,9,9,9,9,0,,,,,,,4,0,4,0,0,44,44,37,,,,,,,,,,,,num_3,1.1246976000256836,num_3,0.5,0.6,0.6500000000000001,1.0,24.83358,38.2055,return,3.60434120032005,,,,,,,,,,,,,,,,,915,20,female,left_right_width,2024-10-23_11h41.55.247,exp1,2023.1.0,59.89390395343217,
,,,,,,,,,,,,,,,,3,9.1,10,10.9,0,0,0.9,0.35,0.55,2.35,10,initial,36.05,328,361,393,0,0,9,9,9,0,0,,,,,,,4,0,4,0,0,45,45,6,,,,,,,,,,,,num_2,0.9956988000776619,num_2,0.5,1.6,0.6000000000000001,1.1,22.9233,42.02605,return,2.4374800000805408,,,,,,,,,,,,,,,,,915,20,female,left_right_width,2024-10-23_11h41.55.247,exp1,2023.1.0,59.89390395343217,
,,,,,,,,,,,,,,,,4,8.65,9.55,10.45,11.35,0,0.9,0.35,0.55,3.25,10,initial,36.05,312,344,377,409,0,9,9,9,9,0,,,,,,,4,0,4,0,0,46,46,38,,,,,,,,,,,,num_3,0.9763809002470225,num_3,0.2,0.8,0.5499999999999999,0.8,21.01303,30.5644,return,2.292864400194958,,,,,,,,,,,,,,,,,915,20,female,left_right_width,2024-10-23_11h41.55.247,exp1,2023.1.0,59.89390395343217,
,,,,,,,,,,,,,,,,4,8.65,9.55,10.45,11.35,0,0.9,0.35,0.55,3.25,10,initial,36.05,312,344,377,409,0,9,9,9,9,0,,,,,,,4,0,4,0,0,47,47,15,,,,,,,,,,,,num_3,0.9178798000793904,num_3,0.25,0.3,0.6,0.8,22.9233,30.5644,return,4.682119300123304,,,,,,,,,,,,,,,,,915,20,female,left_right_width,2024-10-23_11h41.55.247,exp1,2023.1.0,59.89390395343217,
,,,,,,,,,,,,,,,,5,8.2,9.1,10,10.9,11.8,0.9,0.35,0.55,4.15,10,initial,36.05,296,328,361,393,425,9,9,9,9,9,,,,,,,4,0,4,0,0,48,48,18,,,,,,,,,,,,num_4,1.0992731002625078,num_4,0.2,0.9,0.6,0.9,22.9233,34.38495,return,4.187029300024733,,,,,,,,,,,,,,,,,915,20,female,left_right_width,2024-10-23_11h41.55.247,exp1,2023.1.0,59.89390395343217,
,,,,,,,,,,,,,,,,3,9.1,10,10.9,0,0,0.9,0.35,0.55,2.35,10,initial,36.05,328,361,393,0,0,9,9,9,0,0,,,,,,,4,0,4,0,0,49,49,0,,,,,,,,,,,,num_3,1.0561371000949293,num_3,0.2,0.3,0.44999999999999996,0.7,17.19248,26.74385,return,4.145557600073516,,,,,,,,,,,,,,,,,915,20,female,left_right_width,2024-10-23_11h41.55.247,exp1,2023.1.0,59.89390395343217,
,,,,,,,,,,,,,,,,3,9.1,10,10.9,0,0,0.9,0.35,0.55,2.35,10,initial,36.05,328,361,393,0,0,9,9,9,0,0,,,,,,,4,0,4,0,0,50,50,2,,,,,,,,,,,,num_3,0.8399829999543726,num_3,0.3,1,0.6,1.05,22.9233,40.11578,return,1.9261568000074476,,,,,,,,,,,,,,,,,915,20,female,left_right_width,2024-10-23_11h41.55.247,exp1,2023.1.0,59.89390395343217,
,,,,,,,,,,,,,,,,5,8.2,9.1,10,10.9,11.8,0.9,0.35,0.55,4.15,10,initial,36.05,296,328,361,393,425,9,9,9,9,9,,,,,,,4,0,4,0,0,51,51,45,,,,,,,,,,,,num_4,1.044947000220418,num_4,0.55,1.3,0.6000000000000001,0.9,22.9233,34.38495,return,2.275461700046435,,,,,,,,,,,,,,,,,915,20,female,left_right_width,2024-10-23_11h41.55.247,exp1,2023.1.0,59.89390395343217,
,,,,,,,,,,,,,,,,5,8.2,9.1,10,10.9,11.8,0.9,0.35,0.55,4.15,10,initial,36.05,296,328,361,393,425,9,9,9,9,9,,,,,,,4,0,4,0,0,52,52,48,,,,,,,,,,,,num_4,0.9351099000778049,num_4,0.3,0.6,0.44999999999999996,0.9,17.19248,34.38495,return,1.5941753000952303,,,,,,,,,,,,,,,,,915,20,female,left_right_width,2024-10-23_11h41.55.247,exp1,2023.1.0,59.89390395343217,
,,,,,,,,,,,,,,,,3,9.1,10,10.9,0,0,0.9,0.35,0.55,2.35,10,initial,36.05,328,361,393,0,0,9,9,9,0,0,,,,,,,4,0,4,0,0,53,53,33,,,,,,,,,,,,num_2,0.9311722002457827,num_2,0.45,0.8,0.6500000000000001,1.0,24.83358,38.2055,return,2.1246025001164526,,,,,,,,,,,,,,,,,915,20,female,left_right_width,2024-10-23_11h41.55.247,exp1,2023.1.0,59.89390395343217,
,,,,,,,,,,,,,,,,,,,,,,,,,,,,,,,,,,,,,,,,,,,,,4,0,4,0,,,,,,,,,,,,,,,,,,,,,,,,,,,,,2700.2705198000185,2700.2705198000185,2700.2705198000185,,,,,,,,,,,,915,20,female,left_right_width,2024-10-23_11h41.55.247,exp1,2023.1.0,59.89390395343217,
,,,,,,,,,,,,,,,,5,9,9.5,10,10.5,11,0.5,0.25,0.25,2.25,10,initial,36.05,324,342,361,379,397,9,9,9,9,9,,,,,,,5,0,5,0,0,0,0,25,,,,,,,,,,,,num_4,1.2659074000548571,num_4,0.2,1.0,0.2,0.5,7.6411,19.10275,return,1.6928404001519084,,,,,,,,,,,,,,,,,915,20,female,left_right_width,2024-10-23_11h41.55.247,exp1,2023.1.0,59.89390395343217,
,,,,,,,,,,,,,,,,3,9.5,10,10.5,0,0,0.5,0.25,0.25,1.25,10,initial,36.05,342,361,379,0,0,9,9,9,0,0,,,,,,,5,0,5,0,0,1,1,3,,,,,,,,,,,,num_2,1.1474645000416785,num_2,0.45,1.0,0.20000000000000007,0.6,7.6411,22.9233,return,3.0004514001775533,,,,,,,,,,,,,,,,,915,20,female,left_right_width,2024-10-23_11h41.55.247,exp1,2023.1.0,59.89390395343217,
,,,,,,,,,,,,,,,,5,9,9.5,10,10.5,11,0.5,0.25,0.25,2.25,10,initial,36.05,324,342,361,379,397,9,9,9,9,9,,,,,,,5,0,5,0,0,2,2,53,,,,,,,,,,,,num_5,1.0525881003122777,num_5,0.2,0.4,0.15000000000000002,0.4,5.73083,15.2822,return,3.761980599956587,,,,,,,,,,,,,,,,,915,20,female,left_right_width,2024-10-23_11h41.55.247,exp1,2023.1.0,59.89390395343217,
,,,,,,,,,,,,,,,,3,9.5,10,10.5,0,0,0.5,0.25,0.25,1.25,10,initial,36.05,342,361,379,0,0,9,9,9,0,0,,,,,,,5,0,5,0,0,3,3,33,,,,,,,,,,,,num_3,1.1759146000258625,num_3,0.35,0.7,0.2,0.65,7.6411,24.83358,return,2.7042748001404107,,,,,,,,,,,,,,,,,915,20,female,left_right_width,2024-10-23_11h41.55.247,exp1,2023.1.0,59.89390395343217,
,,,,,,,,,,,,,,,,5,9,9.5,10,10.5,11,0.5,0.25,0.25,2.25,10,initial,36.05,324,342,361,379,397,9,9,9,9,9,,,,,,,5,0,5,0,0,4,4,51,,,,,,,,,,,,num_5,0.9256474999710917,num_5,0.25,0.8,0.15000000000000002,0.45,5.73083,17.19248,return,2.8213410002645105,,,,,,,,,,,,,,,,,915,20,female,left_right_width,2024-10-23_11h41.55.247,exp1,2023.1.0,59.89390395343217,
,,,,,,,,,,,,,,,,4,9.25,9.75,10.25,10.75,0,0.5,0.25,0.25,1.75,10,initial,36.05,333,351,370,388,0,9,9,9,9,0,,,,,,,5,0,5,0,0,5,5,10,,,,,,,,,,,,num_4,0.8353532000910491,num_4,0.55,1.0,0.20000000000000007,0.5,7.6411,19.10275,return,3.386501200031489,,,,,,,,,,,,,,,,,915,20,female,left_right_width,2024-10-23_11h41.55.247,exp1,2023.1.0,59.89390395343217,
,,,,,,,,,,,,,,,,4,9.25,9.75,10.25,10.75,0,0.5,0.25,0.25,1.75,10,initial,36.05,333,351,370,388,0,9,9,9,9,0,,,,,,,5,0,5,0,0,6,6,37,,,,,,,,,,,,num_4,1.0015744999982417,num_4,0.55,0.6,0.20000000000000007,0.4,7.6411,15.2822,return,5.548714300151914,,,,,,,,,,,,,,,,,915,20,female,left_right_width,2024-10-23_11h41.55.247,exp1,2023.1.0,59.89390395343217,
,,,,,,,,,,,,,,,,3,9.5,10,10.5,0,0,0.5,0.25,0.25,1.25,10,initial,36.05,342,361,379,0,0,9,9,9,0,0,,,,,,,5,0,5,0,0,7,7,32,,,,,,,,,,,,num_3,1.1468223000410944,num_3,0.25,0.8,0.10000000000000002,0.5,3.82055,19.10275,return,3.718527300050482,,,,,,,,,,,,,,,,,915,20,female,left_right_width,2024-10-23_11h41.55.247,exp1,2023.1.0,59.89390395343217,
