amount_p,posx1_p,posx2_p,posx3_p,posx4_p,posx5_p,center_to_center_p,edge_to_edge_p,w_p,stim_length_p,eccentricity_p,line1_p,line2_p,line3_p,line4_p,line5_p,amount,posx1,posx2,posx3,posx4,posx5,center_to_center,edge_to_edge,w,stim_length,eccentricity,trial_type,deg_to_pix_index,posx1_in_pix,posx2_in_pix,posx3_in_pix,posx4_in_pix,posx5_in_pix,line1,line2,line3,line4,line5,posx,setsize_cobdi,trials.thisRepN,trials.thisTrialN,trials.thisN,trials.thisIndex,blocks.thisRepN,blocks.thisTrialN,blocks.thisN,blocks.thisIndex,loop.thisRepN,loop.thisTrialN,loop.thisN,loop.thisIndex,first.thisRepN,first.thisTrialN,first.thisN,first.thisIndex,second.thisRepN,second.thisTrialN,second.thisN,second.thisIndex,key_resp_3.started,key_resp_3.keys,key_resp_3.rt,key_resp.keys,key_resp.rt,response,starting_width_deg,starting_space_deg,response_width_degree,response_spacing_degree,response_width_pixel,response_spacing_pixel,next_5.keys,next_5.rt,key_resp_4.keys,key_resp_4.rt,text_3.started,text_4.started,key_resp_2.started,text_2.started,key_resp_2.keys,key_resp_2.rt,adjusting.started,next.keys,next.rt,text_control2.started,key_resp.started,key_resp.corr,text_bye.started,text_bye.stopped,participant,age,gender,resp_group,date,expName,psychopyVersion,frameRate,
,,,,,,,,,,,,,,,,,,,,,,,,,,,,,,,,,,,,,,,,,,,,,,,,,,,,,,,,,,,,,29.01714610005729,c,312.71019150014035,,,,,,,,,,,,,,,,,,,,,,,,,,,,919,20,female,left_right_width,2024-10-31_11h35.29.004,exp1,2023.1.0,59.9994479449969,
4,9.25,9.75,10.25,10.75,0,0.5,0.25,0.25,1.75,10,9,9,9,9,0,,,,,,,,,,,,,,,,,,,,,,,,,,0,0,0,1,,,,,,,,,,,,,,,,,,,,num_4,1.4901879001408815,num_4,0.45,0.9,0.20000000000000007,0.9,7.6411,34.38495,return,6.812886900035664,,,,,,,,,,,,,,,,,919,20,female,left_right_width,2024-10-31_11h35.29.004,exp1,2023.1.0,59.9994479449969,
4,9.25,9.75,10.25,10.75,0,0.5,0.1,0.4,1.9000000000000001,10,9,9,9,9,0,,,,,,,,,,,,,,,,,,,,,,,,,,0,1,1,4,,,,,,,,,,,,,,,,,,,,num_4,1.1867426000535488,num_4,0.2,1.2,0.44999999999999996,1.2,17.19248,45.8466,return,2.2562057999894023,,,,,,,,,,,,,,,,,919,20,female,left_right_width,2024-10-31_11h35.29.004,exp1,2023.1.0,59.9994479449969,
5,8.2,9.1,10,10.9,11.8,0.9,0.35,0.55,4.15,10,9,9,9,9,9,,,,,,,,,,,,,,,,,,,,,,,,,,0,2,2,2,,,,,,,,,,,,,,,,,,,,num_4,1.0107877999544144,num_4,0.4,0.5,0.5,0.7,19.10275,26.74385,return,5.140246800146997,,,,,,,,,,,,,,,,,919,20,female,left_right_width,2024-10-31_11h35.29.004,exp1,2023.1.0,59.9994479449969,
3,9.5,10,10.5,0,0,0.5,0.25,0.25,1.25,10,9,9,9,0,0,,,,,,,,,,,,,,,,,,,,,,,,,,0,3,3,0,,,,,,,,,,,,,,,,,,,,num_3,1.807937600184232,num_3,0.3,1,0.3,0.7,11.46165,26.74385,return,5.698634000029415,,,,,,,,,,,,,,,,,919,20,female,left_right_width,2024-10-31_11h35.29.004,exp1,2023.1.0,59.9994479449969,
5,9,9.5,10,10.5,11,0.5,0.1,0.4,2.4,10,9,9,9,9,9,,,,,,,,,,,,,,,,,,,,,,,,,,0,4,4,5,,,,,,,,,,,,,,,,,,,,num_4,1.2535929002333432,num_4,0.45,1.3,0.30000000000000004,0.5,11.46165,19.10275,return,6.514284499920905,,,,,,,,,,,,,,,,,919,20,female,left_right_width,2024-10-31_11h35.29.004,exp1,2023.1.0,59.9994479449969,
3,9.1,10,10.9,0,0,0.9,0.35,0.55,2.35,10,9,9,9,0,0,,,,,,,,,,,,,,,,,,,,,,,,,,0,5,5,3,,,,,,,,,,,,,,,,,,,,num_4,0.9230945000890642,num_4,0.25,0.9,0.49999999999999994,0.7,19.10275,26.74385,return,2.5492249999661,,,,,,,,,,,,,,,,,919,20,female,left_right_width,2024-10-31_11h35.29.004,exp1,2023.1.0,59.9994479449969,
,,,,,,,,,,,,,,,,,,,,,,,,,,,,,,,,,,,,,,,,,,,,,,,,,,,,,,,,,,,,,,,,,,,,,,,,,,,c,73.63029680005275,,,,,,,,,,,,,,,919,20,female,left_right_width,2024-10-31_11h35.29.004,exp1,2023.1.0,59.9994479449969,
,,,,,,,,,,,,,,,,4,9.25,9.75,10.25,10.75,0,0.5,0.25,0.25,1.75,10,initial,36.05,333,351,370,388,0,9,9,9,9,0,,,,,,,0,0,0,0,0,0,0,11,,,,,,,,,,,,num_4,0.9683661002200097,num_4,0.4,0.7,0.30000000000000004,0.6,11.46165,22.9233,return,3.5038169003091753,,,,,,,,,,,,,,,,,919,20,female,left_right_width,2024-10-31_11h35.29.004,exp1,2023.1.0,59.9994479449969,
,,,,,,,,,,,,,,,,3,9.5,10,10.5,0,0,0.5,0.25,0.25,1.25,10,initial,36.05,342,361,379,0,0,9,9,9,0,0,,,,,,,0,0,0,0,0,1,1,30,,,,,,,,,,,,num_3,1.580237400252372,num_3,0.3,0.7,0.3,0.65,11.46165,24.83358,return,5.244347400031984,,,,,,,,,,,,,,,,,919,20,female,left_right_width,2024-10-31_11h35.29.004,exp1,2023.1.0,59.9994479449969,
,,,,,,,,,,,,,,,,5,9,9.5,10,10.5,11,0.5,0.25,0.25,2.25,10,initial,36.05,324,342,361,379,397,9,9,9,9,9,,,,,,,0,0,0,0,0,2,2,23,,,,,,,,,,,,num_4,1.160647800192237,num_4,0.2,0.5,0.2,0.5,7.6411,19.10275,return,1.3029058000538498,,,,,,,,,,,,,,,,,919,20,female,left_right_width,2024-10-31_11h35.29.004,exp1,2023.1.0,59.9994479449969,
,,,,,,,,,,,,,,,,3,9.5,10,10.5,0,0,0.5,0.25,0.25,1.25,10,initial,36.05,342,361,379,0,0,9,9,9,0,0,,,,,,,0,0,0,0,0,3,3,27,,,,,,,,,,,,num_3,0.9935407000593841,num_3,0.3,1,0.3,0.65,11.46165,24.83358,return,3.503221800085157,,,,,,,,,,,,,,,,,919,20,female,left_right_width,2024-10-31_11h35.29.004,exp1,2023.1.0,59.9994479449969,
,,,,,,,,,,,,,,,,5,9,9.5,10,10.5,11,0.5,0.25,0.25,2.25,10,initial,36.05,324,342,361,379,397,9,9,9,9,9,,,,,,,0,0,0,0,0,4,4,19,,,,,,,,,,,,num_4,1.129085100023076,num_4,0.25,0.8,0.2,0.6,7.6411,22.9233,return,3.9952605001162738,,,,,,,,,,,,,,,,,919,20,female,left_right_width,2024-10-31_11h35.29.004,exp1,2023.1.0,59.9994479449969,
,,,,,,,,,,,,,,,,5,9,9.5,10,10.5,11,0.5,0.25,0.25,2.25,10,initial,36.05,324,342,361,379,397,9,9,9,9,9,,,,,,,0,0,0,0,0,5,5,52,,,,,,,,,,,,num_5,1.2414103001356125,num_5,0.5,0.7,0.20000000000000007,0.45,7.6411,17.19248,return,4.225662900134921,,,,,,,,,,,,,,,,,919,20,female,left_right_width,2024-10-31_11h35.29.004,exp1,2023.1.0,59.9994479449969,
,,,,,,,,,,,,,,,,5,9,9.5,10,10.5,11,0.5,0.25,0.25,2.25,10,initial,36.05,324,342,361,379,397,9,9,9,9,9,,,,,,,0,0,0,0,0,6,6,49,,,,,,,,,,,,num_5,1.2102396001573652,num_5,0.3,0.5,0.25,0.5,9.55138,19.10275,return,1.5572973999660462,,,,,,,,,,,,,,,,,919,20,female,left_right_width,2024-10-31_11h35.29.004,exp1,2023.1.0,59.9994479449969,
,,,,,,,,,,,,,,,,5,9,9.5,10,10.5,11,0.5,0.25,0.25,2.25,10,initial,36.05,324,342,361,379,397,9,9,9,9,9,,,,,,,0,0,0,0,0,7,7,21,,,,,,,,,,,,num_4,1.0196456999983639,num_4,0.55,1.2,0.20000000000000007,0.7,7.6411,26.74385,return,4.898526300210506,,,,,,,,,,,,,,,,,919,20,female,left_right_width,2024-10-31_11h35.29.004,exp1,2023.1.0,59.9994479449969,
,,,,,,,,,,,,,,,,5,9,9.5,10,10.5,11,0.5,0.25,0.25,2.25,10,initial,36.05,324,342,361,379,397,9,9,9,9,9,,,,,,,0,0,0,0,0,8,8,48,,,,,,,,,,,,num_5,1.1054715001955628,num_5,0.4,1.3,0.15000000000000008,0.75,5.73083,28.65413,return,4.755234700161964,,,,,,,,,,,,,,,,,919,20,female,left_right_width,2024-10-31_11h35.29.004,exp1,2023.1.0,59.9994479449969,
,,,,,,,,,,,,,,,,4,9.25,9.75,10.25,10.75,0,0.5,0.25,0.25,1.75,10,initial,36.05,333,351,370,388,0,9,9,9,9,0,,,,,,,0,0,0,0,0,9,9,40,,,,,,,,,,,,num_4,1.7044076002202928,num_4,0.55,1.1,0.20000000000000007,0.6,7.6411,22.9233,return,3.644959600176662,,,,,,,,,,,,,,,,,919,20,female,left_right_width,2024-10-31_11h35.29.004,exp1,2023.1.0,59.9994479449969,
,,,,,,,,,,,,,,,,3,9.5,10,10.5,0,0,0.5,0.25,0.25,1.25,10,initial,36.05,342,361,379,0,0,9,9,9,0,0,,,,,,,0,0,0,0,0,10,10,31,,,,,,,,,,,,num_3,1.1445313000585884,num_3,0.2,1.1,0.3,0.6,11.46165,22.9233,return,4.584792600013316,,,,,,,,,,,,,,,,,919,20,female,left_right_width,2024-10-31_11h35.29.004,exp1,2023.1.0,59.9994479449969,
,,,,,,,,,,,,,,,,5,9,9.5,10,10.5,11,0.5,0.25,0.25,2.25,10,initial,36.05,324,342,361,379,397,9,9,9,9,9,,,,,,,0,0,0,0,0,11,11,46,,,,,,,,,,,,num_4,1.1468118000775576,num_4,0.3,0.8,0.15000000000000002,0.4,5.73083,15.2822,return,2.696054100058973,,,,,,,,,,,,,,,,,919,20,female,left_right_width,2024-10-31_11h35.29.004,exp1,2023.1.0,59.9994479449969,
,,,,,,,,,,,,,,,,3,9.5,10,10.5,0,0,0.5,0.25,0.25,1.25,10,initial,36.05,342,361,379,0,0,9,9,9,0,0,,,,,,,0,0,0,0,0,12,12,32,,,,,,,,,,,,num_3,0.9545172001235187,num_3,0.25,0.7,0.25,0.55,9.55138,21.01303,return,3.0049584002699703,,,,,,,,,,,,,,,,,919,20,female,left_right_width,2024-10-31_11h35.29.004,exp1,2023.1.0,59.9994479449969,
,,,,,,,,,,,,,,,,5,9,9.5,10,10.5,11,0.5,0.25,0.25,2.25,10,initial,36.05,324,342,361,379,397,9,9,9,9,9,,,,,,,0,0,0,0,0,13,13,53,,,,,,,,,,,,num_4,1.0221795001998544,num_4,0.45,1.3,0.20000000000000007,0.5,7.6411,19.10275,return,4.7386672999709845,,,,,,,,,,,,,,,,,919,20,female,left_right_width,2024-10-31_11h35.29.004,exp1,2023.1.0,59.9994479449969,
,,,,,,,,,,,,,,,,5,9,9.5,10,10.5,11,0.5,0.25,0.25,2.25,10,initial,36.05,324,342,361,379,397,9,9,9,9,9,,,,,,,0,0,0,0,0,14,14,22,,,,,,,,,,,,num_4,0.845192100154236,num_4,0.5,0.8,0.20000000000000007,0.6,7.6411,22.9233,return,5.002049700124189,,,,,,,,,,,,,,,,,919,20,female,left_right_width,2024-10-31_11h35.29.004,exp1,2023.1.0,59.9994479449969,
,,,,,,,,,,,,,,,,4,9.25,9.75,10.25,10.75,0,0.5,0.25,0.25,1.75,10,initial,36.05,333,351,370,388,0,9,9,9,9,0,,,,,,,0,0,0,0,0,15,15,36,,,,,,,,,,,,num_4,1.014216500101611,num_4,0.25,0.8,0.15000000000000002,0.5,5.73083,19.10275,return,4.060323300305754,,,,,,,,,,,,,,,,,919,20,female,left_right_width,2024-10-31_11h35.29.004,exp1,2023.1.0,59.9994479449969,
,,,,,,,,,,,,,,,,3,9.5,10,10.5,0,0,0.5,0.25,0.25,1.25,10,initial,36.05,342,361,379,0,0,9,9,9,0,0,,,,,,,0,0,0,0,0,16,16,4,,,,,,,,,,,,num_3,1.0369341000914574,num_3,0.3,0.8,0.2,0.65,7.6411,24.83358,return,2.417904700152576,,,,,,,,,,,,,,,,,919,20,female,left_right_width,2024-10-31_11h35.29.004,exp1,2023.1.0,59.9994479449969,
,,,,,,,,,,,,,,,,3,9.5,10,10.5,0,0,0.5,0.25,0.25,1.25,10,initial,36.05,342,361,379,0,0,9,9,9,0,0,,,,,,,0,0,0,0,0,17,17,6,,,,,,,,,,,,num_3,0.9056649000849575,num_3,0.35,1,0.25,0.75,9.55138,28.65413,return,5.596988700097427,,,,,,,,,,,,,,,,,919,20,female,left_right_width,2024-10-31_11h35.29.004,exp1,2023.1.0,59.9994479449969,
,,,,,,,,,,,,,,,,3,9.5,10,10.5,0,0,0.5,0.25,0.25,1.25,10,initial,36.05,342,361,379,0,0,9,9,9,0,0,,,,,,,0,0,0,0,0,18,18,7,,,,,,,,,,,,num_3,1.0993726002052426,num_3,0.45,0.5,0.35000000000000003,0.6,13.37193,22.9233,return,18.237304400186986,,,,,,,,,,,,,,,,,919,20,female,left_right_width,2024-10-31_11h35.29.004,exp1,2023.1.0,59.9994479449969,
,,,,,,,,,,,,,,,,4,9.25,9.75,10.25,10.75,0,0.5,0.25,0.25,1.75,10,initial,36.05,333,351,370,388,0,9,9,9,9,0,,,,,,,0,0,0,0,0,19,19,16,,,,,,,,,,,,num_4,1.2346626000944525,num_4,0.55,1.0,0.25000000000000006,0.6,9.55138,22.9233,return,3.8071995000354946,,,,,,,,,,,,,,,,,919,20,female,left_right_width,2024-10-31_11h35.29.004,exp1,2023.1.0,59.9994479449969,
,,,,,,,,,,,,,,,,5,9,9.5,10,10.5,11,0.5,0.25,0.25,2.25,10,initial,36.05,324,342,361,379,397,9,9,9,9,9,,,,,,,0,0,0,0,0,20,20,25,,,,,,,,,,,,num_5,0.9888410002458841,num_5,0.5,1.3,0.20000000000000007,0.6,7.6411,22.9233,return,6.825836800271645,,,,,,,,,,,,,,,,,919,20,female,left_right_width,2024-10-31_11h35.29.004,exp1,2023.1.0,59.9994479449969,
,,,,,,,,,,,,,,,,4,9.25,9.75,10.25,10.75,0,0.5,0.25,0.25,1.75,10,initial,36.05,333,351,370,388,0,9,9,9,9,0,,,,,,,0,0,0,0,0,21,21,17,,,,,,,,,,,,num_4,1.2612439000513405,num_4,0.2,0.8,0.25,0.5,9.55138,19.10275,return,2.7709449001122266,,,,,,,,,,,,,,,,,919,20,female,left_right_width,2024-10-31_11h35.29.004,exp1,2023.1.0,59.9994479449969,
,,,,,,,,,,,,,,,,4,9.25,9.75,10.25,10.75,0,0.5,0.25,0.25,1.75,10,initial,36.05,333,351,370,388,0,9,9,9,9,0,,,,,,,0,0,0,0,0,22,22,38,,,,,,,,,,,,num_4,0.8916535000316799,num_4,0.5,0.7,0.25000000000000006,0.4,9.55138,15.2822,return,2.700279700104147,,,,,,,,,,,,,,,,,919,20,female,left_right_width,2024-10-31_11h35.29.004,exp1,2023.1.0,59.9994479449969,
,,,,,,,,,,,,,,,,3,9.5,10,10.5,0,0,0.5,0.25,0.25,1.25,10,initial,36.05,342,361,379,0,0,9,9,9,0,0,,,,,,,0,0,0,0,0,23,23,35,,,,,,,,,,,,num_3,0.9513410001527518,num_3,0.5,1.3,0.30000000000000004,0.7,11.46165,26.74385,return,6.352006400004029,,,,,,,,,,,,,,,,,919,20,female,left_right_width,2024-10-31_11h35.29.004,exp1,2023.1.0,59.9994479449969,
,,,,,,,,,,,,,,,,3,9.5,10,10.5,0,0,0.5,0.25,0.25,1.25,10,initial,36.05,342,361,379,0,0,9,9,9,0,0,,,,,,,0,0,0,0,0,24,24,33,,,,,,,,,,,,num_3,0.9012860001530498,num_3,0.55,0.6,0.20000000000000007,0.6,7.6411,22.9233,return,4.312329200329259,,,,,,,,,,,,,,,,,919,20,female,left_right_width,2024-10-31_11h35.29.004,exp1,2023.1.0,59.9994479449969,
,,,,,,,,,,,,,,,,5,9,9.5,10,10.5,11,0.5,0.25,0.25,2.25,10,initial,36.05,324,342,361,379,397,9,9,9,9,9,,,,,,,0,0,0,0,0,25,25,24,,,,,,,,,,,,num_5,0.8425855999812484,num_5,0.2,0.7,0.25,0.55,9.55138,21.01303,return,2.6971919001080096,,,,,,,,,,,,,,,,,919,20,female,left_right_width,2024-10-31_11h35.29.004,exp1,2023.1.0,59.9994479449969,
,,,,,,,,,,,,,,,,3,9.5,10,10.5,0,0,0.5,0.25,0.25,1.25,10,initial,36.05,342,361,379,0,0,9,9,9,0,0,,,,,,,0,0,0,0,0,26,26,0,,,,,,,,,,,,num_3,0.8102626001928002,num_3,0.55,0.6,0.25000000000000006,0.45,9.55138,17.19248,return,3.800921899965033,,,,,,,,,,,,,,,,,919,20,female,left_right_width,2024-10-31_11h35.29.004,exp1,2023.1.0,59.9994479449969,
,,,,,,,,,,,,,,,,3,9.5,10,10.5,0,0,0.5,0.25,0.25,1.25,10,initial,36.05,342,361,379,0,0,9,9,9,0,0,,,,,,,0,0,0,0,0,27,27,28,,,,,,,,,,,,num_3,0.8492787000723183,num_3,0.2,1.1,0.2,0.65,7.6411,24.83358,return,6.77907790010795,,,,,,,,,,,,,,,,,919,20,female,left_right_width,2024-10-31_11h35.29.004,exp1,2023.1.0,59.9994479449969,
,,,,,,,,,,,,,,,,5,9,9.5,10,10.5,11,0.5,0.25,0.25,2.25,10,initial,36.05,324,342,361,379,397,9,9,9,9,9,,,,,,,0,0,0,0,0,28,28,47,,,,,,,,,,,,num_5,0.876875800313428,num_5,0.5,0.9,0.25000000000000006,0.6,9.55138,22.9233,return,6.163081800099462,,,,,,,,,,,,,,,,,919,20,female,left_right_width,2024-10-31_11h35.29.004,exp1,2023.1.0,59.9994479449969,
,,,,,,,,,,,,,,,,5,9,9.5,10,10.5,11,0.5,0.25,0.25,2.25,10,initial,36.05,324,342,361,379,397,9,9,9,9,9,,,,,,,0,0,0,0,0,29,29,18,,,,,,,,,,,,num_5,0.8844945002347231,num_5,0.25,0.3,0.25,0.7,9.55138,26.74385,return,3.946958100190386,,,,,,,,,,,,,,,,,919,20,female,left_right_width,2024-10-31_11h35.29.004,exp1,2023.1.0,59.9994479449969,
,,,,,,,,,,,,,,,,3,9.5,10,10.5,0,0,0.5,0.25,0.25,1.25,10,initial,36.05,342,361,379,0,0,9,9,9,0,0,,,,,,,0,0,0,0,0,30,30,3,,,,,,,,,,,,num_3,0.8565115001983941,num_3,0.4,0.8,0.25000000000000006,0.75,9.55138,28.65413,return,5.701859900029376,,,,,,,,,,,,,,,,,919,20,female,left_right_width,2024-10-31_11h35.29.004,exp1,2023.1.0,59.9994479449969,
,,,,,,,,,,,,,,,,5,9,9.5,10,10.5,11,0.5,0.25,0.25,2.25,10,initial,36.05,324,342,361,379,397,9,9,9,9,9,,,,,,,0,0,0,0,0,31,31,50,,,,,,,,,,,,num_4,2.331001300131902,num_4,0.2,1.3,0.2,0.7,7.6411,26.74385,return,5.2984438999556005,,,,,,,,,,,,,,,,,919,20,female,left_right_width,2024-10-31_11h35.29.004,exp1,2023.1.0,59.9994479449969,
,,,,,,,,,,,,,,,,4,9.25,9.75,10.25,10.75,0,0.5,0.25,0.25,1.75,10,initial,36.05,333,351,370,388,0,9,9,9,9,0,,,,,,,0,0,0,0,0,32,32,44,,,,,,,,,,,,num_4,0.9117465000599623,num_4,0.55,0.7,0.20000000000000007,0.5,7.6411,19.10275,return,4.618258700240403,,,,,,,,,,,,,,,,,919,20,female,left_right_width,2024-10-31_11h35.29.004,exp1,2023.1.0,59.9994479449969,
,,,,,,,,,,,,,,,,3,9.5,10,10.5,0,0,0.5,0.25,0.25,1.25,10,initial,36.05,342,361,379,0,0,9,9,9,0,0,,,,,,,0,0,0,0,0,33,33,29,,,,,,,,,,,,num_3,0.8877542000263929,num_3,0.2,0.5,0.25,0.5,9.55138,19.10275,return,1.403219100087881,,,,,,,,,,,,,,,,,919,20,female,left_right_width,2024-10-31_11h35.29.004,exp1,2023.1.0,59.9994479449969,
,,,,,,,,,,,,,,,,3,9.5,10,10.5,0,0,0.5,0.25,0.25,1.25,10,initial,36.05,342,361,379,0,0,9,9,9,0,0,,,,,,,0,0,0,0,0,34,34,34,,,,,,,,,,,,num_3,0.8604821001645178,num_3,0.4,0.7,0.25000000000000006,0.7,9.55138,26.74385,return,2.595651400042698,,,,,,,,,,,,,,,,,919,20,female,left_right_width,2024-10-31_11h35.29.004,exp1,2023.1.0,59.9994479449969,
,,,,,,,,,,,,,,,,4,9.25,9.75,10.25,10.75,0,0.5,0.25,0.25,1.75,10,initial,36.05,333,351,370,388,0,9,9,9,9,0,,,,,,,0,0,0,0,0,35,35,10,,,,,,,,,,,,num_3,0.7231483000796288,num_3,0.55,0.8,0.30000000000000004,0.8,11.46165,30.5644,return,2.885054600192234,,,,,,,,,,,,,,,,,919,20,female,left_right_width,2024-10-31_11h35.29.004,exp1,2023.1.0,59.9994479449969,
,,,,,,,,,,,,,,,,4,9.25,9.75,10.25,10.75,0,0.5,0.25,0.25,1.75,10,initial,36.05,333,351,370,388,0,9,9,9,9,0,,,,,,,0,0,0,0,0,36,36,12,,,,,,,,,,,,num_3,0.7992676000576466,num_3,0.2,0.4,0.25,0.65,9.55138,24.83358,return,4.155647300183773,,,,,,,,,,,,,,,,,919,20,female,left_right_width,2024-10-31_11h35.29.004,exp1,2023.1.0,59.9994479449969,
,,,,,,,,,,,,,,,,4,9.25,9.75,10.25,10.75,0,0.5,0.25,0.25,1.75,10,initial,36.05,333,351,370,388,0,9,9,9,9,0,,,,,,,0,0,0,0,0,37,37,39,,,,,,,,,,,,num_4,0.7992812001612037,num_4,0.35,0.7,0.2,0.6,7.6411,22.9233,return,2.988978600129485,,,,,,,,,,,,,,,,,919,20,female,left_right_width,2024-10-31_11h35.29.004,exp1,2023.1.0,59.9994479449969,
,,,,,,,,,,,,,,,,3,9.5,10,10.5,0,0,0.5,0.25,0.25,1.25,10,initial,36.05,342,361,379,0,0,9,9,9,0,0,,,,,,,0,0,0,0,0,38,38,2,,,,,,,,,,,,num_3,0.8547702999785542,num_3,0.55,0.6,0.30000000000000004,0.6,11.46165,22.9233,return,6.180684500141069,,,,,,,,,,,,,,,,,919,20,female,left_right_width,2024-10-31_11h35.29.004,exp1,2023.1.0,59.9994479449969,
,,,,,,,,,,,,,,,,3,9.5,10,10.5,0,0,0.5,0.25,0.25,1.25,10,initial,36.05,342,361,379,0,0,9,9,9,0,0,,,,,,,0,0,0,0,0,39,39,1,,,,,,,,,,,,num_3,0.7140498000662774,num_3,0.5,0.6,0.25000000000000006,0.55,9.55138,21.01303,return,5.8681564999278635,,,,,,,,,,,,,,,,,919,20,female,left_right_width,2024-10-31_11h35.29.004,exp1,2023.1.0,59.9994479449969,
,,,,,,,,,,,,,,,,4,9.25,9.75,10.25,10.75,0,0.5,0.25,0.25,1.75,10,initial,36.05,333,351,370,388,0,9,9,9,9,0,,,,,,,0,0,0,0,0,40,40,13,,,,,,,,,,,,num_4,1.8389157003257424,num_4,0.45,0.8,0.25000000000000006,0.6,9.55138,22.9233,return,5.293112900108099,,,,,,,,,,,,,,,,,919,20,female,left_right_width,2024-10-31_11h35.29.004,exp1,2023.1.0,59.9994479449969,
,,,,,,,,,,,,,,,,4,9.25,9.75,10.25,10.75,0,0.5,0.25,0.25,1.75,10,initial,36.05,333,351,370,388,0,9,9,9,9,0,,,,,,,0,0,0,0,0,41,41,14,,,,,,,,,,,,num_4,0.8418393002357334,num_4,0.5,1.3,0.25000000000000006,0.6,9.55138,22.9233,return,4.332892100093886,,,,,,,,,,,,,,,,,919,20,female,left_right_width,2024-10-31_11h35.29.004,exp1,2023.1.0,59.9994479449969,
,,,,,,,,,,,,,,,,3,9.5,10,10.5,0,0,0.5,0.25,0.25,1.25,10,initial,36.05,342,361,379,0,0,9,9,9,0,0,,,,,,,0,0,0,0,0,42,42,8,,,,,,,,,,,,num_3,0.8893510000780225,num_3,0.45,0.5,0.25000000000000006,0.5,9.55138,19.10275,return,2.93460790021345,,,,,,,,,,,,,,,,,919,20,female,left_right_width,2024-10-31_11h35.29.004,exp1,2023.1.0,59.9994479449969,
,,,,,,,,,,,,,,,,4,9.25,9.75,10.25,10.75,0,0.5,0.25,0.25,1.75,10,initial,36.05,333,351,370,388,0,9,9,9,9,0,,,,,,,0,0,0,0,0,43,43,9,,,,,,,,,,,,num_4,0.9214625002350658,num_4,0.25,1.3,0.25,0.7,9.55138,26.74385,return,3.315628800075501,,,,,,,,,,,,,,,,,919,20,female,left_right_width,2024-10-31_11h35.29.004,exp1,2023.1.0,59.9994479449969,
,,,,,,,,,,,,,,,,5,9,9.5,10,10.5,11,0.5,0.25,0.25,2.25,10,initial,36.05,324,342,361,379,397,9,9,9,9,9,,,,,,,0,0,0,0,0,44,44,51,,,,,,,,,,,,num_5,0.9149933001026511,num_5,0.35,1.0,0.2,0.75,7.6411,28.65413,return,3.0127909001894295,,,,,,,,,,,,,,,,,919,20,female,left_right_width,2024-10-31_11h35.29.004,exp1,2023.1.0,59.9994479449969,
,,,,,,,,,,,,,,,,5,9,9.5,10,10.5,11,0.5,0.25,0.25,2.25,10,initial,36.05,324,342,361,379,397,9,9,9,9,9,,,,,,,0,0,0,0,0,45,45,20,,,,,,,,,,,,num_5,1.1109405001625419,num_5,0.55,1.1,0.20000000000000007,0.75,7.6411,28.65413,return,4.266064699972048,,,,,,,,,,,,,,,,,919,20,female,left_right_width,2024-10-31_11h35.29.004,exp1,2023.1.0,59.9994479449969,
,,,,,,,,,,,,,,,,4,9.25,9.75,10.25,10.75,0,0.5,0.25,0.25,1.75,10,initial,36.05,333,351,370,388,0,9,9,9,9,0,,,,,,,0,0,0,0,0,46,46,43,,,,,,,,,,,,num_4,1.0364296999759972,num_4,0.5,1.2,0.20000000000000007,0.8,7.6411,30.5644,return,2.8575921000447124,,,,,,,,,,,,,,,,,919,20,female,left_right_width,2024-10-31_11h35.29.004,exp1,2023.1.0,59.9994479449969,
,,,,,,,,,,,,,,,,4,9.25,9.75,10.25,10.75,0,0.5,0.25,0.25,1.75,10,initial,36.05,333,351,370,388,0,9,9,9,9,0,,,,,,,0,0,0,0,0,47,47,42,,,,,,,,,,,,num_4,0.7853486002422869,num_4,0.4,1.2,0.15000000000000008,0.7,5.73083,26.74385,return,3.615358400158584,,,,,,,,,,,,,,,,,919,20,female,left_right_width,2024-10-31_11h35.29.004,exp1,2023.1.0,59.9994479449969,
,,,,,,,,,,,,,,,,4,9.25,9.75,10.25,10.75,0,0.5,0.25,0.25,1.75,10,initial,36.05,333,351,370,388,0,9,9,9,9,0,,,,,,,0,0,0,0,0,48,48,41,,,,,,,,,,,,num_4,1.087597800185904,num_4,0.25,0.3,0.2,0.5,7.6411,19.10275,return,1.803711200132966,,,,,,,,,,,,,,,,,919,20,female,left_right_width,2024-10-31_11h35.29.004,exp1,2023.1.0,59.9994479449969,
,,,,,,,,,,,,,,,,4,9.25,9.75,10.25,10.75,0,0.5,0.25,0.25,1.75,10,initial,36.05,333,351,370,388,0,9,9,9,9,0,,,,,,,0,0,0,0,0,49,49,37,,,,,,,,,,,,num_4,0.8305730002466589,num_4,0.4,0.9,0.20000000000000007,0.8,7.6411,30.5644,return,3.541737799998373,,,,,,,,,,,,,,,,,919,20,female,left_right_width,2024-10-31_11h35.29.004,exp1,2023.1.0,59.9994479449969,
,,,,,,,,,,,,,,,,4,9.25,9.75,10.25,10.75,0,0.5,0.25,0.25,1.75,10,initial,36.05,333,351,370,388,0,9,9,9,9,0,,,,,,,0,0,0,0,0,50,50,15,,,,,,,,,,,,num_4,0.7417638001497835,num_4,0.25,1.2,0.2,0.7,7.6411,26.74385,return,2.9927495000883937,,,,,,,,,,,,,,,,,919,20,female,left_right_width,2024-10-31_11h35.29.004,exp1,2023.1.0,59.9994479449969,
,,,,,,,,,,,,,,,,5,9,9.5,10,10.5,11,0.5,0.25,0.25,2.25,10,initial,36.05,324,342,361,379,397,9,9,9,9,9,,,,,,,0,0,0,0,0,51,51,26,,,,,,,,,,,,num_5,1.360147099941969,num_5,0.2,0.7,0.2,0.7,7.6411,26.74385,return,0.989472100045532,,,,,,,,,,,,,,,,,919,20,female,left_right_width,2024-10-31_11h35.29.004,exp1,2023.1.0,59.9994479449969,
,,,,,,,,,,,,,,,,5,9,9.5,10,10.5,11,0.5,0.25,0.25,2.25,10,initial,36.05,324,342,361,379,397,9,9,9,9,9,,,,,,,0,0,0,0,0,52,52,45,,,,,,,,,,,,num_5,0.8852247002068907,num_5,0.3,0.4,0.15000000000000002,0.4,5.73083,15.2822,return,2.2956466001924127,,,,,,,,,,,,,,,,,919,20,female,left_right_width,2024-10-31_11h35.29.004,exp1,2023.1.0,59.9994479449969,
,,,,,,,,,,,,,,,,3,9.5,10,10.5,0,0,0.5,0.25,0.25,1.25,10,initial,36.05,342,361,379,0,0,9,9,9,0,0,,,,,,,0,0,0,0,0,53,53,5,,,,,,,,,,,,num_3,0.7366117001511157,num_3,0.35,0.9,0.2,0.85,7.6411,32.47468,return,3.3312148000113666,,,,,,,,,,,,,,,,,919,20,female,left_right_width,2024-10-31_11h35.29.004,exp1,2023.1.0,59.9994479449969,
,,,,,,,,,,,,,,,,,,,,,,,,,,,,,,,,,,,,,,,,,,,,,0,0,0,0,,,,,,,,,,,,,,,,,,,,,,,,,,,,,831.1224211000372,831.1224211000372,831.1224211000372,,,,,,,,,,,,919,20,female,left_right_width,2024-10-31_11h35.29.004,exp1,2023.1.0,59.9994479449969,
,,,,,,,,,,,,,,,,5,9,9.5,10,10.5,11,0.5,0.1,0.4,2.4,10,initial,36.05,324,342,361,379,397,9,9,9,9,9,,,,,,,1,0,1,0,0,0,0,26,,,,,,,,,,,,num_4,2.051705399993807,num_4,0.45,0.8,0.6000000000000001,0.7,22.9233,26.74385,return,10.527514799963683,,,,,,,,,,,,,,,,,919,20,female,left_right_width,2024-10-31_11h35.29.004,exp1,2023.1.0,59.9994479449969,
,,,,,,,,,,,,,,,,4,9.25,9.75,10.25,10.75,0,0.5,0.1,0.4,1.9000000000000001,10,initial,36.05,333,351,370,388,0,9,9,9,9,0,,,,,,,1,0,1,0,0,1,1,9,,,,,,,,,,,,num_3,0.9322111001238227,num_3,0.25,1.2,0.49999999999999994,0.65,19.10275,24.83358,return,4.398409000132233,,,,,,,,,,,,,,,,,919,20,female,left_right_width,2024-10-31_11h35.29.004,exp1,2023.1.0,59.9994479449969,
,,,,,,,,,,,,,,,,5,9,9.5,10,10.5,11,0.5,0.1,0.4,2.4,10,initial,36.05,324,342,361,379,397,9,9,9,9,9,,,,,,,1,0,1,0,0,2,2,24,,,,,,,,,,,,num_4,0.9396928001660854,num_4,0.3,1.2,0.39999999999999997,0.5,15.2822,19.10275,return,3.980211900314316,,,,,,,,,,,,,,,,,919,20,female,left_right_width,2024-10-31_11h35.29.004,exp1,2023.1.0,59.9994479449969,
,,,,,,,,,,,,,,,,3,9.5,10,10.5,0,0,0.5,0.1,0.4,1.4000000000000001,10,initial,36.05,342,361,379,0,0,9,9,9,0,0,,,,,,,1,0,1,0,0,3,3,34,,,,,,,,,,,,num_3,0.9340890999883413,num_3,0.4,0.6,0.4,0.6,15.2822,22.9233,return,1.3707581001799554,,,,,,,,,,,,,,,,,919,20,female,left_right_width,2024-10-31_11h35.29.004,exp1,2023.1.0,59.9994479449969,
,,,,,,,,,,,,,,,,3,9.5,10,10.5,0,0,0.5,0.1,0.4,1.4000000000000001,10,initial,36.05,342,361,379,0,0,9,9,9,0,0,,,,,,,1,0,1,0,0,4,4,5,,,,,,,,,,,,num_3,1.1304312001448125,num_3,0.35,0.6,0.49999999999999994,0.6,19.10275,22.9233,return,7.147712400183082,,,,,,,,,,,,,,,,,919,20,female,left_right_width,2024-10-31_11h35.29.004,exp1,2023.1.0,59.9994479449969,
,,,,,,,,,,,,,,,,5,9,9.5,10,10.5,11,0.5,0.1,0.4,2.4,10,initial,36.05,324,342,361,379,397,9,9,9,9,9,,,,,,,1,0,1,0,0,5,5,19,,,,,,,,,,,,num_4,1.0950708000455052,num_4,0.3,0.7,0.7000000000000001,0.8,26.74385,30.5644,return,10.570995000191033,,,,,,,,,,,,,,,,,919,20,female,left_right_width,2024-10-31_11h35.29.004,exp1,2023.1.0,59.9994479449969,
,,,,,,,,,,,,,,,,5,9,9.5,10,10.5,11,0.5,0.1,0.4,2.4,10,initial,36.05,324,342,361,379,397,9,9,9,9,9,,,,,,,1,0,1,0,0,6,6,49,,,,,,,,,,,,num_3,0.7890364001505077,num_3,0.35,0.6,0.5499999999999999,0.75,21.01303,28.65413,return,4.543632600223646,,,,,,,,,,,,,,,,,919,20,female,left_right_width,2024-10-31_11h35.29.004,exp1,2023.1.0,59.9994479449969,
,,,,,,,,,,,,,,,,3,9.5,10,10.5,0,0,0.5,0.1,0.4,1.4000000000000001,10,initial,36.05,342,361,379,0,0,9,9,9,0,0,,,,,,,1,0,1,0,0,7,7,6,,,,,,,,,,,,num_3,0.9131829000543803,num_3,0.25,0.4,0.44999999999999996,0.5,17.19248,19.10275,return,4.054917000234127,,,,,,,,,,,,,,,,,919,20,female,left_right_width,2024-10-31_11h35.29.004,exp1,2023.1.0,59.9994479449969,
,,,,,,,,,,,,,,,,4,9.25,9.75,10.25,10.75,0,0.5,0.1,0.4,1.9000000000000001,10,initial,36.05,333,351,370,388,0,9,9,9,9,0,,,,,,,1,0,1,0,0,8,8,39,,,,,,,,,,,,num_3,0.7906503002159297,num_3,0.2,0.6,0.49999999999999994,0.65,19.10275,24.83358,return,4.420129500096664,,,,,,,,,,,,,,,,,919,20,female,left_right_width,2024-10-31_11h35.29.004,exp1,2023.1.0,59.9994479449969,
,,,,,,,,,,,,,,,,3,9.5,10,10.5,0,0,0.5,0.1,0.4,1.4000000000000001,10,initial,36.05,342,361,379,0,0,9,9,9,0,0,,,,,,,1,0,1,0,0,9,9,3,,,,,,,,,,,,num_2,1.3584227003157139,num_2,0.2,0.6,0.49999999999999994,0.7,19.10275,26.74385,return,3.12246480002068,,,,,,,,,,,,,,,,,919,20,female,left_right_width,2024-10-31_11h35.29.004,exp1,2023.1.0,59.9994479449969,
,,,,,,,,,,,,,,,,4,9.25,9.75,10.25,10.75,0,0.5,0.1,0.4,1.9000000000000001,10,initial,36.05,333,351,370,388,0,9,9,9,9,0,,,,,,,1,0,1,0,0,10,10,43,,,,,,,,,,,,num_3,0.7535324001219124,num_3,0.2,0.3,0.44999999999999996,0.55,17.19248,21.01303,return,6.490843100007623,,,,,,,,,,,,,,,,,919,20,female,left_right_width,2024-10-31_11h35.29.004,exp1,2023.1.0,59.9994479449969,
,,,,,,,,,,,,,,,,4,9.25,9.75,10.25,10.75,0,0.5,0.1,0.4,1.9000000000000001,10,initial,36.05,333,351,370,388,0,9,9,9,9,0,,,,,,,1,0,1,0,0,11,11,37,,,,,,,,,,,,num_3,0.6826466000638902,num_3,0.25,0.6,0.5499999999999999,0.65,21.01303,24.83358,return,5.30754500022158,,,,,,,,,,,,,,,,,919,20,female,left_right_width,2024-10-31_11h35.29.004,exp1,2023.1.0,59.9994479449969,
,,,,,,,,,,,,,,,,4,9.25,9.75,10.25,10.75,0,0.5,0.1,0.4,1.9000000000000001,10,initial,36.05,333,351,370,388,0,9,9,9,9,0,,,,,,,1,0,1,0,0,12,12,41,,,,,,,,,,,,num_3,0.881582000060007,num_3,0.2,1,0.65,0.8,24.83358,30.5644,return,4.682118100114167,,,,,,,,,,,,,,,,,919,20,female,left_right_width,2024-10-31_11h35.29.004,exp1,2023.1.0,59.9994479449969,
,,,,,,,,,,,,,,,,5,9,9.5,10,10.5,11,0.5,0.1,0.4,2.4,10,initial,36.05,324,342,361,379,397,9,9,9,9,9,,,,,,,1,0,1,0,0,13,13,47,,,,,,,,,,,,num_5,1.0073798003140837,num_5,0.4,0.5,0.4,0.6,15.2822,22.9233,return,2.644016900099814,,,,,,,,,,,,,,,,,919,20,female,left_right_width,2024-10-31_11h35.29.004,exp1,2023.1.0,59.9994479449969,
,,,,,,,,,,,,,,,,3,9.5,10,10.5,0,0,0.5,0.1,0.4,1.4000000000000001,10,initial,36.05,342,361,379,0,0,9,9,9,0,0,,,,,,,1,0,1,0,0,14,14,30,,,,,,,,,,,,num_3,0.8956748000346124,num_3,0.55,1.1,0.5,0.75,19.10275,28.65413,return,6.057965799933299,,,,,,,,,,,,,,,,,919,20,female,left_right_width,2024-10-31_11h35.29.004,exp1,2023.1.0,59.9994479449969,
,,,,,,,,,,,,,,,,3,9.5,10,10.5,0,0,0.5,0.1,0.4,1.4000000000000001,10,initial,36.05,342,361,379,0,0,9,9,9,0,0,,,,,,,1,0,1,0,0,15,15,29,,,,,,,,,,,,num_3,0.6991618000902236,num_3,0.55,0.8,0.45,0.7,17.19248,26.74385,return,3.3376129001844674,,,,,,,,,,,,,,,,,919,20,female,left_right_width,2024-10-31_11h35.29.004,exp1,2023.1.0,59.9994479449969,
,,,,,,,,,,,,,,,,4,9.25,9.75,10.25,10.75,0,0.5,0.1,0.4,1.9000000000000001,10,initial,36.05,333,351,370,388,0,9,9,9,9,0,,,,,,,1,0,1,0,0,16,16,17,,,,,,,,,,,,num_3,0.9618073001038283,num_3,0.4,1.3,0.30000000000000004,0.5,11.46165,19.10275,return,5.94706239993684,,,,,,,,,,,,,,,,,919,20,female,left_right_width,2024-10-31_11h35.29.004,exp1,2023.1.0,59.9994479449969,
,,,,,,,,,,,,,,,,5,9,9.5,10,10.5,11,0.5,0.1,0.4,2.4,10,initial,36.05,324,342,361,379,397,9,9,9,9,9,,,,,,,1,0,1,0,0,17,17,52,,,,,,,,,,,,num_4,0.8995567001402378,num_4,0.4,0.5,0.45,0.6,17.19248,22.9233,return,2.8894987001549453,,,,,,,,,,,,,,,,,919,20,female,left_right_width,2024-10-31_11h35.29.004,exp1,2023.1.0,59.9994479449969,
,,,,,,,,,,,,,,,,4,9.25,9.75,10.25,10.75,0,0.5,0.1,0.4,1.9000000000000001,10,initial,36.05,333,351,370,388,0,9,9,9,9,0,,,,,,,1,0,1,0,0,18,18,44,,,,,,,,,,,,num_4,0.8821681002154946,num_4,0.5,0.6,0.45,0.6,17.19248,22.9233,return,1.1154211000539362,,,,,,,,,,,,,,,,,919,20,female,left_right_width,2024-10-31_11h35.29.004,exp1,2023.1.0,59.9994479449969,
,,,,,,,,,,,,,,,,4,9.25,9.75,10.25,10.75,0,0.5,0.1,0.4,1.9000000000000001,10,initial,36.05,333,351,370,388,0,9,9,9,9,0,,,,,,,1,0,1,0,0,19,19,42,,,,,,,,,,,,num_4,0.8912757001817226,num_4,0.2,1.0,0.25,0.5,9.55138,19.10275,return,3.4623038002755493,,,,,,,,,,,,,,,,,919,20,female,left_right_width,2024-10-31_11h35.29.004,exp1,2023.1.0,59.9994479449969,
,,,,,,,,,,,,,,,,5,9,9.5,10,10.5,11,0.5,0.1,0.4,2.4,10,initial,36.05,324,342,361,379,397,9,9,9,9,9,,,,,,,1,0,1,0,0,20,20,20,,,,,,,,,,,,num_4,1.04300170019269,num_4,0.5,1.2,0.30000000000000004,0.5,11.46165,19.10275,return,4.360535600222647,,,,,,,,,,,,,,,,,919,20,female,left_right_width,2024-10-31_11h35.29.004,exp1,2023.1.0,59.9994479449969,
,,,,,,,,,,,,,,,,4,9.25,9.75,10.25,10.75,0,0.5,0.1,0.4,1.9000000000000001,10,initial,36.05,333,351,370,388,0,9,9,9,9,0,,,,,,,1,0,1,0,0,21,21,12,,,,,,,,,,,,num_4,0.8454789002425969,num_4,0.5,1.3,0.30000000000000004,0.6,11.46165,22.9233,return,4.728574400069192,,,,,,,,,,,,,,,,,919,20,female,left_right_width,2024-10-31_11h35.29.004,exp1,2023.1.0,59.9994479449969,
,,,,,,,,,,,,,,,,4,9.25,9.75,10.25,10.75,0,0.5,0.1,0.4,1.9000000000000001,10,initial,36.05,333,351,370,388,0,9,9,9,9,0,,,,,,,1,0,1,0,0,22,22,38,,,,,,,,,,,,num_4,0.8208574000746012,num_4,0.3,0.8,0.35,0.5,13.37193,19.10275,return,7.146525400225073,,,,,,,,,,,,,,,,,919,20,female,left_right_width,2024-10-31_11h35.29.004,exp1,2023.1.0,59.9994479449969,
,,,,,,,,,,,,,,,,3,9.5,10,10.5,0,0,0.5,0.1,0.4,1.4000000000000001,10,initial,36.05,342,361,379,0,0,9,9,9,0,0,,,,,,,1,0,1,0,0,23,23,1,,,,,,,,,,,,num_3,0.8269160001073033,num_3,0.4,1.1,0.45,0.7,17.19248,26.74385,return,6.008347900118679,,,,,,,,,,,,,,,,,919,20,female,left_right_width,2024-10-31_11h35.29.004,exp1,2023.1.0,59.9994479449969,
,,,,,,,,,,,,,,,,4,9.25,9.75,10.25,10.75,0,0.5,0.1,0.4,1.9000000000000001,10,initial,36.05,333,351,370,388,0,9,9,9,9,0,,,,,,,1,0,1,0,0,24,24,11,,,,,,,,,,,,num_4,1.135163800092414,num_4,0.35,1.3,0.35,0.6,13.37193,22.9233,return,3.631061000050977,,,,,,,,,,,,,,,,,919,20,female,left_right_width,2024-10-31_11h35.29.004,exp1,2023.1.0,59.9994479449969,
,,,,,,,,,,,,,,,,5,9,9.5,10,10.5,11,0.5,0.1,0.4,2.4,10,initial,36.05,324,342,361,379,397,9,9,9,9,9,,,,,,,1,0,1,0,0,25,25,25,,,,,,,,,,,,num_4,0.7595129001419991,num_4,0.2,0.6,0.44999999999999996,0.6,17.19248,22.9233,return,7.63603450008668,,,,,,,,,,,,,,,,,919,20,female,left_right_width,2024-10-31_11h35.29.004,exp1,2023.1.0,59.9994479449969,
,,,,,,,,,,,,,,,,5,9,9.5,10,10.5,11,0.5,0.1,0.4,2.4,10,initial,36.05,324,342,361,379,397,9,9,9,9,9,,,,,,,1,0,1,0,0,26,26,50,,,,,,,,,,,,num_5,0.8791518001817167,num_5,0.25,0.3,0.25,0.45,9.55138,17.19248,return,2.053506800206378,,,,,,,,,,,,,,,,,919,20,female,left_right_width,2024-10-31_11h35.29.004,exp1,2023.1.0,59.9994479449969,
,,,,,,,,,,,,,,,,5,9,9.5,10,10.5,11,0.5,0.1,0.4,2.4,10,initial,36.05,324,342,361,379,397,9,9,9,9,9,,,,,,,1,0,1,0,0,27,27,48,,,,,,,,,,,,num_4,0.7773932002019137,num_4,0.55,1.2,0.30000000000000004,0.7,11.46165,26.74385,return,4.6154509000480175,,,,,,,,,,,,,,,,,919,20,female,left_right_width,2024-10-31_11h35.29.004,exp1,2023.1.0,59.9994479449969,
,,,,,,,,,,,,,,,,4,9.25,9.75,10.25,10.75,0,0.5,0.1,0.4,1.9000000000000001,10,initial,36.05,333,351,370,388,0,9,9,9,9,0,,,,,,,1,0,1,0,0,28,28,16,,,,,,,,,,,,num_4,0.8036965001374483,num_4,0.5,1.1,0.35000000000000003,0.5,13.37193,19.10275,return,3.5686563001945615,,,,,,,,,,,,,,,,,919,20,female,left_right_width,2024-10-31_11h35.29.004,exp1,2023.1.0,59.9994479449969,
,,,,,,,,,,,,,,,,5,9,9.5,10,10.5,11,0.5,0.1,0.4,2.4,10,initial,36.05,324,342,361,379,397,9,9,9,9,9,,,,,,,1,0,1,0,0,29,29,18,,,,,,,,,,,,num_4,0.8160945000126958,num_4,0.25,1.1,0.3,0.5,11.46165,19.10275,return,3.405878100078553,,,,,,,,,,,,,,,,,919,20,female,left_right_width,2024-10-31_11h35.29.004,exp1,2023.1.0,59.9994479449969,
,,,,,,,,,,,,,,,,3,9.5,10,10.5,0,0,0.5,0.1,0.4,1.4000000000000001,10,initial,36.05,342,361,379,0,0,9,9,9,0,0,,,,,,,1,0,1,0,0,30,30,31,,,,,,,,,,,,num_2,0.9262457003351301,num_2,0.55,1.0,0.45,0.8,17.19248,30.5644,return,18.584408700233325,,,,,,,,,,,,,,,,,919,20,female,left_right_width,2024-10-31_11h35.29.004,exp1,2023.1.0,59.9994479449969,
,,,,,,,,,,,,,,,,3,9.5,10,10.5,0,0,0.5,0.1,0.4,1.4000000000000001,10,initial,36.05,342,361,379,0,0,9,9,9,0,0,,,,,,,1,0,1,0,0,31,31,2,,,,,,,,,,,,num_2,1.0029847000259906,num_2,0.35,0.6,0.5499999999999999,0.8,21.01303,30.5644,return,4.366511600092053,,,,,,,,,,,,,,,,,919,20,female,left_right_width,2024-10-31_11h35.29.004,exp1,2023.1.0,59.9994479449969,
,,,,,,,,,,,,,,,,3,9.5,10,10.5,0,0,0.5,0.1,0.4,1.4000000000000001,10,initial,36.05,342,361,379,0,0,9,9,9,0,0,,,,,,,1,0,1,0,0,32,32,28,,,,,,,,,,,,num_2,0.7630177002865821,num_2,0.2,1.4,0.7000000000000001,1.3,26.74385,49.66716,return,4.667014500126243,,,,,,,,,,,,,,,,,919,20,female,left_right_width,2024-10-31_11h35.29.004,exp1,2023.1.0,59.9994479449969,
,,,,,,,,,,,,,,,,3,9.5,10,10.5,0,0,0.5,0.1,0.4,1.4000000000000001,10,initial,36.05,342,361,379,0,0,9,9,9,0,0,,,,,,,1,0,1,0,0,33,33,7,,,,,,,,,,,,num_2,0.8740052999928594,num_2,0.55,1.2,0.7000000000000002,0.9,26.74385,34.38495,return,2.240499099949375,,,,,,,,,,,,,,,,,919,20,female,left_right_width,2024-10-31_11h35.29.004,exp1,2023.1.0,59.9994479449969,
,,,,,,,,,,,,,,,,4,9.25,9.75,10.25,10.75,0,0.5,0.1,0.4,1.9000000000000001,10,initial,36.05,333,351,370,388,0,9,9,9,9,0,,,,,,,1,0,1,0,0,34,34,13,,,,,,,,,,,,num_3,1.113978800131008,num_3,0.55,1.1,0.4,0.8,15.2822,30.5644,return,3.7054771999828517,,,,,,,,,,,,,,,,,919,20,female,left_right_width,2024-10-31_11h35.29.004,exp1,2023.1.0,59.9994479449969,
,,,,,,,,,,,,,,,,4,9.25,9.75,10.25,10.75,0,0.5,0.1,0.4,1.9000000000000001,10,initial,36.05,333,351,370,388,0,9,9,9,9,0,,,,,,,1,0,1,0,0,35,35,14,,,,,,,,,,,,num_4,0.8524843999184668,num_4,0.25,0.4,0.39999999999999997,0.6,15.2822,22.9233,return,2.576954700052738,,,,,,,,,,,,,,,,,919,20,female,left_right_width,2024-10-31_11h35.29.004,exp1,2023.1.0,59.9994479449969,
,,,,,,,,,,,,,,,,5,9,9.5,10,10.5,11,0.5,0.1,0.4,2.4,10,initial,36.05,324,342,361,379,397,9,9,9,9,9,,,,,,,1,0,1,0,0,36,36,21,,,,,,,,,,,,num_5,0.9953272000420839,num_5,0.35,1.0,0.44999999999999996,0.6,17.19248,22.9233,return,3.7064728001132607,,,,,,,,,,,,,,,,,919,20,female,left_right_width,2024-10-31_11h35.29.004,exp1,2023.1.0,59.9994479449969,
,,,,,,,,,,,,,,,,3,9.5,10,10.5,0,0,0.5,0.1,0.4,1.4000000000000001,10,initial,36.05,342,361,379,0,0,9,9,9,0,0,,,,,,,1,0,1,0,0,37,37,0,,,,,,,,,,,,num_2,0.9029161999933422,num_2,0.5,1.6,0.4,0.8,15.2822,30.5644,return,5.0428009000606835,,,,,,,,,,,,,,,,,919,20,female,left_right_width,2024-10-31_11h35.29.004,exp1,2023.1.0,59.9994479449969,
,,,,,,,,,,,,,,,,5,9,9.5,10,10.5,11,0.5,0.1,0.4,2.4,10,initial,36.05,324,342,361,379,397,9,9,9,9,9,,,,,,,1,0,1,0,0,38,38,22,,,,,,,,,,,,num_5,0.852893800009042,num_5,0.2,1.0,0.3,0.65,11.46165,24.83358,return,3.2018601002637297,,,,,,,,,,,,,,,,,919,20,female,left_right_width,2024-10-31_11h35.29.004,exp1,2023.1.0,59.9994479449969,
,,,,,,,,,,,,,,,,3,9.5,10,10.5,0,0,0.5,0.1,0.4,1.4000000000000001,10,initial,36.05,342,361,379,0,0,9,9,9,0,0,,,,,,,1,0,1,0,0,39,39,4,,,,,,,,,,,,num_2,0.5976305000949651,num_2,0.25,1.4,0.44999999999999996,0.8,17.19248,30.5644,return,3.899885900085792,,,,,,,,,,,,,,,,,919,20,female,left_right_width,2024-10-31_11h35.29.004,exp1,2023.1.0,59.9994479449969,
,,,,,,,,,,,,,,,,3,9.5,10,10.5,0,0,0.5,0.1,0.4,1.4000000000000001,10,initial,36.05,342,361,379,0,0,9,9,9,0,0,,,,,,,1,0,1,0,0,40,40,27,,,,,,,,,,,,num_2,0.6444845001678914,num_2,0.55,1.4,0.4,0.7,15.2822,26.74385,return,3.224573200335726,,,,,,,,,,,,,,,,,919,20,female,left_right_width,2024-10-31_11h35.29.004,exp1,2023.1.0,59.9994479449969,
,,,,,,,,,,,,,,,,3,9.5,10,10.5,0,0,0.5,0.1,0.4,1.4000000000000001,10,initial,36.05,342,361,379,0,0,9,9,9,0,0,,,,,,,1,0,1,0,0,41,41,33,,,,,,,,,,,,num_2,0.7987911002710462,num_2,0.4,1.2,0.45,0.7,17.19248,26.74385,return,3.786944200284779,,,,,,,,,,,,,,,,,919,20,female,left_right_width,2024-10-31_11h35.29.004,exp1,2023.1.0,59.9994479449969,
,,,,,,,,,,,,,,,,3,9.5,10,10.5,0,0,0.5,0.1,0.4,1.4000000000000001,10,initial,36.05,342,361,379,0,0,9,9,9,0,0,,,,,,,1,0,1,0,0,42,42,35,,,,,,,,,,,,num_2,0.7136536000762135,num_2,0.5,1.4,0.45,0.7,17.19248,26.74385,return,3.0362261002883315,,,,,,,,,,,,,,,,,919,20,female,left_right_width,2024-10-31_11h35.29.004,exp1,2023.1.0,59.9994479449969,
,,,,,,,,,,,,,,,,4,9.25,9.75,10.25,10.75,0,0.5,0.1,0.4,1.9000000000000001,10,initial,36.05,333,351,370,388,0,9,9,9,9,0,,,,,,,1,0,1,0,0,43,43,40,,,,,,,,,,,,num_4,0.9610302001237869,num_4,0.3,0.4,0.35,0.6,13.37193,22.9233,return,2.473353300243616,,,,,,,,,,,,,,,,,919,20,female,left_right_width,2024-10-31_11h35.29.004,exp1,2023.1.0,59.9994479449969,
,,,,,,,,,,,,,,,,5,9,9.5,10,10.5,11,0.5,0.1,0.4,2.4,10,initial,36.05,324,342,361,379,397,9,9,9,9,9,,,,,,,1,0,1,0,0,44,44,53,,,,,,,,,,,,num_4,1.086458100238815,num_4,0.45,0.7,0.35000000000000003,0.6,13.37193,22.9233,return,2.5414494001306593,,,,,,,,,,,,,,,,,919,20,female,left_right_width,2024-10-31_11h35.29.004,exp1,2023.1.0,59.9994479449969,
,,,,,,,,,,,,,,,,4,9.25,9.75,10.25,10.75,0,0.5,0.1,0.4,1.9000000000000001,10,initial,36.05,333,351,370,388,0,9,9,9,9,0,,,,,,,1,0,1,0,0,45,45,10,,,,,,,,,,,,num_4,0.8616852001287043,num_4,0.5,1.2,0.30000000000000004,0.5,11.46165,19.10275,return,2.9056687999982387,,,,,,,,,,,,,,,,,919,20,female,left_right_width,2024-10-31_11h35.29.004,exp1,2023.1.0,59.9994479449969,
,,,,,,,,,,,,,,,,5,9,9.5,10,10.5,11,0.5,0.1,0.4,2.4,10,initial,36.05,324,342,361,379,397,9,9,9,9,9,,,,,,,1,0,1,0,0,46,46,45,,,,,,,,,,,,num_5,1.2622516001574695,num_5,0.25,1.1,0.25,0.55,9.55138,21.01303,return,3.4843154000118375,,,,,,,,,,,,,,,,,919,20,female,left_right_width,2024-10-31_11h35.29.004,exp1,2023.1.0,59.9994479449969,
,,,,,,,,,,,,,,,,3,9.5,10,10.5,0,0,0.5,0.1,0.4,1.4000000000000001,10,initial,36.05,342,361,379,0,0,9,9,9,0,0,,,,,,,1,0,1,0,0,47,47,8,,,,,,,,,,,,num_2,0.8038298001047224,num_2,0.25,1.4,0.39999999999999997,0.6,15.2822,22.9233,return,6.061089900089428,,,,,,,,,,,,,,,,,919,20,female,left_right_width,2024-10-31_11h35.29.004,exp1,2023.1.0,59.9994479449969,
,,,,,,,,,,,,,,,,5,9,9.5,10,10.5,11,0.5,0.1,0.4,2.4,10,initial,36.05,324,342,361,379,397,9,9,9,9,9,,,,,,,1,0,1,0,0,48,48,51,,,,,,,,,,,,num_5,1.209466600092128,num_5,0.45,0.6,0.25000000000000006,0.5,9.55138,19.10275,return,2.5681273001246154,,,,,,,,,,,,,,,,,919,20,female,left_right_width,2024-10-31_11h35.29.004,exp1,2023.1.0,59.9994479449969,
,,,,,,,,,,,,,,,,5,9,9.5,10,10.5,11,0.5,0.1,0.4,2.4,10,initial,36.05,324,342,361,379,397,9,9,9,9,9,,,,,,,1,0,1,0,0,49,49,23,,,,,,,,,,,,num_5,0.834359000204131,num_5,0.3,0.5,0.3,0.6,11.46165,22.9233,return,4.119492600206286,,,,,,,,,,,,,,,,,919,20,female,left_right_width,2024-10-31_11h35.29.004,exp1,2023.1.0,59.9994479449969,
,,,,,,,,,,,,,,,,4,9.25,9.75,10.25,10.75,0,0.5,0.1,0.4,1.9000000000000001,10,initial,36.05,333,351,370,388,0,9,9,9,9,0,,,,,,,1,0,1,0,0,50,50,15,,,,,,,,,,,,num_4,0.7979077002964914,num_4,0.35,0.5,0.25,0.5,9.55138,19.10275,return,1.1969079002738,,,,,,,,,,,,,,,,,919,20,female,left_right_width,2024-10-31_11h35.29.004,exp1,2023.1.0,59.9994479449969,
,,,,,,,,,,,,,,,,4,9.25,9.75,10.25,10.75,0,0.5,0.1,0.4,1.9000000000000001,10,initial,36.05,333,351,370,388,0,9,9,9,9,0,,,,,,,1,0,1,0,0,51,51,36,,,,,,,,,,,,num_4,0.8299901999998838,num_4,0.55,0.6,0.30000000000000004,0.6,11.46165,22.9233,return,2.870846100151539,,,,,,,,,,,,,,,,,919,20,female,left_right_width,2024-10-31_11h35.29.004,exp1,2023.1.0,59.9994479449969,
,,,,,,,,,,,,,,,,3,9.5,10,10.5,0,0,0.5,0.1,0.4,1.4000000000000001,10,initial,36.05,342,361,379,0,0,9,9,9,0,0,,,,,,,1,0,1,0,0,52,52,32,,,,,,,,,,,,num_2,0.7322062000166625,num_2,0.2,1.4,0.44999999999999996,0.7,17.19248,26.74385,return,3.7358664001803845,,,,,,,,,,,,,,,,,919,20,female,left_right_width,2024-10-31_11h35.29.004,exp1,2023.1.0,59.9994479449969,
,,,,,,,,,,,,,,,,5,9,9.5,10,10.5,11,0.5,0.1,0.4,2.4,10,initial,36.05,324,342,361,379,397,9,9,9,9,9,,,,,,,1,0,1,0,0,53,53,46,,,,,,,,,,,,num_5,1.0716700002085418,num_5,0.2,0.6,0.35,0.6,13.37193,22.9233,return,1.876270200125873,,,,,,,,,,,,,,,,,919,20,female,left_right_width,2024-10-31_11h35.29.004,exp1,2023.1.0,59.9994479449969,
,,,,,,,,,,,,,,,,,,,,,,,,,,,,,,,,,,,,,,,,,,,,,1,0,1,0,,,,,,,,,,,,,,,,,,,,,,,,,,,,,1218.838295100024,1218.838295100024,1218.838295100024,,,,,,,,,,,,919,20,female,left_right_width,2024-10-31_11h35.29.004,exp1,2023.1.0,59.9994479449969,
,,,,,,,,,,,,,,,,3,9.1,10,10.9,0,0,0.9,0.35,0.55,2.35,10,initial,36.05,328,361,393,0,0,9,9,9,0,0,,,,,,,2,0,2,0,0,0,0,6,,,,,,,,,,,,num_2,0.9203506000339985,num_2,0.35,1.2,0.65,1.2,24.83358,45.8466,return,4.242842800216749,,,,,,,,,,,,,,,,,919,20,female,left_right_width,2024-10-31_11h35.29.004,exp1,2023.1.0,59.9994479449969,
,,,,,,,,,,,,,,,,3,9.1,10,10.9,0,0,0.9,0.35,0.55,2.35,10,initial,36.05,328,361,393,0,0,9,9,9,0,0,,,,,,,2,0,2,0,0,1,1,30,,,,,,,,,,,,num_4,1.4624731002841145,num_4,0.5,1.1,0.30000000000000004,0.7,11.46165,26.74385,return,4.262005900265649,,,,,,,,,,,,,,,,,919,20,female,left_right_width,2024-10-31_11h35.29.004,exp1,2023.1.0,59.9994479449969,
,,,,,,,,,,,,,,,,4,8.65,9.55,10.45,11.35,0,0.9,0.35,0.55,3.25,10,initial,36.05,312,344,377,409,0,9,9,9,9,0,,,,,,,2,0,2,0,0,2,2,37,,,,,,,,,,,,num_4,0.9418806000612676,num_4,0.45,1.3,0.4,1.0,15.2822,38.2055,return,2.817000700160861,,,,,,,,,,,,,,,,,919,20,female,left_right_width,2024-10-31_11h35.29.004,exp1,2023.1.0,59.9994479449969,
,,,,,,,,,,,,,,,,3,9.1,10,10.9,0,0,0.9,0.35,0.55,2.35,10,initial,36.05,328,361,393,0,0,9,9,9,0,0,,,,,,,2,0,2,0,0,3,3,32,,,,,,,,,,,,num_3,0.9426649999804795,num_3,0.3,1,0.35,0.95,13.37193,36.29523,return,4.222892600111663,,,,,,,,,,,,,,,,,919,20,female,left_right_width,2024-10-31_11h35.29.004,exp1,2023.1.0,59.9994479449969,
,,,,,,,,,,,,,,,,5,8.2,9.1,10,10.9,11.8,0.9,0.35,0.55,4.15,10,initial,36.05,296,328,361,393,425,9,9,9,9,9,,,,,,,2,0,2,0,0,4,4,21,,,,,,,,,,,,num_4,1.074691700283438,num_4,0.25,1.1,0.65,1.3,24.83358,49.66716,return,4.803016100078821,,,,,,,,,,,,,,,,,919,20,female,left_right_width,2024-10-31_11h35.29.004,exp1,2023.1.0,59.9994479449969,
,,,,,,,,,,,,,,,,4,8.65,9.55,10.45,11.35,0,0.9,0.35,0.55,3.25,10,initial,36.05,312,344,377,409,0,9,9,9,9,0,,,,,,,2,0,2,0,0,5,5,38,,,,,,,,,,,,num_4,2.4496351000852883,num_4,0.3,0.7,0.39999999999999997,1.3,15.2822,49.66716,return,5.0164097000379115,,,,,,,,,,,,,,,,,919,20,female,left_right_width,2024-10-31_11h35.29.004,exp1,2023.1.0,59.9994479449969,
,,,,,,,,,,,,,,,,4,8.65,9.55,10.45,11.35,0,0.9,0.35,0.55,3.25,10,initial,36.05,312,344,377,409,0,9,9,9,9,0,,,,,,,2,0,2,0,0,6,6,10,,,,,,,,,,,,num_4,0.8717971001751721,num_4,0.25,0.7,0.39999999999999997,1.4,15.2822,53.48771,return,3.2962841000407934,,,,,,,,,,,,,,,,,919,20,female,left_right_width,2024-10-31_11h35.29.004,exp1,2023.1.0,59.9994479449969,
,,,,,,,,,,,,,,,,4,8.65,9.55,10.45,11.35,0,0.9,0.35,0.55,3.25,10,initial,36.05,312,344,377,409,0,9,9,9,9,0,,,,,,,2,0,2,0,0,7,7,12,,,,,,,,,,,,num_4,0.8655481000896543,num_4,0.5,1.2,0.4,1.4,15.2822,53.48771,return,2.8439985001459718,,,,,,,,,,,,,,,,,919,20,female,left_right_width,2024-10-31_11h35.29.004,exp1,2023.1.0,59.9994479449969,
,,,,,,,,,,,,,,,,3,9.1,10,10.9,0,0,0.9,0.35,0.55,2.35,10,initial,36.05,328,361,393,0,0,9,9,9,0,0,,,,,,,2,0,2,0,0,8,8,4,,,,,,,,,,,,num_3,0.8511387000326067,num_3,0.3,1.1,0.44999999999999996,1.15,17.19248,43.93633,return,1.8823444002773613,,,,,,,,,,,,,,,,,919,20,female,left_right_width,2024-10-31_11h35.29.004,exp1,2023.1.0,59.9994479449969,
,,,,,,,,,,,,,,,,5,8.2,9.1,10,10.9,11.8,0.9,0.35,0.55,4.15,10,initial,36.05,296,328,361,393,425,9,9,9,9,9,,,,,,,2,0,2,0,0,9,9,24,,,,,,,,,,,,num_4,1.0313683000858873,num_4,0.4,0.7,0.55,1.0,21.01303,38.2055,return,3.197706000180915,,,,,,,,,,,,,,,,,919,20,female,left_right_width,2024-10-31_11h35.29.004,exp1,2023.1.0,59.9994479449969,
,,,,,,,,,,,,,,,,4,8.65,9.55,10.45,11.35,0,0.9,0.35,0.55,3.25,10,initial,36.05,312,344,377,409,0,9,9,9,9,0,,,,,,,2,0,2,0,0,10,10,39,,,,,,,,,,,,num_4,0.9553392000962049,num_4,0.35,1.1,0.49999999999999994,1.1,19.10275,42.02605,return,2.7649661002215,,,,,,,,,,,,,,,,,919,20,female,left_right_width,2024-10-31_11h35.29.004,exp1,2023.1.0,59.9994479449969,
,,,,,,,,,,,,,,,,4,8.65,9.55,10.45,11.35,0,0.9,0.35,0.55,3.25,10,initial,36.05,312,344,377,409,0,9,9,9,9,0,,,,,,,2,0,2,0,0,11,11,15,,,,,,,,,,,,num_4,0.8908971999771893,num_4,0.2,1.2,0.39999999999999997,0.9,15.2822,34.38495,return,2.7103886001277715,,,,,,,,,,,,,,,,,919,20,female,left_right_width,2024-10-31_11h35.29.004,exp1,2023.1.0,59.9994479449969,
,,,,,,,,,,,,,,,,5,8.2,9.1,10,10.9,11.8,0.9,0.35,0.55,4.15,10,initial,36.05,296,328,361,393,425,9,9,9,9,9,,,,,,,2,0,2,0,0,12,12,23,,,,,,,,,,,,num_5,1.1229728001635522,num_5,0.55,1.0,0.35000000000000003,1.0,13.37193,38.2055,return,3.965581600088626,,,,,,,,,,,,,,,,,919,20,female,left_right_width,2024-10-31_11h35.29.004,exp1,2023.1.0,59.9994479449969,
,,,,,,,,,,,,,,,,5,8.2,9.1,10,10.9,11.8,0.9,0.35,0.55,4.15,10,initial,36.05,296,328,361,393,425,9,9,9,9,9,,,,,,,2,0,2,0,0,13,13,53,,,,,,,,,,,,num_5,0.9428333002142608,num_5,0.55,0.7,0.45,0.85,17.19248,32.47468,return,4.275149000110105,,,,,,,,,,,,,,,,,919,20,female,left_right_width,2024-10-31_11h35.29.004,exp1,2023.1.0,59.9994479449969,
,,,,,,,,,,,,,,,,4,8.65,9.55,10.45,11.35,0,0.9,0.35,0.55,3.25,10,initial,36.05,312,344,377,409,0,9,9,9,9,0,,,,,,,2,0,2,0,0,14,14,42,,,,,,,,,,,,num_4,0.935259000165388,num_4,0.2,1.2,0.39999999999999997,0.8,15.2822,30.5644,return,3.463040800066665,,,,,,,,,,,,,,,,,919,20,female,left_right_width,2024-10-31_11h35.29.004,exp1,2023.1.0,59.9994479449969,
,,,,,,,,,,,,,,,,3,9.1,10,10.9,0,0,0.9,0.35,0.55,2.35,10,initial,36.05,328,361,393,0,0,9,9,9,0,0,,,,,,,2,0,2,0,0,15,15,8,,,,,,,,,,,,num_3,1.005030400119722,num_3,0.45,0.5,0.7000000000000002,1.0,26.74385,38.2055,return,4.371883400017396,,,,,,,,,,,,,,,,,919,20,female,left_right_width,2024-10-31_11h35.29.004,exp1,2023.1.0,59.9994479449969,
,,,,,,,,,,,,,,,,5,8.2,9.1,10,10.9,11.8,0.9,0.35,0.55,4.15,10,initial,36.05,296,328,361,393,425,9,9,9,9,9,,,,,,,2,0,2,0,0,16,16,48,,,,,,,,,,,,num_5,0.7963378001004457,num_5,0.45,1.0,0.5,0.85,19.10275,32.47468,return,2.6840928001329303,,,,,,,,,,,,,,,,,919,20,female,left_right_width,2024-10-31_11h35.29.004,exp1,2023.1.0,59.9994479449969,
,,,,,,,,,,,,,,,,5,8.2,9.1,10,10.9,11.8,0.9,0.35,0.55,4.15,10,initial,36.05,296,328,361,393,425,9,9,9,9,9,,,,,,,2,0,2,0,0,17,17,19,,,,,,,,,,,,num_5,0.7611562001984566,num_5,0.4,0.9,0.4,0.95,15.2822,36.29523,return,2.948057600064203,,,,,,,,,,,,,,,,,919,20,female,left_right_width,2024-10-31_11h35.29.004,exp1,2023.1.0,59.9994479449969,
,,,,,,,,,,,,,,,,3,9.1,10,10.9,0,0,0.9,0.35,0.55,2.35,10,initial,36.05,328,361,393,0,0,9,9,9,0,0,,,,,,,2,0,2,0,0,18,18,28,,,,,,,,,,,,num_3,0.6678933000657707,num_3,0.5,0.9,0.5,0.9,19.10275,34.38495,return,4.074987800093368,,,,,,,,,,,,,,,,,919,20,female,left_right_width,2024-10-31_11h35.29.004,exp1,2023.1.0,59.9994479449969,
,,,,,,,,,,,,,,,,5,8.2,9.1,10,10.9,11.8,0.9,0.35,0.55,4.15,10,initial,36.05,296,328,361,393,425,9,9,9,9,9,,,,,,,2,0,2,0,0,19,19,18,,,,,,,,,,,,num_4,1.1990274002309889,num_4,0.3,0.5,0.6,0.8,22.9233,30.5644,return,3.4535405000206083,,,,,,,,,,,,,,,,,919,20,female,left_right_width,2024-10-31_11h35.29.004,exp1,2023.1.0,59.9994479449969,
,,,,,,,,,,,,,,,,4,8.65,9.55,10.45,11.35,0,0.9,0.35,0.55,3.25,10,initial,36.05,312,344,377,409,0,9,9,9,9,0,,,,,,,2,0,2,0,0,20,20,44,,,,,,,,,,,,num_4,0.8781886000651866,num_4,0.35,0.5,0.5499999999999999,0.9,21.01303,34.38495,return,3.3047935999929905,,,,,,,,,,,,,,,,,919,20,female,left_right_width,2024-10-31_11h35.29.004,exp1,2023.1.0,59.9994479449969,
,,,,,,,,,,,,,,,,4,8.65,9.55,10.45,11.35,0,0.9,0.35,0.55,3.25,10,initial,36.05,312,344,377,409,0,9,9,9,9,0,,,,,,,2,0,2,0,0,21,21,17,,,,,,,,,,,,num_4,0.8569469000212848,num_4,0.25,0.4,0.49999999999999994,1.1,19.10275,42.02605,return,4.701806900091469,,,,,,,,,,,,,,,,,919,20,female,left_right_width,2024-10-31_11h35.29.004,exp1,2023.1.0,59.9994479449969,
,,,,,,,,,,,,,,,,4,8.65,9.55,10.45,11.35,0,0.9,0.35,0.55,3.25,10,initial,36.05,312,344,377,409,0,9,9,9,9,0,,,,,,,2,0,2,0,0,22,22,40,,,,,,,,,,,,num_4,0.8477036999538541,num_4,0.2,0.9,0.6,1.1,22.9233,42.02605,return,3.1966001002583653,,,,,,,,,,,,,,,,,919,20,female,left_right_width,2024-10-31_11h35.29.004,exp1,2023.1.0,59.9994479449969,
,,,,,,,,,,,,,,,,4,8.65,9.55,10.45,11.35,0,0.9,0.35,0.55,3.25,10,initial,36.05,312,344,377,409,0,9,9,9,9,0,,,,,,,2,0,2,0,0,23,23,36,,,,,,,,,,,,num_4,0.7851457002107054,num_4,0.3,0.5,0.5499999999999999,0.9,21.01303,34.38495,return,3.10423930012621,,,,,,,,,,,,,,,,,919,20,female,left_right_width,2024-10-31_11h35.29.004,exp1,2023.1.0,59.9994479449969,
,,,,,,,,,,,,,,,,5,8.2,9.1,10,10.9,11.8,0.9,0.35,0.55,4.15,10,initial,36.05,296,328,361,393,425,9,9,9,9,9,,,,,,,2,0,2,0,0,24,24,49,,,,,,,,,,,,num_4,0.9810540000908077,num_4,0.45,1.2,0.55,1.2,21.01303,45.8466,return,4.473882999969646,,,,,,,,,,,,,,,,,919,20,female,left_right_width,2024-10-31_11h35.29.004,exp1,2023.1.0,59.9994479449969,
,,,,,,,,,,,,,,,,3,9.1,10,10.9,0,0,0.9,0.35,0.55,2.35,10,initial,36.05,328,361,393,0,0,9,9,9,0,0,,,,,,,2,0,2,0,0,25,25,2,,,,,,,,,,,,num_2,0.598980600014329,num_2,0.2,0.6,0.39999999999999997,0.7,15.2822,26.74385,return,2.3492885001469404,,,,,,,,,,,,,,,,,919,20,female,left_right_width,2024-10-31_11h35.29.004,exp1,2023.1.0,59.9994479449969,
,,,,,,,,,,,,,,,,3,9.1,10,10.9,0,0,0.9,0.35,0.55,2.35,10,initial,36.05,328,361,393,0,0,9,9,9,0,0,,,,,,,2,0,2,0,0,26,26,7,,,,,,,,,,,,num_3,0.7323791000526398,num_3,0.4,1,0.5,1,19.10275,38.2055,return,1.0387188002932817,,,,,,,,,,,,,,,,,919,20,female,left_right_width,2024-10-31_11h35.29.004,exp1,2023.1.0,59.9994479449969,
,,,,,,,,,,,,,,,,4,8.65,9.55,10.45,11.35,0,0.9,0.35,0.55,3.25,10,initial,36.05,312,344,377,409,0,9,9,9,9,0,,,,,,,2,0,2,0,0,27,27,41,,,,,,,,,,,,num_3,0.7126745001878589,num_3,0.25,0.5,0.49999999999999994,0.65,19.10275,24.83358,return,2.3444901001639664,,,,,,,,,,,,,,,,,919,20,female,left_right_width,2024-10-31_11h35.29.004,exp1,2023.1.0,59.9994479449969,
,,,,,,,,,,,,,,,,3,9.1,10,10.9,0,0,0.9,0.35,0.55,2.35,10,initial,36.05,328,361,393,0,0,9,9,9,0,0,,,,,,,2,0,2,0,0,28,28,35,,,,,,,,,,,,num_2,0.7715004999190569,num_2,0.35,1.2,0.5499999999999999,0.9,21.01303,34.38495,return,2.243837400106713,,,,,,,,,,,,,,,,,919,20,female,left_right_width,2024-10-31_11h35.29.004,exp1,2023.1.0,59.9994479449969,
,,,,,,,,,,,,,,,,5,8.2,9.1,10,10.9,11.8,0.9,0.35,0.55,4.15,10,initial,36.05,296,328,361,393,425,9,9,9,9,9,,,,,,,2,0,2,0,0,29,29,51,,,,,,,,,,,,num_4,0.8487002002075315,num_4,0.55,0.8,0.6000000000000001,0.8,22.9233,30.5644,return,1.3589815001469105,,,,,,,,,,,,,,,,,919,20,female,left_right_width,2024-10-31_11h35.29.004,exp1,2023.1.0,59.9994479449969,
,,,,,,,,,,,,,,,,3,9.1,10,10.9,0,0,0.9,0.35,0.55,2.35,10,initial,36.05,328,361,393,0,0,9,9,9,0,0,,,,,,,2,0,2,0,0,30,30,3,,,,,,,,,,,,num_2,1.088005900150165,num_2,0.25,0.8,0.39999999999999997,0.9,15.2822,34.38495,return,1.9617727999575436,,,,,,,,,,,,,,,,,919,20,female,left_right_width,2024-10-31_11h35.29.004,exp1,2023.1.0,59.9994479449969,
,,,,,,,,,,,,,,,,5,8.2,9.1,10,10.9,11.8,0.9,0.35,0.55,4.15,10,initial,36.05,296,328,361,393,425,9,9,9,9,9,,,,,,,2,0,2,0,0,31,31,46,,,,,,,,,,,,num_4,0.7723088001366705,num_4,0.55,1.2,0.35000000000000003,0.9,13.37193,34.38495,return,2.7881785000208765,,,,,,,,,,,,,,,,,919,20,female,left_right_width,2024-10-31_11h35.29.004,exp1,2023.1.0,59.9994479449969,
,,,,,,,,,,,,,,,,4,8.65,9.55,10.45,11.35,0,0.9,0.35,0.55,3.25,10,initial,36.05,312,344,377,409,0,9,9,9,9,0,,,,,,,2,0,2,0,0,32,32,43,,,,,,,,,,,,num_4,0.9046825000550598,num_4,0.3,0.5,0.39999999999999997,0.6,15.2822,22.9233,return,1.4565363000147045,,,,,,,,,,,,,,,,,919,20,female,left_right_width,2024-10-31_11h35.29.004,exp1,2023.1.0,59.9994479449969,
,,,,,,,,,,,,,,,,3,9.1,10,10.9,0,0,0.9,0.35,0.55,2.35,10,initial,36.05,328,361,393,0,0,9,9,9,0,0,,,,,,,2,0,2,0,0,33,33,0,,,,,,,,,,,,num_2,1.0018832001369447,num_2,0.2,0.4,0.5499999999999999,0.7,21.01303,26.74385,return,5.305435599992052,,,,,,,,,,,,,,,,,919,20,female,left_right_width,2024-10-31_11h35.29.004,exp1,2023.1.0,59.9994479449969,
,,,,,,,,,,,,,,,,5,8.2,9.1,10,10.9,11.8,0.9,0.35,0.55,4.15,10,initial,36.05,296,328,361,393,425,9,9,9,9,9,,,,,,,2,0,2,0,0,34,34,25,,,,,,,,,,,,num_4,0.8630278001073748,num_4,0.55,1.3,0.5,0.9,19.10275,34.38495,return,3.8479726002551615,,,,,,,,,,,,,,,,,919,20,female,left_right_width,2024-10-31_11h35.29.004,exp1,2023.1.0,59.9994479449969,
,,,,,,,,,,,,,,,,5,8.2,9.1,10,10.9,11.8,0.9,0.35,0.55,4.15,10,initial,36.05,296,328,361,393,425,9,9,9,9,9,,,,,,,2,0,2,0,0,35,35,26,,,,,,,,,,,,num_4,1.205858499975875,num_4,0.2,0.5,0.44999999999999996,0.8,17.19248,30.5644,return,4.047249700175598,,,,,,,,,,,,,,,,,919,20,female,left_right_width,2024-10-31_11h35.29.004,exp1,2023.1.0,59.9994479449969,
,,,,,,,,,,,,,,,,5,8.2,9.1,10,10.9,11.8,0.9,0.35,0.55,4.15,10,initial,36.05,296,328,361,393,425,9,9,9,9,9,,,,,,,2,0,2,0,0,36,36,50,,,,,,,,,,,,num_5,0.9545001001097262,num_5,0.45,1.2,0.35000000000000003,1.0,13.37193,38.2055,return,5.065826900070533,,,,,,,,,,,,,,,,,919,20,female,left_right_width,2024-10-31_11h35.29.004,exp1,2023.1.0,59.9994479449969,
,,,,,,,,,,,,,,,,5,8.2,9.1,10,10.9,11.8,0.9,0.35,0.55,4.15,10,initial,36.05,296,328,361,393,425,9,9,9,9,9,,,,,,,2,0,2,0,0,37,37,45,,,,,,,,,,,,num_5,0.8446068002376705,num_5,0.35,1.2,0.39999999999999997,1.05,15.2822,40.11578,return,2.8406351001467556,,,,,,,,,,,,,,,,,919,20,female,left_right_width,2024-10-31_11h35.29.004,exp1,2023.1.0,59.9994479449969,
,,,,,,,,,,,,,,,,3,9.1,10,10.9,0,0,0.9,0.35,0.55,2.35,10,initial,36.05,328,361,393,0,0,9,9,9,0,0,,,,,,,2,0,2,0,0,38,38,34,,,,,,,,,,,,num_3,1.0026169002521783,num_3,0.45,0.9,0.4,1.0,15.2822,38.2055,return,2.3505919000599533,,,,,,,,,,,,,,,,,919,20,female,left_right_width,2024-10-31_11h35.29.004,exp1,2023.1.0,59.9994479449969,
,,,,,,,,,,,,,,,,5,8.2,9.1,10,10.9,11.8,0.9,0.35,0.55,4.15,10,initial,36.05,296,328,361,393,425,9,9,9,9,9,,,,,,,2,0,2,0,0,39,39,22,,,,,,,,,,,,num_5,0.7813027000520378,num_5,0.4,1.3,0.35000000000000003,0.95,13.37193,36.29523,return,3.204170700162649,,,,,,,,,,,,,,,,,919,20,female,left_right_width,2024-10-31_11h35.29.004,exp1,2023.1.0,59.9994479449969,
,,,,,,,,,,,,,,,,4,8.65,9.55,10.45,11.35,0,0.9,0.35,0.55,3.25,10,initial,36.05,312,344,377,409,0,9,9,9,9,0,,,,,,,2,0,2,0,0,40,40,11,,,,,,,,,,,,num_4,0.8314708003308624,num_4,0.5,1.2,0.35000000000000003,0.7,13.37193,26.74385,return,2.773710800334811,,,,,,,,,,,,,,,,,919,20,female,left_right_width,2024-10-31_11h35.29.004,exp1,2023.1.0,59.9994479449969,
,,,,,,,,,,,,,,,,3,9.1,10,10.9,0,0,0.9,0.35,0.55,2.35,10,initial,36.05,328,361,393,0,0,9,9,9,0,0,,,,,,,2,0,2,0,0,41,41,1,,,,,,,,,,,,num_3,0.6777815001551062,num_3,0.5,1.1,0.4,0.9,15.2822,34.38495,return,2.487861700123176,,,,,,,,,,,,,,,,,919,20,female,left_right_width,2024-10-31_11h35.29.004,exp1,2023.1.0,59.9994479449969,
,,,,,,,,,,,,,,,,3,9.1,10,10.9,0,0,0.9,0.35,0.55,2.35,10,initial,36.05,328,361,393,0,0,9,9,9,0,0,,,,,,,2,0,2,0,0,42,42,31,,,,,,,,,,,,num_2,0.8154825002420694,num_2,0.25,1.6,0.39999999999999997,0.6,15.2822,22.9233,return,4.025812900159508,,,,,,,,,,,,,,,,,919,20,female,left_right_width,2024-10-31_11h35.29.004,exp1,2023.1.0,59.9994479449969,
,,,,,,,,,,,,,,,,4,8.65,9.55,10.45,11.35,0,0.9,0.35,0.55,3.25,10,initial,36.05,312,344,377,409,0,9,9,9,9,0,,,,,,,2,0,2,0,0,43,43,9,,,,,,,,,,,,num_3,0.7977815999183804,num_3,0.4,1.1,0.35000000000000003,0.7,13.37193,26.74385,return,3.191718000220135,,,,,,,,,,,,,,,,,919,20,female,left_right_width,2024-10-31_11h35.29.004,exp1,2023.1.0,59.9994479449969,
,,,,,,,,,,,,,,,,5,8.2,9.1,10,10.9,11.8,0.9,0.35,0.55,4.15,10,initial,36.05,296,328,361,393,425,9,9,9,9,9,,,,,,,2,0,2,0,0,44,44,52,,,,,,,,,,,,num_5,0.8142886999994516,num_5,0.25,1.3,0.3,0.75,11.46165,28.65413,return,4.811821700073779,,,,,,,,,,,,,,,,,919,20,female,left_right_width,2024-10-31_11h35.29.004,exp1,2023.1.0,59.9994479449969,
,,,,,,,,,,,,,,,,4,8.65,9.55,10.45,11.35,0,0.9,0.35,0.55,3.25,10,initial,36.05,312,344,377,409,0,9,9,9,9,0,,,,,,,2,0,2,0,0,45,45,13,,,,,,,,,,,,num_5,0.7654844000935555,num_5,0.4,0.8,0.30000000000000004,0.8,11.46165,30.5644,return,1.723402100149542,,,,,,,,,,,,,,,,,919,20,female,left_right_width,2024-10-31_11h35.29.004,exp1,2023.1.0,59.9994479449969,
,,,,,,,,,,,,,,,,3,9.1,10,10.9,0,0,0.9,0.35,0.55,2.35,10,initial,36.05,328,361,393,0,0,9,9,9,0,0,,,,,,,2,0,2,0,0,46,46,5,,,,,,,,,,,,num_2,0.754096400225535,num_2,0.45,1.0,0.35000000000000003,1.0,13.37193,38.2055,return,1.2320708001498133,,,,,,,,,,,,,,,,,919,20,female,left_right_width,2024-10-31_11h35.29.004,exp1,2023.1.0,59.9994479449969,
,,,,,,,,,,,,,,,,4,8.65,9.55,10.45,11.35,0,0.9,0.35,0.55,3.25,10,initial,36.05,312,344,377,409,0,9,9,9,9,0,,,,,,,2,0,2,0,0,47,47,16,,,,,,,,,,,,num_4,0.8582030001562089,num_4,0.25,1.3,0.3,0.8,11.46165,30.5644,return,2.6914866000879556,,,,,,,,,,,,,,,,,919,20,female,left_right_width,2024-10-31_11h35.29.004,exp1,2023.1.0,59.9994479449969,
,,,,,,,,,,,,,,,,3,9.1,10,10.9,0,0,0.9,0.35,0.55,2.35,10,initial,36.05,328,361,393,0,0,9,9,9,0,0,,,,,,,2,0,2,0,0,48,48,27,,,,,,,,,,,,num_2,0.7512209000997245,num_2,0.25,0.4,0.39999999999999997,0.7,15.2822,26.74385,return,2.2988009001128376,,,,,,,,,,,,,,,,,919,20,female,left_right_width,2024-10-31_11h35.29.004,exp1,2023.1.0,59.9994479449969,
,,,,,,,,,,,,,,,,3,9.1,10,10.9,0,0,0.9,0.35,0.55,2.35,10,initial,36.05,328,361,393,0,0,9,9,9,0,0,,,,,,,2,0,2,0,0,49,49,33,,,,,,,,,,,,num_3,0.7006598000880331,num_3,0.45,1.3,0.30000000000000004,1.1,11.46165,42.02605,return,2.174313799943775,,,,,,,,,,,,,,,,,919,20,female,left_right_width,2024-10-31_11h35.29.004,exp1,2023.1.0,59.9994479449969,
,,,,,,,,,,,,,,,,5,8.2,9.1,10,10.9,11.8,0.9,0.35,0.55,4.15,10,initial,36.05,296,328,361,393,425,9,9,9,9,9,,,,,,,2,0,2,0,0,50,50,47,,,,,,,,,,,,num_5,0.8329013001639396,num_5,0.45,0.5,0.5,0.75,19.10275,28.65413,return,3.6302106000948697,,,,,,,,,,,,,,,,,919,20,female,left_right_width,2024-10-31_11h35.29.004,exp1,2023.1.0,59.9994479449969,
,,,,,,,,,,,,,,,,4,8.65,9.55,10.45,11.35,0,0.9,0.35,0.55,3.25,10,initial,36.05,312,344,377,409,0,9,9,9,9,0,,,,,,,2,0,2,0,0,51,51,14,,,,,,,,,,,,num_4,0.9674104002770036,num_4,0.4,1.0,0.4,0.7,15.2822,26.74385,return,2.488657800015062,,,,,,,,,,,,,,,,,919,20,female,left_right_width,2024-10-31_11h35.29.004,exp1,2023.1.0,59.9994479449969,
,,,,,,,,,,,,,,,,3,9.1,10,10.9,0,0,0.9,0.35,0.55,2.35,10,initial,36.05,328,361,393,0,0,9,9,9,0,0,,,,,,,2,0,2,0,0,52,52,29,,,,,,,,,,,,num_3,0.7921722999308258,num_3,0.3,0.8,0.35,0.8,13.37193,30.5644,return,1.3846492001321167,,,,,,,,,,,,,,,,,919,20,female,left_right_width,2024-10-31_11h35.29.004,exp1,2023.1.0,59.9994479449969,
,,,,,,,,,,,,,,,,5,8.2,9.1,10,10.9,11.8,0.9,0.35,0.55,4.15,10,initial,36.05,296,328,361,393,425,9,9,9,9,9,,,,,,,2,0,2,0,0,53,53,20,,,,,,,,,,,,num_5,0.8464853002224118,num_5,0.25,0.5,0.39999999999999997,0.6,15.2822,22.9233,return,2.201924700057134,,,,,,,,,,,,,,,,,919,20,female,left_right_width,2024-10-31_11h35.29.004,exp1,2023.1.0,59.9994479449969,
,,,,,,,,,,,,,,,,,,,,,,,,,,,,,,,,,,,,,,,,,,,,,2,0,2,0,,,,,,,,,,,,,,,,,,,,,,,,,,,,,1536.1876431999262,1536.1876431999262,1536.1876431999262,,,,,,,,,,,,919,20,female,left_right_width,2024-10-31_11h35.29.004,exp1,2023.1.0,59.9994479449969,
,,,,,,,,,,,,,,,,3,9.5,10,10.5,0,0,0.5,0.1,0.4,1.4000000000000001,10,initial,36.05,342,361,379,0,0,9,9,9,0,0,,,,,,,3,0,3,0,0,0,0,1,,,,,,,,,,,,num_2,0.9437490003183484,num_2,0.45,0.8,0.30000000000000004,0.5,11.46165,19.10275,return,3.8486461001448333,,,,,,,,,,,,,,,,,919,20,female,left_right_width,2024-10-31_11h35.29.004,exp1,2023.1.0,59.9994479449969,
,,,,,,,,,,,,,,,,3,9.5,10,10.5,0,0,0.5,0.1,0.4,1.4000000000000001,10,initial,36.05,342,361,379,0,0,9,9,9,0,0,,,,,,,3,0,3,0,0,1,1,6,,,,,,,,,,,,num_2,0.744285800261423,num_2,0.35,0.4,0.3,0.5,11.46165,19.10275,return,2.9812884002458304,,,,,,,,,,,,,,,,,919,20,female,left_right_width,2024-10-31_11h35.29.004,exp1,2023.1.0,59.9994479449969,
,,,,,,,,,,,,,,,,5,9,9.5,10,10.5,11,0.5,0.1,0.4,2.4,10,initial,36.05,324,342,361,379,397,9,9,9,9,9,,,,,,,3,0,3,0,0,2,2,53,,,,,,,,,,,,num_3,0.7554291002452374,num_3,0.45,1,0.45,0.8,17.19248,30.5644,return,3.9565801001153886,,,,,,,,,,,,,,,,,919,20,female,left_right_width,2024-10-31_11h35.29.004,exp1,2023.1.0,59.9994479449969,
,,,,,,,,,,,,,,,,4,9.25,9.75,10.25,10.75,0,0.5,0.1,0.4,1.9000000000000001,10,initial,36.05,333,351,370,388,0,9,9,9,9,0,,,,,,,3,0,3,0,0,3,3,37,,,,,,,,,,,,num_3,0.7263720999471843,num_3,0.25,1.1,0.3,0.45,11.46165,17.19248,return,5.336050200276077,,,,,,,,,,,,,,,,,919,20,female,left_right_width,2024-10-31_11h35.29.004,exp1,2023.1.0,59.9994479449969,
,,,,,,,,,,,,,,,,5,9,9.5,10,10.5,11,0.5,0.1,0.4,2.4,10,initial,36.05,324,342,361,379,397,9,9,9,9,9,,,,,,,3,0,3,0,0,4,4,51,,,,,,,,,,,,num_3,0.988730699988082,num_3,0.2,0.9,0.35,0.45,13.37193,17.19248,return,7.409209900069982,,,,,,,,,,,,,,,,,919,20,female,left_right_width,2024-10-31_11h35.29.004,exp1,2023.1.0,59.9994479449969,
,,,,,,,,,,,,,,,,3,9.5,10,10.5,0,0,0.5,0.1,0.4,1.4000000000000001,10,initial,36.05,342,361,379,0,0,9,9,9,0,0,,,,,,,3,0,3,0,0,5,5,4,,,,,,,,,,,,num_3,0.8021557000465691,num_3,0.2,1.2,0.25,0.35,9.55138,13.37193,return,6.379700700053945,,,,,,,,,,,,,,,,,919,20,female,left_right_width,2024-10-31_11h35.29.004,exp1,2023.1.0,59.9994479449969,
,,,,,,,,,,,,,,,,3,9.5,10,10.5,0,0,0.5,0.1,0.4,1.4000000000000001,10,initial,36.05,342,361,379,0,0,9,9,9,0,0,,,,,,,3,0,3,0,0,6,6,27,,,,,,,,,,,,num_2,0.9218250000849366,num_2,0.55,0.8,0.15000000000000008,0.3,5.73083,11.46165,return,4.0299755001906306,,,,,,,,,,,,,,,,,919,20,female,left_right_width,2024-10-31_11h35.29.004,exp1,2023.1.0,59.9994479449969,
,,,,,,,,,,,,,,,,5,9,9.5,10,10.5,11,0.5,0.1,0.4,2.4,10,initial,36.05,324,342,361,379,397,9,9,9,9,9,,,,,,,3,0,3,0,0,7,7,24,,,,,,,,,,,,num_3,0.9113816001918167,num_3,0.3,0.5,0.35,0.5,13.37193,19.10275,return,4.964889200171456,,,,,,,,,,,,,,,,,919,20,female,left_right_width,2024-10-31_11h35.29.004,exp1,2023.1.0,59.9994479449969,
,,,,,,,,,,,,,,,,4,9.25,9.75,10.25,10.75,0,0.5,0.1,0.4,1.9000000000000001,10,initial,36.05,333,351,370,388,0,9,9,9,9,0,,,,,,,3,0,3,0,0,8,8,15,,,,,,,,,,,,num_3,0.7487941002473235,num_3,0.2,0.5,0.49999999999999994,0.65,19.10275,24.83358,return,6.315817400114611,,,,,,,,,,,,,,,,,919,20,female,left_right_width,2024-10-31_11h35.29.004,exp1,2023.1.0,59.9994479449969,
,,,,,,,,,,,,,,,,3,9.5,10,10.5,0,0,0.5,0.1,0.4,1.4000000000000001,10,initial,36.05,342,361,379,0,0,9,9,9,0,0,,,,,,,3,0,3,0,0,9,9,7,,,,,,,,,,,,num_2,0.8087011000607163,num_2,0.35,1.2,0.3,0.4,11.46165,15.2822,return,3.8472096000332385,,,,,,,,,,,,,,,,,919,20,female,left_right_width,2024-10-31_11h35.29.004,exp1,2023.1.0,59.9994479449969,
,,,,,,,,,,,,,,,,5,9,9.5,10,10.5,11,0.5,0.1,0.4,2.4,10,initial,36.05,324,342,361,379,397,9,9,9,9,9,,,,,,,3,0,3,0,0,10,10,19,,,,,,,,,,,,num_5,0.8696630001068115,num_5,0.3,1.0,0.3,0.55,11.46165,21.01303,return,4.386952399974689,,,,,,,,,,,,,,,,,919,20,female,left_right_width,2024-10-31_11h35.29.004,exp1,2023.1.0,59.9994479449969,
,,,,,,,,,,,,,,,,4,9.25,9.75,10.25,10.75,0,0.5,0.1,0.4,1.9000000000000001,10,initial,36.05,333,351,370,388,0,9,9,9,9,0,,,,,,,3,0,3,0,0,11,11,43,,,,,,,,,,,,num_3,0.7313513001427054,num_3,0.45,1,0.35000000000000003,0.5,13.37193,19.10275,return,5.149370400235057,,,,,,,,,,,,,,,,,919,20,female,left_right_width,2024-10-31_11h35.29.004,exp1,2023.1.0,59.9994479449969,
,,,,,,,,,,,,,,,,3,9.5,10,10.5,0,0,0.5,0.1,0.4,1.4000000000000001,10,initial,36.05,342,361,379,0,0,9,9,9,0,0,,,,,,,3,0,3,0,0,12,12,5,,,,,,,,,,,,num_2,0.8667122002225369,num_2,0.45,0.6,0.5,0.6,19.10275,22.9233,return,1.0961449001915753,,,,,,,,,,,,,,,,,919,20,female,left_right_width,2024-10-31_11h35.29.004,exp1,2023.1.0,59.9994479449969,
,,,,,,,,,,,,,,,,4,9.25,9.75,10.25,10.75,0,0.5,0.1,0.4,1.9000000000000001,10,initial,36.05,333,351,370,388,0,9,9,9,9,0,,,,,,,3,0,3,0,0,13,13,40,,,,,,,,,,,,num_3,0.6571520001161844,num_3,0.4,0.6,0.35000000000000003,0.5,13.37193,19.10275,return,2.7686698001343757,,,,,,,,,,,,,,,,,919,20,female,left_right_width,2024-10-31_11h35.29.004,exp1,2023.1.0,59.9994479449969,
,,,,,,,,,,,,,,,,5,9,9.5,10,10.5,11,0.5,0.1,0.4,2.4,10,initial,36.05,324,342,361,379,397,9,9,9,9,9,,,,,,,3,0,3,0,0,14,14,23,,,,,,,,,,,,num_5,1.098333900095895,num_5,0.3,1.1,0.3,0.65,11.46165,24.83358,return,3.6900704000145197,,,,,,,,,,,,,,,,,919,20,female,left_right_width,2024-10-31_11h35.29.004,exp1,2023.1.0,59.9994479449969,
,,,,,,,,,,,,,,,,5,9,9.5,10,10.5,11,0.5,0.1,0.4,2.4,10,initial,36.05,324,342,361,379,397,9,9,9,9,9,,,,,,,3,0,3,0,0,15,15,45,,,,,,,,,,,,num_5,0.9290501002687961,num_5,0.35,1.0,0.3,0.5,11.46165,19.10275,return,3.7866146001033485,,,,,,,,,,,,,,,,,919,20,female,left_right_width,2024-10-31_11h35.29.004,exp1,2023.1.0,59.9994479449969,
,,,,,,,,,,,,,,,,4,9.25,9.75,10.25,10.75,0,0.5,0.1,0.4,1.9000000000000001,10,initial,36.05,333,351,370,388,0,9,9,9,9,0,,,,,,,3,0,3,0,0,16,16,9,,,,,,,,,,,,num_3,0.7903523000422865,num_3,0.3,1.2,0.35,0.5,13.37193,19.10275,return,4.771322200074792,,,,,,,,,,,,,,,,,919,20,female,left_right_width,2024-10-31_11h35.29.004,exp1,2023.1.0,59.9994479449969,
,,,,,,,,,,,,,,,,4,9.25,9.75,10.25,10.75,0,0.5,0.1,0.4,1.9000000000000001,10,initial,36.05,333,351,370,388,0,9,9,9,9,0,,,,,,,3,0,3,0,0,17,17,12,,,,,,,,,,,,num_3,0.7757408001925796,num_3,0.5,0.7,0.35000000000000003,0.6,13.37193,22.9233,return,2.548128600232303,,,,,,,,,,,,,,,,,919,20,female,left_right_width,2024-10-31_11h35.29.004,exp1,2023.1.0,59.9994479449969,
,,,,,,,,,,,,,,,,4,9.25,9.75,10.25,10.75,0,0.5,0.1,0.4,1.9000000000000001,10,initial,36.05,333,351,370,388,0,9,9,9,9,0,,,,,,,3,0,3,0,0,18,18,14,,,,,,,,,,,,num_3,0.7766898002009839,num_3,0.3,1.1,0.35,0.45,13.37193,17.19248,return,5.029166700085625,,,,,,,,,,,,,,,,,919,20,female,left_right_width,2024-10-31_11h35.29.004,exp1,2023.1.0,59.9994479449969,
,,,,,,,,,,,,,,,,5,9,9.5,10,10.5,11,0.5,0.1,0.4,2.4,10,initial,36.05,324,342,361,379,397,9,9,9,9,9,,,,,,,3,0,3,0,0,19,19,48,,,,,,,,,,,,num_5,0.9611784000881016,num_5,0.3,1.2,0.25,0.55,9.55138,21.01303,return,4.532975200098008,,,,,,,,,,,,,,,,,919,20,female,left_right_width,2024-10-31_11h35.29.004,exp1,2023.1.0,59.9994479449969,
,,,,,,,,,,,,,,,,4,9.25,9.75,10.25,10.75,0,0.5,0.1,0.4,1.9000000000000001,10,initial,36.05,333,351,370,388,0,9,9,9,9,0,,,,,,,3,0,3,0,0,20,20,36,,,,,,,,,,,,num_2,0.7008845002856106,num_2,0.45,1.0,0.35000000000000003,0.5,13.37193,19.10275,return,3.208817300153896,,,,,,,,,,,,,,,,,919,20,female,left_right_width,2024-10-31_11h35.29.004,exp1,2023.1.0,59.9994479449969,
,,,,,,,,,,,,,,,,3,9.5,10,10.5,0,0,0.5,0.1,0.4,1.4000000000000001,10,initial,36.05,342,361,379,0,0,9,9,9,0,0,,,,,,,3,0,3,0,0,21,21,0,,,,,,,,,,,,num_2,0.8182337002363056,num_2,0.3,1.2,0.3,0.5,11.46165,19.10275,return,2.6872016002889723,,,,,,,,,,,,,,,,,919,20,female,left_right_width,2024-10-31_11h35.29.004,exp1,2023.1.0,59.9994479449969,
,,,,,,,,,,,,,,,,3,9.5,10,10.5,0,0,0.5,0.1,0.4,1.4000000000000001,10,initial,36.05,342,361,379,0,0,9,9,9,0,0,,,,,,,3,0,3,0,0,22,22,31,,,,,,,,,,,,num_2,0.9520686999894679,num_2,0.5,1.6,0.35000000000000003,0.5,13.37193,19.10275,return,3.6258957001846284,,,,,,,,,,,,,,,,,919,20,female,left_right_width,2024-10-31_11h35.29.004,exp1,2023.1.0,59.9994479449969,
,,,,,,,,,,,,,,,,3,9.5,10,10.5,0,0,0.5,0.1,0.4,1.4000000000000001,10,initial,36.05,342,361,379,0,0,9,9,9,0,0,,,,,,,3,0,3,0,0,23,23,28,,,,,,,,,,,,num_2,1.3988876000512391,num_2,0.2,1.6,0.25,0.4,9.55138,15.2822,return,5.182319300016388,,,,,,,,,,,,,,,,,919,20,female,left_right_width,2024-10-31_11h35.29.004,exp1,2023.1.0,59.9994479449969,
,,,,,,,,,,,,,,,,4,9.25,9.75,10.25,10.75,0,0.5,0.1,0.4,1.9000000000000001,10,initial,36.05,333,351,370,388,0,9,9,9,9,0,,,,,,,3,0,3,0,0,24,24,41,,,,,,,,,,,,num_3,0.8394895000383258,num_3,0.35,0.8,0.3,0.45,11.46165,17.19248,return,2.704162700101733,,,,,,,,,,,,,,,,,919,20,female,left_right_width,2024-10-31_11h35.29.004,exp1,2023.1.0,59.9994479449969,
,,,,,,,,,,,,,,,,3,9.5,10,10.5,0,0,0.5,0.1,0.4,1.4000000000000001,10,initial,36.05,342,361,379,0,0,9,9,9,0,0,,,,,,,3,0,3,0,0,25,25,3,,,,,,,,,,,,num_3,1.1455781001131982,num_3,0.25,1.3,0.25,0.4,9.55138,15.2822,return,5.623450100189075,,,,,,,,,,,,,,,,,919,20,female,left_right_width,2024-10-31_11h35.29.004,exp1,2023.1.0,59.9994479449969,
,,,,,,,,,,,,,,,,5,9,9.5,10,10.5,11,0.5,0.1,0.4,2.4,10,initial,36.05,324,342,361,379,397,9,9,9,9,9,,,,,,,3,0,3,0,0,26,26,50,,,,,,,,,,,,num_5,0.8024075001012534,num_5,0.2,0.7,0.25,0.35,9.55138,13.37193,return,3.0419846002478153,,,,,,,,,,,,,,,,,919,20,female,left_right_width,2024-10-31_11h35.29.004,exp1,2023.1.0,59.9994479449969,
,,,,,,,,,,,,,,,,4,9.25,9.75,10.25,10.75,0,0.5,0.1,0.4,1.9000000000000001,10,initial,36.05,333,351,370,388,0,9,9,9,9,0,,,,,,,3,0,3,0,0,27,27,42,,,,,,,,,,,,num_3,0.7521784002892673,num_3,0.2,0.8,0.35,0.45,13.37193,17.19248,return,3.8487190001178533,,,,,,,,,,,,,,,,,919,20,female,left_right_width,2024-10-31_11h35.29.004,exp1,2023.1.0,59.9994479449969,
,,,,,,,,,,,,,,,,5,9,9.5,10,10.5,11,0.5,0.1,0.4,2.4,10,initial,36.05,324,342,361,379,397,9,9,9,9,9,,,,,,,3,0,3,0,0,28,28,25,,,,,,,,,,,,num_5,0.7784119001589715,num_5,0.2,0.3,0.35,0.5,13.37193,19.10275,return,3.9623518001753837,,,,,,,,,,,,,,,,,919,20,female,left_right_width,2024-10-31_11h35.29.004,exp1,2023.1.0,59.9994479449969,
,,,,,,,,,,,,,,,,4,9.25,9.75,10.25,10.75,0,0.5,0.1,0.4,1.9000000000000001,10,initial,36.05,333,351,370,388,0,9,9,9,9,0,,,,,,,3,0,3,0,0,29,29,44,,,,,,,,,,,,num_3,0.8892175001092255,num_3,0.4,0.5,0.5,0.65,19.10275,24.83358,return,3.0080963000655174,,,,,,,,,,,,,,,,,919,20,female,left_right_width,2024-10-31_11h35.29.004,exp1,2023.1.0,59.9994479449969,
,,,,,,,,,,,,,,,,4,9.25,9.75,10.25,10.75,0,0.5,0.1,0.4,1.9000000000000001,10,initial,36.05,333,351,370,388,0,9,9,9,9,0,,,,,,,3,0,3,0,0,30,30,38,,,,,,,,,,,,num_3,0.6968505999539047,num_3,0.45,1,0.30000000000000004,0.55,11.46165,21.01303,return,3.034876399906352,,,,,,,,,,,,,,,,,919,20,female,left_right_width,2024-10-31_11h35.29.004,exp1,2023.1.0,59.9994479449969,
,,,,,,,,,,,,,,,,3,9.5,10,10.5,0,0,0.5,0.1,0.4,1.4000000000000001,10,initial,36.05,342,361,379,0,0,9,9,9,0,0,,,,,,,3,0,3,0,0,31,31,30,,,,,,,,,,,,num_2,1.1242203002329916,num_2,0.2,1.0,0.39999999999999997,0.6,15.2822,22.9233,return,4.86560930009,,,,,,,,,,,,,,,,,919,20,female,left_right_width,2024-10-31_11h35.29.004,exp1,2023.1.0,59.9994479449969,
,,,,,,,,,,,,,,,,3,9.5,10,10.5,0,0,0.5,0.1,0.4,1.4000000000000001,10,initial,36.05,342,361,379,0,0,9,9,9,0,0,,,,,,,3,0,3,0,0,32,32,29,,,,,,,,,,,,num_2,0.6953052002936602,num_2,0.35,0.6,0.3,0.7,11.46165,26.74385,return,2.133623600238934,,,,,,,,,,,,,,,,,919,20,female,left_right_width,2024-10-31_11h35.29.004,exp1,2023.1.0,59.9994479449969,
,,,,,,,,,,,,,,,,5,9,9.5,10,10.5,11,0.5,0.1,0.4,2.4,10,initial,36.05,324,342,361,379,397,9,9,9,9,9,,,,,,,3,0,3,0,0,33,33,47,,,,,,,,,,,,num_5,0.9896597999613732,num_5,0.3,0.8,0.3,0.6,11.46165,22.9233,return,2.365857400232926,,,,,,,,,,,,,,,,,919,20,female,left_right_width,2024-10-31_11h35.29.004,exp1,2023.1.0,59.9994479449969,
,,,,,,,,,,,,,,,,3,9.5,10,10.5,0,0,0.5,0.1,0.4,1.4000000000000001,10,initial,36.05,342,361,379,0,0,9,9,9,0,0,,,,,,,3,0,3,0,0,34,34,2,,,,,,,,,,,,num_2,0.8450440999586135,num_2,0.35,1.6,0.3,0.6,11.46165,22.9233,return,3.4923147002700716,,,,,,,,,,,,,,,,,919,20,female,left_right_width,2024-10-31_11h35.29.004,exp1,2023.1.0,59.9994479449969,
,,,,,,,,,,,,,,,,5,9,9.5,10,10.5,11,0.5,0.1,0.4,2.4,10,initial,36.05,324,342,361,379,397,9,9,9,9,9,,,,,,,3,0,3,0,0,35,35,52,,,,,,,,,,,,num_5,0.8813762001227587,num_5,0.4,0.8,0.25000000000000006,0.65,9.55138,24.83358,return,2.1026056001428515,,,,,,,,,,,,,,,,,919,20,female,left_right_width,2024-10-31_11h35.29.004,exp1,2023.1.0,59.9994479449969,
,,,,,,,,,,,,,,,,5,9,9.5,10,10.5,11,0.5,0.1,0.4,2.4,10,initial,36.05,324,342,361,379,397,9,9,9,9,9,,,,,,,3,0,3,0,0,36,36,18,,,,,,,,,,,,num_5,0.7892877999693155,num_5,0.25,0.9,0.3,0.5,11.46165,19.10275,return,3.105877700028941,,,,,,,,,,,,,,,,,919,20,female,left_right_width,2024-10-31_11h35.29.004,exp1,2023.1.0,59.9994479449969,
,,,,,,,,,,,,,,,,4,9.25,9.75,10.25,10.75,0,0.5,0.1,0.4,1.9000000000000001,10,initial,36.05,333,351,370,388,0,9,9,9,9,0,,,,,,,3,0,3,0,0,37,37,10,,,,,,,,,,,,num_3,0.8019164002034813,num_3,0.2,1.2,0.3,0.6,11.46165,22.9233,return,4.87732580001466,,,,,,,,,,,,,,,,,919,20,female,left_right_width,2024-10-31_11h35.29.004,exp1,2023.1.0,59.9994479449969,
,,,,,,,,,,,,,,,,5,9,9.5,10,10.5,11,0.5,0.1,0.4,2.4,10,initial,36.05,324,342,361,379,397,9,9,9,9,9,,,,,,,3,0,3,0,0,38,38,49,,,,,,,,,,,,num_4,0.9109620000235736,num_4,0.55,0.9,0.25000000000000006,0.6,9.55138,22.9233,return,5.641111900098622,,,,,,,,,,,,,,,,,919,20,female,left_right_width,2024-10-31_11h35.29.004,exp1,2023.1.0,59.9994479449969,
,,,,,,,,,,,,,,,,5,9,9.5,10,10.5,11,0.5,0.1,0.4,2.4,10,initial,36.05,324,342,361,379,397,9,9,9,9,9,,,,,,,3,0,3,0,0,39,39,20,,,,,,,,,,,,num_4,0.7719985002186149,num_4,0.55,0.8,0.25000000000000006,0.5,9.55138,19.10275,return,2.689649400068447,,,,,,,,,,,,,,,,,919,20,female,left_right_width,2024-10-31_11h35.29.004,exp1,2023.1.0,59.9994479449969,
,,,,,,,,,,,,,,,,4,9.25,9.75,10.25,10.75,0,0.5,0.1,0.4,1.9000000000000001,10,initial,36.05,333,351,370,388,0,9,9,9,9,0,,,,,,,3,0,3,0,0,40,40,17,,,,,,,,,,,,num_4,1.138454900123179,num_4,0.4,1.2,0.30000000000000004,0.5,11.46165,19.10275,return,2.5752973000053316,,,,,,,,,,,,,,,,,919,20,female,left_right_width,2024-10-31_11h35.29.004,exp1,2023.1.0,59.9994479449969,
,,,,,,,,,,,,,,,,5,9,9.5,10,10.5,11,0.5,0.1,0.4,2.4,10,initial,36.05,324,342,361,379,397,9,9,9,9,9,,,,,,,3,0,3,0,0,41,41,21,,,,,,,,,,,,num_4,0.741723800310865,num_4,0.4,0.9,0.25000000000000006,0.4,9.55138,15.2822,return,2.5445421000476927,,,,,,,,,,,,,,,,,919,20,female,left_right_width,2024-10-31_11h35.29.004,exp1,2023.1.0,59.9994479449969,
,,,,,,,,,,,,,,,,5,9,9.5,10,10.5,11,0.5,0.1,0.4,2.4,10,initial,36.05,324,342,361,379,397,9,9,9,9,9,,,,,,,3,0,3,0,0,42,42,46,,,,,,,,,,,,num_4,0.7404742001090199,num_4,0.25,0.4,0.2,0.4,7.6411,15.2822,return,2.5149674999993294,,,,,,,,,,,,,,,,,919,20,female,left_right_width,2024-10-31_11h35.29.004,exp1,2023.1.0,59.9994479449969,
,,,,,,,,,,,,,,,,3,9.5,10,10.5,0,0,0.5,0.1,0.4,1.4000000000000001,10,initial,36.05,342,361,379,0,0,9,9,9,0,0,,,,,,,3,0,3,0,0,43,43,35,,,,,,,,,,,,num_2,0.6800047000870109,num_2,0.55,0.6,0.30000000000000004,0.5,11.46165,19.10275,return,2.1392716001719236,,,,,,,,,,,,,,,,,919,20,female,left_right_width,2024-10-31_11h35.29.004,exp1,2023.1.0,59.9994479449969,
,,,,,,,,,,,,,,,,4,9.25,9.75,10.25,10.75,0,0.5,0.1,0.4,1.9000000000000001,10,initial,36.05,333,351,370,388,0,9,9,9,9,0,,,,,,,3,0,3,0,0,44,44,39,,,,,,,,,,,,num_3,0.9433661000803113,num_3,0.2,1.1,0.25,0.55,9.55138,21.01303,return,4.062947600148618,,,,,,,,,,,,,,,,,919,20,female,left_right_width,2024-10-31_11h35.29.004,exp1,2023.1.0,59.9994479449969,
,,,,,,,,,,,,,,,,3,9.5,10,10.5,0,0,0.5,0.1,0.4,1.4000000000000001,10,initial,36.05,342,361,379,0,0,9,9,9,0,0,,,,,,,3,0,3,0,0,45,45,34,,,,,,,,,,,,num_2,0.7179366000927985,num_2,0.35,0.8,0.25,0.5,9.55138,19.10275,return,1.6491300002671778,,,,,,,,,,,,,,,,,919,20,female,left_right_width,2024-10-31_11h35.29.004,exp1,2023.1.0,59.9994479449969,
,,,,,,,,,,,,,,,,4,9.25,9.75,10.25,10.75,0,0.5,0.1,0.4,1.9000000000000001,10,initial,36.05,333,351,370,388,0,9,9,9,9,0,,,,,,,3,0,3,0,0,46,46,11,,,,,,,,,,,,num_3,0.7679697000421584,num_3,0.2,0.7,0.39999999999999997,0.6,15.2822,22.9233,return,1.6920946000609547,,,,,,,,,,,,,,,,,919,20,female,left_right_width,2024-10-31_11h35.29.004,exp1,2023.1.0,59.9994479449969,
,,,,,,,,,,,,,,,,5,9,9.5,10,10.5,11,0.5,0.1,0.4,2.4,10,initial,36.05,324,342,361,379,397,9,9,9,9,9,,,,,,,3,0,3,0,0,47,47,22,,,,,,,,,,,,num_4,0.7550213001668453,num_4,0.25,0.9,0.25,0.5,9.55138,19.10275,return,2.7071521000470966,,,,,,,,,,,,,,,,,919,20,female,left_right_width,2024-10-31_11h35.29.004,exp1,2023.1.0,59.9994479449969,
,,,,,,,,,,,,,,,,4,9.25,9.75,10.25,10.75,0,0.5,0.1,0.4,1.9000000000000001,10,initial,36.05,333,351,370,388,0,9,9,9,9,0,,,,,,,3,0,3,0,0,48,48,13,,,,,,,,,,,,num_3,0.6893618002068251,num_3,0.4,0.7,0.25000000000000006,0.7,9.55138,26.74385,return,1.8893362001981586,,,,,,,,,,,,,,,,,919,20,female,left_right_width,2024-10-31_11h35.29.004,exp1,2023.1.0,59.9994479449969,
,,,,,,,,,,,,,,,,4,9.25,9.75,10.25,10.75,0,0.5,0.1,0.4,1.9000000000000001,10,initial,36.05,333,351,370,388,0,9,9,9,9,0,,,,,,,3,0,3,0,0,49,49,16,,,,,,,,,,,,num_3,0.825878799892962,num_3,0.25,1.2,0.35,0.65,13.37193,24.83358,return,4.132838800083846,,,,,,,,,,,,,,,,,919,20,female,left_right_width,2024-10-31_11h35.29.004,exp1,2023.1.0,59.9994479449969,
,,,,,,,,,,,,,,,,5,9,9.5,10,10.5,11,0.5,0.1,0.4,2.4,10,initial,36.05,324,342,361,379,397,9,9,9,9,9,,,,,,,3,0,3,0,0,50,50,26,,,,,,,,,,,,num_3,0.9236219001468271,num_3,0.25,1.2,0.35,0.65,13.37193,24.83358,return,3.813056600280106,,,,,,,,,,,,,,,,,919,20,female,left_right_width,2024-10-31_11h35.29.004,exp1,2023.1.0,59.9994479449969,
,,,,,,,,,,,,,,,,3,9.5,10,10.5,0,0,0.5,0.1,0.4,1.4000000000000001,10,initial,36.05,342,361,379,0,0,9,9,9,0,0,,,,,,,3,0,3,0,0,51,51,32,,,,,,,,,,,,num_2,0.7031870000064373,num_2,0.35,1.4,0.35,0.6,13.37193,22.9233,return,2.778185300063342,,,,,,,,,,,,,,,,,919,20,female,left_right_width,2024-10-31_11h35.29.004,exp1,2023.1.0,59.9994479449969,
,,,,,,,,,,,,,,,,3,9.5,10,10.5,0,0,0.5,0.1,0.4,1.4000000000000001,10,initial,36.05,342,361,379,0,0,9,9,9,0,0,,,,,,,3,0,3,0,0,52,52,33,,,,,,,,,,,,num_2,0.6350555000826716,num_2,0.4,0.8,0.30000000000000004,0.5,11.46165,19.10275,return,1.5842440002597868,,,,,,,,,,,,,,,,,919,20,female,left_right_width,2024-10-31_11h35.29.004,exp1,2023.1.0,59.9994479449969,
,,,,,,,,,,,,,,,,3,9.5,10,10.5,0,0,0.5,0.1,0.4,1.4000000000000001,10,initial,36.05,342,361,379,0,0,9,9,9,0,0,,,,,,,3,0,3,0,0,53,53,8,,,,,,,,,,,,num_2,0.7285670002456754,num_2,0.35,0.8,0.3,0.5,11.46165,19.10275,return,1.401289900066331,,,,,,,,,,,,,,,,,919,20,female,left_right_width,2024-10-31_11h35.29.004,exp1,2023.1.0,59.9994479449969,
,,,,,,,,,,,,,,,,,,,,,,,,,,,,,,,,,,,,,,,,,,,,,3,0,3,0,,,,,,,,,,,,,,,,,,,,,,,,,,,,,1910.6035315999761,1910.6035315999761,1910.6035315999761,,,,,,,,,,,,919,20,female,left_right_width,2024-10-31_11h35.29.004,exp1,2023.1.0,59.9994479449969,
,,,,,,,,,,,,,,,,3,9.1,10,10.9,0,0,0.9,0.35,0.55,2.35,10,initial,36.05,328,361,393,0,0,9,9,9,0,0,,,,,,,4,0,4,0,0,0,0,32,,,,,,,,,,,,num_2,0.9145927999634296,num_2,0.35,1.6,0.44999999999999996,1.4,17.19248,53.48771,return,2.125163200078532,,,,,,,,,,,,,,,,,919,20,female,left_right_width,2024-10-31_11h35.29.004,exp1,2023.1.0,59.9994479449969,
,,,,,,,,,,,,,,,,4,8.65,9.55,10.45,11.35,0,0.9,0.35,0.55,3.25,10,initial,36.05,312,344,377,409,0,9,9,9,9,0,,,,,,,4,0,4,0,0,1,1,13,,,,,,,,,,,,num_4,0.7952388001140207,num_4,0.45,1.3,0.45,1.3,17.19248,49.66716,return,1.1752133001573384,,,,,,,,,,,,,,,,,919,20,female,left_right_width,2024-10-31_11h35.29.004,exp1,2023.1.0,59.9994479449969,
,,,,,,,,,,,,,,,,3,9.1,10,10.9,0,0,0.9,0.35,0.55,2.35,10,initial,36.05,328,361,393,0,0,9,9,9,0,0,,,,,,,4,0,4,0,0,2,2,29,,,,,,,,,,,,num_3,0.968416600022465,num_3,0.4,0.6,0.45,0.85,17.19248,32.47468,return,4.208416500128806,,,,,,,,,,,,,,,,,919,20,female,left_right_width,2024-10-31_11h35.29.004,exp1,2023.1.0,59.9994479449969,
,,,,,,,,,,,,,,,,4,8.65,9.55,10.45,11.35,0,0.9,0.35,0.55,3.25,10,initial,36.05,312,344,377,409,0,9,9,9,9,0,,,,,,,4,0,4,0,0,3,3,44,,,,,,,,,,,,num_4,0.8103835000656545,num_4,0.45,0.6,0.5,1.1,19.10275,42.02605,return,1.8600041002500802,,,,,,,,,,,,,,,,,919,20,female,left_right_width,2024-10-31_11h35.29.004,exp1,2023.1.0,59.9994479449969,
,,,,,,,,,,,,,,,,5,8.2,9.1,10,10.9,11.8,0.9,0.35,0.55,4.15,10,initial,36.05,296,328,361,393,425,9,9,9,9,9,,,,,,,4,0,4,0,0,4,4,51,,,,,,,,,,,,num_5,0.8405864001251757,num_5,0.3,1.3,0.39999999999999997,1.0,15.2822,38.2055,return,2.8851789000909775,,,,,,,,,,,,,,,,,919,20,female,left_right_width,2024-10-31_11h35.29.004,exp1,2023.1.0,59.9994479449969,
,,,,,,,,,,,,,,,,4,8.65,9.55,10.45,11.35,0,0.9,0.35,0.55,3.25,10,initial,36.05,312,344,377,409,0,9,9,9,9,0,,,,,,,4,0,4,0,0,5,5,11,,,,,,,,,,,,num_4,0.8639421002008021,num_4,0.2,1.2,0.39999999999999997,1.0,15.2822,38.2055,return,3.76581500004977,,,,,,,,,,,,,,,,,919,20,female,left_right_width,2024-10-31_11h35.29.004,exp1,2023.1.0,59.9994479449969,
,,,,,,,,,,,,,,,,5,8.2,9.1,10,10.9,11.8,0.9,0.35,0.55,4.15,10,initial,36.05,296,328,361,393,425,9,9,9,9,9,,,,,,,4,0,4,0,0,6,6,22,,,,,,,,,,,,num_4,0.7645443002693355,num_4,0.35,0.6,0.44999999999999996,1.2,17.19248,45.8466,return,4.412237200187519,,,,,,,,,,,,,,,,,919,20,female,left_right_width,2024-10-31_11h35.29.004,exp1,2023.1.0,59.9994479449969,
,,,,,,,,,,,,,,,,4,8.65,9.55,10.45,11.35,0,0.9,0.35,0.55,3.25,10,initial,36.05,312,344,377,409,0,9,9,9,9,0,,,,,,,4,0,4,0,0,7,7,41,,,,,,,,,,,,num_4,0.825890000211075,num_4,0.2,1.2,0.39999999999999997,1.2,15.2822,45.8466,return,3.924789700191468,,,,,,,,,,,,,,,,,919,20,female,left_right_width,2024-10-31_11h35.29.004,exp1,2023.1.0,59.9994479449969,
,,,,,,,,,,,,,,,,3,9.1,10,10.9,0,0,0.9,0.35,0.55,2.35,10,initial,36.05,328,361,393,0,0,9,9,9,0,0,,,,,,,4,0,4,0,0,8,8,30,,,,,,,,,,,,num_3,0.7015019000973552,num_3,0.3,0.8,0.49999999999999994,0.95,19.10275,36.29523,return,2.3353673003148288,,,,,,,,,,,,,,,,,919,20,female,left_right_width,2024-10-31_11h35.29.004,exp1,2023.1.0,59.9994479449969,
,,,,,,,,,,,,,,,,4,8.65,9.55,10.45,11.35,0,0.9,0.35,0.55,3.25,10,initial,36.05,312,344,377,409,0,9,9,9,9,0,,,,,,,4,0,4,0,0,9,9,9,,,,,,,,,,,,num_3,0.7641210001893342,num_3,0.3,0.8,0.44999999999999996,0.95,17.19248,36.29523,return,2.645571700297296,,,,,,,,,,,,,,,,,919,20,female,left_right_width,2024-10-31_11h35.29.004,exp1,2023.1.0,59.9994479449969,
,,,,,,,,,,,,,,,,4,8.65,9.55,10.45,11.35,0,0.9,0.35,0.55,3.25,10,initial,36.05,312,344,377,409,0,9,9,9,9,0,,,,,,,4,0,4,0,0,10,10,36,,,,,,,,,,,,num_4,1.0782170000020415,num_4,0.25,0.6,0.44999999999999996,1.1,17.19248,42.02605,return,4.137755900155753,,,,,,,,,,,,,,,,,919,20,female,left_right_width,2024-10-31_11h35.29.004,exp1,2023.1.0,59.9994479449969,
,,,,,,,,,,,,,,,,5,8.2,9.1,10,10.9,11.8,0.9,0.35,0.55,4.15,10,initial,36.05,296,328,361,393,425,9,9,9,9,9,,,,,,,4,0,4,0,0,11,11,48,,,,,,,,,,,,num_5,0.8007321001496166,num_5,0.25,1.2,0.44999999999999996,1.0,17.19248,38.2055,return,3.277317500207573,,,,,,,,,,,,,,,,,919,20,female,left_right_width,2024-10-31_11h35.29.004,exp1,2023.1.0,59.9994479449969,
,,,,,,,,,,,,,,,,4,8.65,9.55,10.45,11.35,0,0.9,0.35,0.55,3.25,10,initial,36.05,312,344,377,409,0,9,9,9,9,0,,,,,,,4,0,4,0,0,12,12,42,,,,,,,,,,,,num_4,0.8515469999983907,num_4,0.2,1.0,0.44999999999999996,0.9,17.19248,34.38495,return,2.889246800215915,,,,,,,,,,,,,,,,,919,20,female,left_right_width,2024-10-31_11h35.29.004,exp1,2023.1.0,59.9994479449969,
,,,,,,,,,,,,,,,,3,9.1,10,10.9,0,0,0.9,0.35,0.55,2.35,10,initial,36.05,328,361,393,0,0,9,9,9,0,0,,,,,,,4,0,4,0,0,13,13,27,,,,,,,,,,,,num_3,0.622168900212273,num_3,0.2,0.4,0.5499999999999999,0.8,21.01303,30.5644,return,4.352896000025794,,,,,,,,,,,,,,,,,919,20,female,left_right_width,2024-10-31_11h35.29.004,exp1,2023.1.0,59.9994479449969,
,,,,,,,,,,,,,,,,4,8.65,9.55,10.45,11.35,0,0.9,0.35,0.55,3.25,10,initial,36.05,312,344,377,409,0,9,9,9,9,0,,,,,,,4,0,4,0,0,14,14,39,,,,,,,,,,,,num_4,0.8570645002182573,num_4,0.25,1.2,0.44999999999999996,0.9,17.19248,34.38495,return,2.593347200192511,,,,,,,,,,,,,,,,,919,20,female,left_right_width,2024-10-31_11h35.29.004,exp1,2023.1.0,59.9994479449969,
,,,,,,,,,,,,,,,,4,8.65,9.55,10.45,11.35,0,0.9,0.35,0.55,3.25,10,initial,36.05,312,344,377,409,0,9,9,9,9,0,,,,,,,4,0,4,0,0,15,15,10,,,,,,,,,,,,num_4,0.9913292999844998,num_4,0.2,1.0,0.5499999999999999,1.1,21.01303,42.02605,return,3.526556600118056,,,,,,,,,,,,,,,,,919,20,female,left_right_width,2024-10-31_11h35.29.004,exp1,2023.1.0,59.9994479449969,
,,,,,,,,,,,,,,,,4,8.65,9.55,10.45,11.35,0,0.9,0.35,0.55,3.25,10,initial,36.05,312,344,377,409,0,9,9,9,9,0,,,,,,,4,0,4,0,0,16,16,43,,,,,,,,,,,,num_4,0.7376852000597864,num_4,0.35,0.5,0.6,0.9,22.9233,34.38495,return,3.347729500150308,,,,,,,,,,,,,,,,,919,20,female,left_right_width,2024-10-31_11h35.29.004,exp1,2023.1.0,59.9994479449969,
,,,,,,,,,,,,,,,,4,8.65,9.55,10.45,11.35,0,0.9,0.35,0.55,3.25,10,initial,36.05,312,344,377,409,0,9,9,9,9,0,,,,,,,4,0,4,0,0,17,17,14,,,,,,,,,,,,num_4,0.8232631001155823,num_4,0.4,1.0,0.45,1.0,17.19248,38.2055,return,0.9958745001349598,,,,,,,,,,,,,,,,,919,20,female,left_right_width,2024-10-31_11h35.29.004,exp1,2023.1.0,59.9994479449969,
,,,,,,,,,,,,,,,,5,8.2,9.1,10,10.9,11.8,0.9,0.35,0.55,4.15,10,initial,36.05,296,328,361,393,425,9,9,9,9,9,,,,,,,4,0,4,0,0,18,18,47,,,,,,,,,,,,num_5,0.7777778001036495,num_5,0.25,0.4,0.39999999999999997,0.9,15.2822,34.38495,return,3.879012699937448,,,,,,,,,,,,,,,,,919,20,female,left_right_width,2024-10-31_11h35.29.004,exp1,2023.1.0,59.9994479449969,
,,,,,,,,,,,,,,,,5,8.2,9.1,10,10.9,11.8,0.9,0.35,0.55,4.15,10,initial,36.05,296,328,361,393,425,9,9,9,9,9,,,,,,,4,0,4,0,0,19,19,23,,,,,,,,,,,,num_5,0.8438492000568658,num_5,0.45,1.3,0.5,1.25,19.10275,47.75688,return,2.455233900109306,,,,,,,,,,,,,,,,,919,20,female,left_right_width,2024-10-31_11h35.29.004,exp1,2023.1.0,59.9994479449969,
,,,,,,,,,,,,,,,,4,8.65,9.55,10.45,11.35,0,0.9,0.35,0.55,3.25,10,initial,36.05,312,344,377,409,0,9,9,9,9,0,,,,,,,4,0,4,0,0,20,20,40,,,,,,,,,,,,num_4,0.9361746001522988,num_4,0.3,1.3,0.44999999999999996,1.0,17.19248,38.2055,return,2.2898395999800414,,,,,,,,,,,,,,,,,919,20,female,left_right_width,2024-10-31_11h35.29.004,exp1,2023.1.0,59.9994479449969,
,,,,,,,,,,,,,,,,3,9.1,10,10.9,0,0,0.9,0.35,0.55,2.35,10,initial,36.05,328,361,393,0,0,9,9,9,0,0,,,,,,,4,0,4,0,0,21,21,6,,,,,,,,,,,,num_2,0.7815712001174688,num_2,0.55,1.4,0.45,1.1,17.19248,42.02605,return,3.0027883001603186,,,,,,,,,,,,,,,,,919,20,female,left_right_width,2024-10-31_11h35.29.004,exp1,2023.1.0,59.9994479449969,
,,,,,,,,,,,,,,,,3,9.1,10,10.9,0,0,0.9,0.35,0.55,2.35,10,initial,36.05,328,361,393,0,0,9,9,9,0,0,,,,,,,4,0,4,0,0,22,22,31,,,,,,,,,,,,num_3,0.8175207001622766,num_3,0.55,0.6,0.5,0.9,19.10275,34.38495,return,4.86348730023019,,,,,,,,,,,,,,,,,919,20,female,left_right_width,2024-10-31_11h35.29.004,exp1,2023.1.0,59.9994479449969,
,,,,,,,,,,,,,,,,5,8.2,9.1,10,10.9,11.8,0.9,0.35,0.55,4.15,10,initial,36.05,296,328,361,393,425,9,9,9,9,9,,,,,,,4,0,4,0,0,23,23,49,,,,,,,,,,,,num_4,0.8046398002188653,num_4,0.45,0.7,0.45,0.9,17.19248,34.38495,return,4.607686000177637,,,,,,,,,,,,,,,,,919,20,female,left_right_width,2024-10-31_11h35.29.004,exp1,2023.1.0,59.9994479449969,
,,,,,,,,,,,,,,,,5,8.2,9.1,10,10.9,11.8,0.9,0.35,0.55,4.15,10,initial,36.05,296,328,361,393,425,9,9,9,9,9,,,,,,,4,0,4,0,0,24,24,45,,,,,,,,,,,,num_5,0.8442584001459181,num_5,0.2,0.8,0.35,0.7,13.37193,26.74385,return,2.120849000290036,,,,,,,,,,,,,,,,,919,20,female,left_right_width,2024-10-31_11h35.29.004,exp1,2023.1.0,59.9994479449969,
,,,,,,,,,,,,,,,,5,8.2,9.1,10,10.9,11.8,0.9,0.35,0.55,4.15,10,initial,36.05,296,328,361,393,425,9,9,9,9,9,,,,,,,4,0,4,0,0,25,25,25,,,,,,,,,,,,num_5,0.7906304001808167,num_5,0.35,1.2,0.39999999999999997,0.95,15.2822,36.29523,return,3.058565800078213,,,,,,,,,,,,,,,,,919,20,female,left_right_width,2024-10-31_11h35.29.004,exp1,2023.1.0,59.9994479449969,
,,,,,,,,,,,,,,,,5,8.2,9.1,10,10.9,11.8,0.9,0.35,0.55,4.15,10,initial,36.05,296,328,361,393,425,9,9,9,9,9,,,,,,,4,0,4,0,0,26,26,46,,,,,,,,,,,,num_5,0.9957163000945002,num_5,0.45,1.3,0.4,1.1,15.2822,42.02605,return,2.521867200033739,,,,,,,,,,,,,,,,,919,20,female,left_right_width,2024-10-31_11h35.29.004,exp1,2023.1.0,59.9994479449969,
,,,,,,,,,,,,,,,,4,8.65,9.55,10.45,11.35,0,0.9,0.35,0.55,3.25,10,initial,36.05,312,344,377,409,0,9,9,9,9,0,,,,,,,4,0,4,0,0,27,27,15,,,,,,,,,,,,num_4,0.786177400033921,num_4,0.3,1.2,0.35,0.8,13.37193,30.5644,return,2.461048699915409,,,,,,,,,,,,,,,,,919,20,female,left_right_width,2024-10-31_11h35.29.004,exp1,2023.1.0,59.9994479449969,
,,,,,,,,,,,,,,,,5,8.2,9.1,10,10.9,11.8,0.9,0.35,0.55,4.15,10,initial,36.05,296,328,361,393,425,9,9,9,9,9,,,,,,,4,0,4,0,0,28,28,19,,,,,,,,,,,,num_5,0.8253043000586331,num_5,0.25,0.8,0.35,0.65,13.37193,24.83358,return,2.4317334999796003,,,,,,,,,,,,,,,,,919,20,female,left_right_width,2024-10-31_11h35.29.004,exp1,2023.1.0,59.9994479449969,
,,,,,,,,,,,,,,,,4,8.65,9.55,10.45,11.35,0,0.9,0.35,0.55,3.25,10,initial,36.05,312,344,377,409,0,9,9,9,9,0,,,,,,,4,0,4,0,0,29,29,37,,,,,,,,,,,,num_4,0.7120980001054704,num_4,0.35,0.9,0.3,1.0,11.46165,38.2055,return,3.382174000144005,,,,,,,,,,,,,,,,,919,20,female,left_right_width,2024-10-31_11h35.29.004,exp1,2023.1.0,59.9994479449969,
,,,,,,,,,,,,,,,,5,8.2,9.1,10,10.9,11.8,0.9,0.35,0.55,4.15,10,initial,36.05,296,328,361,393,425,9,9,9,9,9,,,,,,,4,0,4,0,0,30,30,26,,,,,,,,,,,,num_5,0.8926580001134425,num_5,0.45,1.1,0.4,0.95,15.2822,36.29523,return,3.999761300161481,,,,,,,,,,,,,,,,,919,20,female,left_right_width,2024-10-31_11h35.29.004,exp1,2023.1.0,59.9994479449969,
,,,,,,,,,,,,,,,,5,8.2,9.1,10,10.9,11.8,0.9,0.35,0.55,4.15,10,initial,36.05,296,328,361,393,425,9,9,9,9,9,,,,,,,4,0,4,0,0,31,31,20,,,,,,,,,,,,num_5,0.6250189999118447,num_5,0.35,0.6,0.39999999999999997,0.75,15.2822,28.65413,return,3.169045900227502,,,,,,,,,,,,,,,,,919,20,female,left_right_width,2024-10-31_11h35.29.004,exp1,2023.1.0,59.9994479449969,
,,,,,,,,,,,,,,,,3,9.1,10,10.9,0,0,0.9,0.35,0.55,2.35,10,initial,36.05,328,361,393,0,0,9,9,9,0,0,,,,,,,4,0,4,0,0,32,32,34,,,,,,,,,,,,num_2,0.7357691000215709,num_2,0.5,1.4,0.45,1.1,17.19248,42.02605,return,1.9635789999738336,,,,,,,,,,,,,,,,,919,20,female,left_right_width,2024-10-31_11h35.29.004,exp1,2023.1.0,59.9994479449969,
,,,,,,,,,,,,,,,,5,8.2,9.1,10,10.9,11.8,0.9,0.35,0.55,4.15,10,initial,36.05,296,328,361,393,425,9,9,9,9,9,,,,,,,4,0,4,0,0,33,33,53,,,,,,,,,,,,num_5,0.7258041000459343,num_5,0.35,0.6,0.35,0.85,13.37193,32.47468,return,2.136672500288114,,,,,,,,,,,,,,,,,919,20,female,left_right_width,2024-10-31_11h35.29.004,exp1,2023.1.0,59.9994479449969,
,,,,,,,,,,,,,,,,5,8.2,9.1,10,10.9,11.8,0.9,0.35,0.55,4.15,10,initial,36.05,296,328,361,393,425,9,9,9,9,9,,,,,,,4,0,4,0,0,34,34,21,,,,,,,,,,,,num_5,0.729873500065878,num_5,0.4,1.3,0.4,0.9,15.2822,34.38495,return,3.528708100086078,,,,,,,,,,,,,,,,,919,20,female,left_right_width,2024-10-31_11h35.29.004,exp1,2023.1.0,59.9994479449969,
,,,,,,,,,,,,,,,,3,9.1,10,10.9,0,0,0.9,0.35,0.55,2.35,10,initial,36.05,328,361,393,0,0,9,9,9,0,0,,,,,,,4,0,4,0,0,35,35,4,,,,,,,,,,,,num_3,0.7309052001219243,num_3,0.35,0.8,0.3,0.8,11.46165,30.5644,return,1.5496082999743521,,,,,,,,,,,,,,,,,919,20,female,left_right_width,2024-10-31_11h35.29.004,exp1,2023.1.0,59.9994479449969,
,,,,,,,,,,,,,,,,4,8.65,9.55,10.45,11.35,0,0.9,0.35,0.55,3.25,10,initial,36.05,312,344,377,409,0,9,9,9,9,0,,,,,,,4,0,4,0,0,36,36,38,,,,,,,,,,,,num_3,0.7458588001318276,num_3,0.45,1,0.45,1,17.19248,38.2055,return,0.6824474001768976,,,,,,,,,,,,,,,,,919,20,female,left_right_width,2024-10-31_11h35.29.004,exp1,2023.1.0,59.9994479449969,
,,,,,,,,,,,,,,,,3,9.1,10,10.9,0,0,0.9,0.35,0.55,2.35,10,initial,36.05,328,361,393,0,0,9,9,9,0,0,,,,,,,4,0,4,0,0,37,37,7,,,,,,,,,,,,num_2,0.685206200229004,num_2,0.5,1.0,0.4,1.3,15.2822,49.66716,return,4.063627199968323,,,,,,,,,,,,,,,,,919,20,female,left_right_width,2024-10-31_11h35.29.004,exp1,2023.1.0,59.9994479449969,
,,,,,,,,,,,,,,,,3,9.1,10,10.9,0,0,0.9,0.35,0.55,2.35,10,initial,36.05,328,361,393,0,0,9,9,9,0,0,,,,,,,4,0,4,0,0,38,38,33,,,,,,,,,,,,num_2,0.6861595001537353,num_2,0.3,0.8,0.5499999999999999,1.1,21.01303,42.02605,return,2.5778562002815306,,,,,,,,,,,,,,,,,919,20,female,left_right_width,2024-10-31_11h35.29.004,exp1,2023.1.0,59.9994479449969,
,,,,,,,,,,,,,,,,3,9.1,10,10.9,0,0,0.9,0.35,0.55,2.35,10,initial,36.05,328,361,393,0,0,9,9,9,0,0,,,,,,,4,0,4,0,0,39,39,0,,,,,,,,,,,,num_2,0.6751105999574065,num_2,0.35,1.0,0.44999999999999996,1.2,17.19248,45.8466,return,1.7272856999188662,,,,,,,,,,,,,,,,,919,20,female,left_right_width,2024-10-31_11h35.29.004,exp1,2023.1.0,59.9994479449969,
,,,,,,,,,,,,,,,,4,8.65,9.55,10.45,11.35,0,0.9,0.35,0.55,3.25,10,initial,36.05,312,344,377,409,0,9,9,9,9,0,,,,,,,4,0,4,0,0,40,40,17,,,,,,,,,,,,num_3,1.5941868999507278,num_3,0.35,0.6,0.5499999999999999,0.9,21.01303,34.38495,return,2.804926000069827,,,,,,,,,,,,,,,,,919,20,female,left_right_width,2024-10-31_11h35.29.004,exp1,2023.1.0,59.9994479449969,
,,,,,,,,,,,,,,,,3,9.1,10,10.9,0,0,0.9,0.35,0.55,2.35,10,initial,36.05,328,361,393,0,0,9,9,9,0,0,,,,,,,4,0,4,0,0,41,41,3,,,,,,,,,,,,num_2,0.8343967001419514,num_2,0.2,0.6,0.25,0.8,9.55138,30.5644,return,1.9346848002169281,,,,,,,,,,,,,,,,,919,20,female,left_right_width,2024-10-31_11h35.29.004,exp1,2023.1.0,59.9994479449969,
,,,,,,,,,,,,,,,,3,9.1,10,10.9,0,0,0.9,0.35,0.55,2.35,10,initial,36.05,328,361,393,0,0,9,9,9,0,0,,,,,,,4,0,4,0,0,42,42,28,,,,,,,,,,,,num_2,0.8843072003219277,num_2,0.2,0.4,0.65,1.2,24.83358,45.8466,return,3.8990766000933945,,,,,,,,,,,,,,,,,919,20,female,left_right_width,2024-10-31_11h35.29.004,exp1,2023.1.0,59.9994479449969,
,,,,,,,,,,,,,,,,4,8.65,9.55,10.45,11.35,0,0.9,0.35,0.55,3.25,10,initial,36.05,312,344,377,409,0,9,9,9,9,0,,,,,,,4,0,4,0,0,43,43,12,,,,,,,,,,,,num_3,0.8658702000975609,num_3,0.45,0.6,0.7000000000000002,0.95,26.74385,36.29523,return,3.7867901001591235,,,,,,,,,,,,,,,,,919,20,female,left_right_width,2024-10-31_11h35.29.004,exp1,2023.1.0,59.9994479449969,
,,,,,,,,,,,,,,,,3,9.1,10,10.9,0,0,0.9,0.35,0.55,2.35,10,initial,36.05,328,361,393,0,0,9,9,9,0,0,,,,,,,4,0,4,0,0,44,44,5,,,,,,,,,,,,num_2,0.6750617001671344,num_2,0.35,0.8,0.6,1.1,22.9233,42.02605,return,2.5153387002646923,,,,,,,,,,,,,,,,,919,20,female,left_right_width,2024-10-31_11h35.29.004,exp1,2023.1.0,59.9994479449969,
,,,,,,,,,,,,,,,,5,8.2,9.1,10,10.9,11.8,0.9,0.35,0.55,4.15,10,initial,36.05,296,328,361,393,425,9,9,9,9,9,,,,,,,4,0,4,0,0,45,45,24,,,,,,,,,,,,num_4,0.7210773001424968,num_4,0.25,1.2,0.6,1.0,22.9233,38.2055,return,4.7145015001297,,,,,,,,,,,,,,,,,919,20,female,left_right_width,2024-10-31_11h35.29.004,exp1,2023.1.0,59.9994479449969,
,,,,,,,,,,,,,,,,3,9.1,10,10.9,0,0,0.9,0.35,0.55,2.35,10,initial,36.05,328,361,393,0,0,9,9,9,0,0,,,,,,,4,0,4,0,0,46,46,1,,,,,,,,,,,,num_2,0.5725193999242038,num_2,0.25,1.6,0.5499999999999999,0.8,21.01303,30.5644,return,4.868321800138801,,,,,,,,,,,,,,,,,919,20,female,left_right_width,2024-10-31_11h35.29.004,exp1,2023.1.0,59.9994479449969,
,,,,,,,,,,,,,,,,3,9.1,10,10.9,0,0,0.9,0.35,0.55,2.35,10,initial,36.05,328,361,393,0,0,9,9,9,0,0,,,,,,,4,0,4,0,0,47,47,35,,,,,,,,,,,,num_2,0.6448735001031309,num_2,0.35,0.4,0.49999999999999994,0.9,19.10275,34.38495,return,5.621922600083053,,,,,,,,,,,,,,,,,919,20,female,left_right_width,2024-10-31_11h35.29.004,exp1,2023.1.0,59.9994479449969,
,,,,,,,,,,,,,,,,4,8.65,9.55,10.45,11.35,0,0.9,0.35,0.55,3.25,10,initial,36.05,312,344,377,409,0,9,9,9,9,0,,,,,,,4,0,4,0,0,48,48,16,,,,,,,,,,,,num_4,0.7107580001465976,num_4,0.25,0.5,0.44999999999999996,1.1,17.19248,42.02605,return,4.2162131001241505,,,,,,,,,,,,,,,,,919,20,female,left_right_width,2024-10-31_11h35.29.004,exp1,2023.1.0,59.9994479449969,
,,,,,,,,,,,,,,,,3,9.1,10,10.9,0,0,0.9,0.35,0.55,2.35,10,initial,36.05,328,361,393,0,0,9,9,9,0,0,,,,,,,4,0,4,0,0,49,49,2,,,,,,,,,,,,num_3,0.7612702001351863,num_3,0.2,0.9,0.6,0.8,22.9233,30.5644,return,4.420593900140375,,,,,,,,,,,,,,,,,919,20,female,left_right_width,2024-10-31_11h35.29.004,exp1,2023.1.0,59.9994479449969,
,,,,,,,,,,,,,,,,5,8.2,9.1,10,10.9,11.8,0.9,0.35,0.55,4.15,10,initial,36.05,296,328,361,393,425,9,9,9,9,9,,,,,,,4,0,4,0,0,50,50,52,,,,,,,,,,,,num_5,0.7354908999986947,num_5,0.3,1.0,0.6,0.9,22.9233,34.38495,return,2.609119800152257,,,,,,,,,,,,,,,,,919,20,female,left_right_width,2024-10-31_11h35.29.004,exp1,2023.1.0,59.9994479449969,
,,,,,,,,,,,,,,,,3,9.1,10,10.9,0,0,0.9,0.35,0.55,2.35,10,initial,36.05,328,361,393,0,0,9,9,9,0,0,,,,,,,4,0,4,0,0,51,51,8,,,,,,,,,,,,num_2,0.6082565002143383,num_2,0.35,0.4,0.7000000000000001,1.1,26.74385,42.02605,return,4.080370600102469,,,,,,,,,,,,,,,,,919,20,female,left_right_width,2024-10-31_11h35.29.004,exp1,2023.1.0,59.9994479449969,
,,,,,,,,,,,,,,,,5,8.2,9.1,10,10.9,11.8,0.9,0.35,0.55,4.15,10,initial,36.05,296,328,361,393,425,9,9,9,9,9,,,,,,,4,0,4,0,0,52,52,50,,,,,,,,,,,,num_5,0.7161730001680553,num_5,0.2,1.1,0.49999999999999994,0.85,19.10275,32.47468,return,3.7434652000665665,,,,,,,,,,,,,,,,,919,20,female,left_right_width,2024-10-31_11h35.29.004,exp1,2023.1.0,59.9994479449969,
,,,,,,,,,,,,,,,,5,8.2,9.1,10,10.9,11.8,0.9,0.35,0.55,4.15,10,initial,36.05,296,328,361,393,425,9,9,9,9,9,,,,,,,4,0,4,0,0,53,53,18,,,,,,,,,,,,num_5,0.8158265000674874,num_5,0.4,1.3,0.55,0.9,21.01303,34.38495,return,2.9269604000728577,,,,,,,,,,,,,,,,,919,20,female,left_right_width,2024-10-31_11h35.29.004,exp1,2023.1.0,59.9994479449969,
,,,,,,,,,,,,,,,,,,,,,,,,,,,,,,,,,,,,,,,,,,,,,4,0,4,0,,,,,,,,,,,,,,,,,,,,,,,,,,,,,2220.002891199896,2220.002891199896,2220.002891199896,,,,,,,,,,,,919,20,female,left_right_width,2024-10-31_11h35.29.004,exp1,2023.1.0,59.9994479449969,
,,,,,,,,,,,,,,,,3,9.5,10,10.5,0,0,0.5,0.25,0.25,1.25,10,initial,36.05,342,361,379,0,0,9,9,9,0,0,,,,,,,5,0,5,0,0,0,0,6,,,,,,,,,,,,num_2,0.7263270001858473,num_2,0.55,0.6,0.35000000000000003,0.6,13.37193,22.9233,return,2.1518025000113994,,,,,,,,,,,,,,,,,919,20,female,left_right_width,2024-10-31_11h35.29.004,exp1,2023.1.0,59.9994479449969,
,,,,,,,,,,,,,,,,4,9.25,9.75,10.25,10.75,0,0.5,0.25,0.25,1.75,10,initial,36.05,333,351,370,388,0,9,9,9,9,0,,,,,,,5,0,5,0,0,1,1,14,,,,,,,,,,,,num_4,0.9321626999881119,num_4,0.25,1.3,0.25,0.7,9.55138,26.74385,return,2.554988200077787,,,,,,,,,,,,,,,,,919,20,female,left_right_width,2024-10-31_11h35.29.004,exp1,2023.1.0,59.9994479449969,
,,,,,,,,,,,,,,,,3,9.5,10,10.5,0,0,0.5,0.25,0.25,1.25,10,initial,36.05,342,361,379,0,0,9,9,9,0,0,,,,,,,5,0,5,0,0,2,2,35,,,,,,,,,,,,num_1,1.1131017999723554,num_1,0.45,9999,0.25000000000000006,9999,9.55138,382016.8345,return,1.9908908000215888,,,,,,,,,,,,,,,,,919,20,female,left_right_width,2024-10-31_11h35.29.004,exp1,2023.1.0,59.9994479449969,
,,,,,,,,,,,,,,,,3,9.5,10,10.5,0,0,0.5,0.25,0.25,1.25,10,initial,36.05,342,361,379,0,0,9,9,9,0,0,,,,,,,5,0,5,0,0,3,3,2,,,,,,,,,,,,num_2,0.6643761000595987,num_2,0.2,1.0,0.2,0.4,7.6411,15.2822,return,3.528607100015506,,,,,,,,,,,,,,,,,919,20,female,left_right_width,2024-10-31_11h35.29.004,exp1,2023.1.0,59.9994479449969,
,,,,,,,,,,,,,,,,5,9,9.5,10,10.5,11,0.5,0.25,0.25,2.25,10,initial,36.05,324,342,361,379,397,9,9,9,9,9,,,,,,,5,0,5,0,0,4,4,26,,,,,,,,,,,,num_4,0.7934703000355512,num_4,0.3,1.0,0.25,0.6,9.55138,22.9233,return,3.2665852000936866,,,,,,,,,,,,,,,,,919,20,female,left_right_width,2024-10-31_11h35.29.004,exp1,2023.1.0,59.9994479449969,
,,,,,,,,,,,,,,,,4,9.25,9.75,10.25,10.75,0,0.5,0.25,0.25,1.75,10,initial,36.05,333,351,370,388,0,9,9,9,9,0,,,,,,,5,0,5,0,0,5,5,16,,,,,,,,,,,,num_4,0.7478109002113342,num_4,0.3,0.4,0.15000000000000002,0.7,5.73083,26.74385,return,4.806086600059643,,,,,,,,,,,,,,,,,919,20,female,left_right_width,2024-10-31_11h35.29.004,exp1,2023.1.0,59.9994479449969,
,,,,,,,,,,,,,,,,4,9.25,9.75,10.25,10.75,0,0.5,0.25,0.25,1.75,10,initial,36.05,333,351,370,388,0,9,9,9,9,0,,,,,,,5,0,5,0,0,6,6,42,,,,,,,,,,,,num_4,0.8147850001696497,num_4,0.3,0.3,0.25,0.6,9.55138,22.9233,return,3.3889274999964982,,,,,,,,,,,,,,,,,919,20,female,left_right_width,2024-10-31_11h35.29.004,exp1,2023.1.0,59.9994479449969,
,,,,,,,,,,,,,,,,4,9.25,9.75,10.25,10.75,0,0.5,0.25,0.25,1.75,10,initial,36.05,333,351,370,388,0,9,9,9,9,0,,,,,,,5,0,5,0,0,7,7,43,,,,,,,,,,,,num_3,0.8894142000935972,num_3,0.3,1.2,0.3,0.75,11.46165,28.65413,return,3.3609386002644897,,,,,,,,,,,,,,,,,919,20,female,left_right_width,2024-10-31_11h35.29.004,exp1,2023.1.0,59.9994479449969,
,,,,,,,,,,,,,,,,4,9.25,9.75,10.25,10.75,0,0.5,0.25,0.25,1.75,10,initial,36.05,333,351,370,388,0,9,9,9,9,0,,,,,,,5,0,5,0,0,8,8,37,,,,,,,,,,,,num_4,0.9292214000597596,num_4,0.4,1.1,0.15000000000000008,0.6,5.73083,22.9233,return,2.682081500068307,,,,,,,,,,,,,,,,,919,20,female,left_right_width,2024-10-31_11h35.29.004,exp1,2023.1.0,59.9994479449969,
