amount_p,posx1_p,posx2_p,posx3_p,posx4_p,posx5_p,center_to_center_p,edge_to_edge_p,w_p,stim_length_p,eccentricity_p,line1_p,line2_p,line3_p,line4_p,line5_p,amount,posx1,posx2,posx3,posx4,posx5,center_to_center,edge_to_edge,w,stim_length,eccentricity,trial_type,deg_to_pix_index,posx1_in_pix,posx2_in_pix,posx3_in_pix,posx4_in_pix,posx5_in_pix,line1,line2,line3,line4,line5,posx,setsize_cobdi,trials.thisRepN,trials.thisTrialN,trials.thisN,trials.thisIndex,blocks.thisRepN,blocks.thisTrialN,blocks.thisN,blocks.thisIndex,loop.thisRepN,loop.thisTrialN,loop.thisN,loop.thisIndex,first.thisRepN,first.thisTrialN,first.thisN,first.thisIndex,second.thisRepN,second.thisTrialN,second.thisN,second.thisIndex,key_resp_3.started,key_resp_3.keys,key_resp_3.rt,key_resp.keys,key_resp.rt,response,starting_width_deg,starting_space_deg,response_width_degree,response_spacing_degree,response_width_pixel,response_spacing_pixel,next_5.keys,next_5.rt,key_resp_4.keys,key_resp_4.rt,text_3.started,text_4.started,key_resp_2.started,text_2.started,key_resp_2.keys,key_resp_2.rt,adjusting.started,next.keys,next.rt,text_control2.started,key_resp.started,key_resp.corr,text_bye.started,text_bye.stopped,participant,age,gender,resp_group,date,expName,psychopyVersion,frameRate,
,,,,,,,,,,,,,,,,,,,,,,,,,,,,,,,,,,,,,,,,,,,,,,,,,,,,,,,,,,,,,32.846551300026476,c,218.96743369987234,,,,,,,,,,,,,,,,,,,,,,,,,,,,722,21,female,left_right_width,2024-11-02_15h35.40.288,exp1,2023.1.0,59.990521620956734,
3,9.5,10,10.5,0,0,0.5,0.25,0.25,1.25,10,9,9,9,0,0,,,,,,,,,,,,,,,,,,,,,,,,,,0,0,0,0,,,,,,,,,,,,,,,,,,,,num_3,1.5490608997642994,num_3,0.25,0.9,0.25,0.7,9.55138,26.74385,return,8.629188999999315,,,,,,,,,,,,,,,,,722,21,female,left_right_width,2024-11-02_15h35.40.288,exp1,2023.1.0,59.990521620956734,
4,9.25,9.75,10.25,10.75,0,0.5,0.25,0.25,1.75,10,9,9,9,9,0,,,,,,,,,,,,,,,,,,,,,,,,,,0,1,1,1,,,,,,,,,,,,,,,,,,,,num_4,1.3397690998390317,num_4,0.4,1.0,0.20000000000000007,0.6,7.6411,22.9233,return,9.260216599795967,,,,,,,,,,,,,,,,,722,21,female,left_right_width,2024-11-02_15h35.40.288,exp1,2023.1.0,59.990521620956734,
5,9,9.5,10,10.5,11,0.5,0.1,0.4,2.4,10,9,9,9,9,9,,,,,,,,,,,,,,,,,,,,,,,,,,0,2,2,5,,,,,,,,,,,,,,,,,,,,num_5,1.8550636996515095,num_5,0.4,1.3,0.35000000000000003,0.55,13.37193,21.01303,return,10.20365219982341,,,,,,,,,,,,,,,,,722,21,female,left_right_width,2024-11-02_15h35.40.288,exp1,2023.1.0,59.990521620956734,
3,9.1,10,10.9,0,0,0.9,0.35,0.55,2.35,10,9,9,9,0,0,,,,,,,,,,,,,,,,,,,,,,,,,,0,3,3,3,,,,,,,,,,,,,,,,,,,,num_4,1.3487245002761483,num_4,0.4,0.9,0.30000000000000004,0.5,11.46165,19.10275,return,11.021517199929804,,,,,,,,,,,,,,,,,722,21,female,left_right_width,2024-11-02_15h35.40.288,exp1,2023.1.0,59.990521620956734,
4,9.25,9.75,10.25,10.75,0,0.5,0.1,0.4,1.9000000000000001,10,9,9,9,9,0,,,,,,,,,,,,,,,,,,,,,,,,,,0,4,4,4,,,,,,,,,,,,,,,,,,,,num_4,1.5738340001553297,num_4,0.25,0.9,0.3,0.4,11.46165,15.2822,return,11.360784700140357,,,,,,,,,,,,,,,,,722,21,female,left_right_width,2024-11-02_15h35.40.288,exp1,2023.1.0,59.990521620956734,
5,8.2,9.1,10,10.9,11.8,0.9,0.35,0.55,4.15,10,9,9,9,9,9,,,,,,,,,,,,,,,,,,,,,,,,,,0,5,5,2,,,,,,,,,,,,,,,,,,,,num_5,2.1206902000121772,num_5,0.3,0.8,0.35,0.75,13.37193,28.65413,return,5.711149800103158,,,,,,,,,,,,,,,,,722,21,female,left_right_width,2024-11-02_15h35.40.288,exp1,2023.1.0,59.990521620956734,
,,,,,,,,,,,,,,,,,,,,,,,,,,,,,,,,,,,,,,,,,,,,,,,,,,,,,,,,,,,,,,,,,,,,,,,,,,,c,118.0286209997721,,,,,,,,,,,,,,,722,21,female,left_right_width,2024-11-02_15h35.40.288,exp1,2023.1.0,59.990521620956734,
,,,,,,,,,,,,,,,,3,9.5,10,10.5,0,0,0.5,0.1,0.4,1.4000000000000001,10,initial,36.05,342,361,379,0,0,9,9,9,0,0,,,,,,,0,0,0,0,0,0,0,3,,,,,,,,,,,,num_3,2.9395420998334885,num_3,0.25,0.4,0.2,0.35,7.6411,13.37193,return,13.053006200119853,,,,,,,,,,,,,,,,,722,21,female,left_right_width,2024-11-02_15h35.40.288,exp1,2023.1.0,59.990521620956734,
,,,,,,,,,,,,,,,,4,9.25,9.75,10.25,10.75,0,0.5,0.1,0.4,1.9000000000000001,10,initial,36.05,333,351,370,388,0,9,9,9,9,0,,,,,,,0,0,0,0,0,1,1,37,,,,,,,,,,,,num_4,4.291656199842691,num_4,0.45,0.7,0.45,0.6,17.19248,22.9233,return,6.899077299982309,,,,,,,,,,,,,,,,,722,21,female,left_right_width,2024-11-02_15h35.40.288,exp1,2023.1.0,59.990521620956734,
,,,,,,,,,,,,,,,,3,9.5,10,10.5,0,0,0.5,0.1,0.4,1.4000000000000001,10,initial,36.05,342,361,379,0,0,9,9,9,0,0,,,,,,,0,0,0,0,0,2,2,0,,,,,,,,,,,,num_3,2.3159404997713864,num_3,0.5,0.7,0.45,0.6,17.19248,22.9233,return,8.523296299856156,,,,,,,,,,,,,,,,,722,21,female,left_right_width,2024-11-02_15h35.40.288,exp1,2023.1.0,59.990521620956734,
,,,,,,,,,,,,,,,,4,9.25,9.75,10.25,10.75,0,0.5,0.1,0.4,1.9000000000000001,10,initial,36.05,333,351,370,388,0,9,9,9,9,0,,,,,,,0,0,0,0,0,3,3,11,,,,,,,,,,,,num_4,3.1206817002967,num_4,0.55,0.7,0.45,0.6,17.19248,22.9233,return,8.33817799994722,,,,,,,,,,,,,,,,,722,21,female,left_right_width,2024-11-02_15h35.40.288,exp1,2023.1.0,59.990521620956734,
,,,,,,,,,,,,,,,,5,9,9.5,10,10.5,11,0.5,0.1,0.4,2.4,10,initial,36.05,324,342,361,379,397,9,9,9,9,9,,,,,,,0,0,0,0,0,4,4,48,,,,,,,,,,,,num_6,2.540326099842787,num_6,0.3,0.8,0.25,0.4,9.55138,15.2822,return,21.540745299775153,,,,,,,,,,,,,,,,,722,21,female,left_right_width,2024-11-02_15h35.40.288,exp1,2023.1.0,59.990521620956734,
,,,,,,,,,,,,,,,,4,9.25,9.75,10.25,10.75,0,0.5,0.1,0.4,1.9000000000000001,10,initial,36.05,333,351,370,388,0,9,9,9,9,0,,,,,,,0,0,0,0,0,5,5,41,,,,,,,,,,,,num_4,2.265341400168836,num_4,0.3,0.6,0.3,0.5,11.46165,19.10275,return,6.65412459988147,,,,,,,,,,,,,,,,,722,21,female,left_right_width,2024-11-02_15h35.40.288,exp1,2023.1.0,59.990521620956734,
,,,,,,,,,,,,,,,,4,9.25,9.75,10.25,10.75,0,0.5,0.1,0.4,1.9000000000000001,10,initial,36.05,333,351,370,388,0,9,9,9,9,0,,,,,,,0,0,0,0,0,6,6,39,,,,,,,,,,,,num_4,3.01834570011124,num_4,0.25,0.5,0.35,0.5,13.37193,19.10275,return,2.7680196003057063,,,,,,,,,,,,,,,,,722,21,female,left_right_width,2024-11-02_15h35.40.288,exp1,2023.1.0,59.990521620956734,
,,,,,,,,,,,,,,,,4,9.25,9.75,10.25,10.75,0,0.5,0.1,0.4,1.9000000000000001,10,initial,36.05,333,351,370,388,0,9,9,9,9,0,,,,,,,0,0,0,0,0,7,7,38,,,,,,,,,,,,num_4,2.4517759000882506,num_4,0.35,1.0,0.39999999999999997,0.6,15.2822,22.9233,return,8.354131899774075,,,,,,,,,,,,,,,,,722,21,female,left_right_width,2024-11-02_15h35.40.288,exp1,2023.1.0,59.990521620956734,
,,,,,,,,,,,,,,,,3,9.5,10,10.5,0,0,0.5,0.1,0.4,1.4000000000000001,10,initial,36.05,342,361,379,0,0,9,9,9,0,0,,,,,,,0,0,0,0,0,8,8,27,,,,,,,,,,,,num_3,1.3372863000258803,num_3,0.4,0.5,0.30000000000000004,0.5,11.46165,19.10275,return,3.966031900141388,,,,,,,,,,,,,,,,,722,21,female,left_right_width,2024-11-02_15h35.40.288,exp1,2023.1.0,59.990521620956734,
,,,,,,,,,,,,,,,,5,9,9.5,10,10.5,11,0.5,0.1,0.4,2.4,10,initial,36.05,324,342,361,379,397,9,9,9,9,9,,,,,,,0,0,0,0,0,9,9,49,,,,,,,,,,,,num_5,1.3660335997119546,num_5,0.55,0.6,0.8000000000000003,0.4,30.5644,15.2822,return,15.450333999935538,,,,,,,,,,,,,,,,,722,21,female,left_right_width,2024-11-02_15h35.40.288,exp1,2023.1.0,59.990521620956734,
,,,,,,,,,,,,,,,,5,9,9.5,10,10.5,11,0.5,0.1,0.4,2.4,10,initial,36.05,324,342,361,379,397,9,9,9,9,9,,,,,,,0,0,0,0,0,10,10,53,,,,,,,,,,,,num_5,2.5612924001179636,num_5,0.25,0.8,0.3,0.5,11.46165,19.10275,return,5.018386399839073,,,,,,,,,,,,,,,,,722,21,female,left_right_width,2024-11-02_15h35.40.288,exp1,2023.1.0,59.990521620956734,
,,,,,,,,,,,,,,,,5,9,9.5,10,10.5,11,0.5,0.1,0.4,2.4,10,initial,36.05,324,342,361,379,397,9,9,9,9,9,,,,,,,0,0,0,0,0,11,11,25,,,,,,,,,,,,num_6,2.5150625999085605,num_6,0.35,1.1,0.35,0.5,13.37193,19.10275,return,4.76108739990741,,,,,,,,,,,,,,,,,722,21,female,left_right_width,2024-11-02_15h35.40.288,exp1,2023.1.0,59.990521620956734,
,,,,,,,,,,,,,,,,4,9.25,9.75,10.25,10.75,0,0.5,0.1,0.4,1.9000000000000001,10,initial,36.05,333,351,370,388,0,9,9,9,9,0,,,,,,,0,0,0,0,0,12,12,15,,,,,,,,,,,,num_4,1.7304240996018052,num_4,0.55,1.2,0.35000000000000003,0.6,13.37193,22.9233,return,6.386848200112581,,,,,,,,,,,,,,,,,722,21,female,left_right_width,2024-11-02_15h35.40.288,exp1,2023.1.0,59.990521620956734,
,,,,,,,,,,,,,,,,4,9.25,9.75,10.25,10.75,0,0.5,0.1,0.4,1.9000000000000001,10,initial,36.05,333,351,370,388,0,9,9,9,9,0,,,,,,,0,0,0,0,0,13,13,40,,,,,,,,,,,,num_4,1.2677811002358794,num_4,0.2,1.1,0.39999999999999997,0.6,15.2822,22.9233,return,9.966756800189614,,,,,,,,,,,,,,,,,722,21,female,left_right_width,2024-11-02_15h35.40.288,exp1,2023.1.0,59.990521620956734,
,,,,,,,,,,,,,,,,5,9,9.5,10,10.5,11,0.5,0.1,0.4,2.4,10,initial,36.05,324,342,361,379,397,9,9,9,9,9,,,,,,,0,0,0,0,0,14,14,47,,,,,,,,,,,,num_4,2.420006699860096,num_4,0.25,0.9,0.39999999999999997,0.6,15.2822,22.9233,return,6.954366200137883,,,,,,,,,,,,,,,,,722,21,female,left_right_width,2024-11-02_15h35.40.288,exp1,2023.1.0,59.990521620956734,
,,,,,,,,,,,,,,,,5,9,9.5,10,10.5,11,0.5,0.1,0.4,2.4,10,initial,36.05,324,342,361,379,397,9,9,9,9,9,,,,,,,0,0,0,0,0,15,15,21,,,,,,,,,,,,num_5,1.9230901999399066,num_5,0.5,1.0,0.35000000000000003,0.5,13.37193,19.10275,return,8.303540700115263,,,,,,,,,,,,,,,,,722,21,female,left_right_width,2024-11-02_15h35.40.288,exp1,2023.1.0,59.990521620956734,
,,,,,,,,,,,,,,,,5,9,9.5,10,10.5,11,0.5,0.1,0.4,2.4,10,initial,36.05,324,342,361,379,397,9,9,9,9,9,,,,,,,0,0,0,0,0,16,16,26,,,,,,,,,,,,num_4,1.6412488999776542,num_4,0.2,0.9,0.3,0.5,11.46165,19.10275,return,6.247163000050932,,,,,,,,,,,,,,,,,722,21,female,left_right_width,2024-11-02_15h35.40.288,exp1,2023.1.0,59.990521620956734,
,,,,,,,,,,,,,,,,5,9,9.5,10,10.5,11,0.5,0.1,0.4,2.4,10,initial,36.05,324,342,361,379,397,9,9,9,9,9,,,,,,,0,0,0,0,0,17,17,52,,,,,,,,,,,,num_5,1.5241538002155721,num_5,0.2,0.3,0.3,0.5,11.46165,19.10275,return,4.414493000134826,,,,,,,,,,,,,,,,,722,21,female,left_right_width,2024-11-02_15h35.40.288,exp1,2023.1.0,59.990521620956734,
,,,,,,,,,,,,,,,,5,9,9.5,10,10.5,11,0.5,0.1,0.4,2.4,10,initial,36.05,324,342,361,379,397,9,9,9,9,9,,,,,,,0,0,0,0,0,18,18,51,,,,,,,,,,,,num_4,3.3570957998745143,num_4,0.55,0.9,0.4,0.6,15.2822,22.9233,return,4.418871700298041,,,,,,,,,,,,,,,,,722,21,female,left_right_width,2024-11-02_15h35.40.288,exp1,2023.1.0,59.990521620956734,
,,,,,,,,,,,,,,,,3,9.5,10,10.5,0,0,0.5,0.1,0.4,1.4000000000000001,10,initial,36.05,342,361,379,0,0,9,9,9,0,0,,,,,,,0,0,0,0,0,19,19,2,,,,,,,,,,,,num_3,1.1227758997119963,num_3,0.4,0.9,0.35000000000000003,0.6,13.37193,22.9233,return,6.064273800235242,,,,,,,,,,,,,,,,,722,21,female,left_right_width,2024-11-02_15h35.40.288,exp1,2023.1.0,59.990521620956734,
,,,,,,,,,,,,,,,,4,9.25,9.75,10.25,10.75,0,0.5,0.1,0.4,1.9000000000000001,10,initial,36.05,333,351,370,388,0,9,9,9,9,0,,,,,,,0,0,0,0,0,20,20,17,,,,,,,,,,,,num_3,1.3661795002408326,num_3,0.5,1.1,0.30000000000000004,0.55,11.46165,21.01303,return,7.559626300353557,,,,,,,,,,,,,,,,,722,21,female,left_right_width,2024-11-02_15h35.40.288,exp1,2023.1.0,59.990521620956734,
,,,,,,,,,,,,,,,,4,9.25,9.75,10.25,10.75,0,0.5,0.1,0.4,1.9000000000000001,10,initial,36.05,333,351,370,388,0,9,9,9,9,0,,,,,,,0,0,0,0,0,21,21,13,,,,,,,,,,,,num_3,1.3764410000294447,num_3,0.25,0.3,0.39999999999999997,0.55,15.2822,21.01303,return,5.80105570005253,,,,,,,,,,,,,,,,,722,21,female,left_right_width,2024-11-02_15h35.40.288,exp1,2023.1.0,59.990521620956734,
,,,,,,,,,,,,,,,,4,9.25,9.75,10.25,10.75,0,0.5,0.1,0.4,1.9000000000000001,10,initial,36.05,333,351,370,388,0,9,9,9,9,0,,,,,,,0,0,0,0,0,22,22,42,,,,,,,,,,,,num_3,1.6905176998116076,num_3,0.35,1,0.35,0.55,13.37193,21.01303,return,3.583106300327927,,,,,,,,,,,,,,,,,722,21,female,left_right_width,2024-11-02_15h35.40.288,exp1,2023.1.0,59.990521620956734,
,,,,,,,,,,,,,,,,5,9,9.5,10,10.5,11,0.5,0.1,0.4,2.4,10,initial,36.05,324,342,361,379,397,9,9,9,9,9,,,,,,,0,0,0,0,0,23,23,19,,,,,,,,,,,,num_5,2.061162699945271,num_5,0.3,0.4,0.35,0.45,13.37193,17.19248,return,3.4612096999771893,,,,,,,,,,,,,,,,,722,21,female,left_right_width,2024-11-02_15h35.40.288,exp1,2023.1.0,59.990521620956734,
,,,,,,,,,,,,,,,,4,9.25,9.75,10.25,10.75,0,0.5,0.1,0.4,1.9000000000000001,10,initial,36.05,333,351,370,388,0,9,9,9,9,0,,,,,,,0,0,0,0,0,24,24,16,,,,,,,,,,,,num_4,2.3694825996644795,num_4,0.25,0.3,0.3,0.5,11.46165,19.10275,return,3.806482999585569,,,,,,,,,,,,,,,,,722,21,female,left_right_width,2024-11-02_15h35.40.288,exp1,2023.1.0,59.990521620956734,
,,,,,,,,,,,,,,,,3,9.5,10,10.5,0,0,0.5,0.1,0.4,1.4000000000000001,10,initial,36.05,342,361,379,0,0,9,9,9,0,0,,,,,,,0,0,0,0,0,25,25,31,,,,,,,,,,,,num_3,1.194544699974358,num_3,0.25,0.7,0.44999999999999996,0.65,17.19248,24.83358,return,7.07913829991594,,,,,,,,,,,,,,,,,722,21,female,left_right_width,2024-11-02_15h35.40.288,exp1,2023.1.0,59.990521620956734,
,,,,,,,,,,,,,,,,3,9.5,10,10.5,0,0,0.5,0.1,0.4,1.4000000000000001,10,initial,36.05,342,361,379,0,0,9,9,9,0,0,,,,,,,0,0,0,0,0,26,26,1,,,,,,,,,,,,num_3,1.5965430000796914,num_3,0.2,0.9,0.35,0.55,13.37193,21.01303,return,12.534998099785298,,,,,,,,,,,,,,,,,722,21,female,left_right_width,2024-11-02_15h35.40.288,exp1,2023.1.0,59.990521620956734,
,,,,,,,,,,,,,,,,5,9,9.5,10,10.5,11,0.5,0.1,0.4,2.4,10,initial,36.05,324,342,361,379,397,9,9,9,9,9,,,,,,,0,0,0,0,0,27,27,50,,,,,,,,,,,,num_4,1.565966300200671,num_4,0.45,0.5,0.35000000000000003,0.5,13.37193,19.10275,return,6.364278399851173,,,,,,,,,,,,,,,,,722,21,female,left_right_width,2024-11-02_15h35.40.288,exp1,2023.1.0,59.990521620956734,
,,,,,,,,,,,,,,,,5,9,9.5,10,10.5,11,0.5,0.1,0.4,2.4,10,initial,36.05,324,342,361,379,397,9,9,9,9,9,,,,,,,0,0,0,0,0,28,28,46,,,,,,,,,,,,num_5,1.1058840998448431,num_5,0.25,0.9,0.3,0.5,11.46165,19.10275,return,6.340253199916333,,,,,,,,,,,,,,,,,722,21,female,left_right_width,2024-11-02_15h35.40.288,exp1,2023.1.0,59.990521620956734,
,,,,,,,,,,,,,,,,4,9.25,9.75,10.25,10.75,0,0.5,0.1,0.4,1.9000000000000001,10,initial,36.05,333,351,370,388,0,9,9,9,9,0,,,,,,,0,0,0,0,0,29,29,44,,,,,,,,,,,,num_4,1.792270100209862,num_4,0.5,0.7,0.35000000000000003,0.6,13.37193,22.9233,return,10.102430500090122,,,,,,,,,,,,,,,,,722,21,female,left_right_width,2024-11-02_15h35.40.288,exp1,2023.1.0,59.990521620956734,
,,,,,,,,,,,,,,,,5,9,9.5,10,10.5,11,0.5,0.1,0.4,2.4,10,initial,36.05,324,342,361,379,397,9,9,9,9,9,,,,,,,0,0,0,0,0,30,30,18,,,,,,,,,,,,num_4,1.690482399892062,num_4,0.3,1.2,0.35,0.5,13.37193,19.10275,return,10.129112999886274,,,,,,,,,,,,,,,,,722,21,female,left_right_width,2024-11-02_15h35.40.288,exp1,2023.1.0,59.990521620956734,
,,,,,,,,,,,,,,,,4,9.25,9.75,10.25,10.75,0,0.5,0.1,0.4,1.9000000000000001,10,initial,36.05,333,351,370,388,0,9,9,9,9,0,,,,,,,0,0,0,0,0,31,31,10,,,,,,,,,,,,num_4,1.26599260000512,num_4,0.55,0.8,0.45,0.6,17.19248,22.9233,return,5.131770999636501,,,,,,,,,,,,,,,,,722,21,female,left_right_width,2024-11-02_15h35.40.288,exp1,2023.1.0,59.990521620956734,
,,,,,,,,,,,,,,,,4,9.25,9.75,10.25,10.75,0,0.5,0.1,0.4,1.9000000000000001,10,initial,36.05,333,351,370,388,0,9,9,9,9,0,,,,,,,0,0,0,0,0,32,32,14,,,,,,,,,,,,num_4,1.7037129001691937,num_4,0.35,1.1,0.39999999999999997,0.6,15.2822,22.9233,return,6.877571799792349,,,,,,,,,,,,,,,,,722,21,female,left_right_width,2024-11-02_15h35.40.288,exp1,2023.1.0,59.990521620956734,
,,,,,,,,,,,,,,,,5,9,9.5,10,10.5,11,0.5,0.1,0.4,2.4,10,initial,36.05,324,342,361,379,397,9,9,9,9,9,,,,,,,0,0,0,0,0,33,33,20,,,,,,,,,,,,num_5,2.5945816999301314,num_5,0.5,1.3,0.35000000000000003,0.5,13.37193,19.10275,return,6.585181899834424,,,,,,,,,,,,,,,,,722,21,female,left_right_width,2024-11-02_15h35.40.288,exp1,2023.1.0,59.990521620956734,
,,,,,,,,,,,,,,,,4,9.25,9.75,10.25,10.75,0,0.5,0.1,0.4,1.9000000000000001,10,initial,36.05,333,351,370,388,0,9,9,9,9,0,,,,,,,0,0,0,0,0,34,34,12,,,,,,,,,,,,num_4,1.0251215999014676,num_4,0.25,1.0,0.3,0.5,11.46165,19.10275,return,2.4985263999551535,,,,,,,,,,,,,,,,,722,21,female,left_right_width,2024-11-02_15h35.40.288,exp1,2023.1.0,59.990521620956734,
,,,,,,,,,,,,,,,,3,9.5,10,10.5,0,0,0.5,0.1,0.4,1.4000000000000001,10,initial,36.05,342,361,379,0,0,9,9,9,0,0,,,,,,,0,0,0,0,0,35,35,4,,,,,,,,,,,,num_3,0.9086949997581542,num_3,0.2,1.2,0.39999999999999997,0.6,15.2822,22.9233,return,4.848581300117075,,,,,,,,,,,,,,,,,722,21,female,left_right_width,2024-11-02_15h35.40.288,exp1,2023.1.0,59.990521620956734,
,,,,,,,,,,,,,,,,4,9.25,9.75,10.25,10.75,0,0.5,0.1,0.4,1.9000000000000001,10,initial,36.05,333,351,370,388,0,9,9,9,9,0,,,,,,,0,0,0,0,0,36,36,9,,,,,,,,,,,,num_4,2.258150300011039,num_4,0.2,1.3,0.3,0.5,11.46165,19.10275,return,11.07341599976644,,,,,,,,,,,,,,,,,722,21,female,left_right_width,2024-11-02_15h35.40.288,exp1,2023.1.0,59.990521620956734,
,,,,,,,,,,,,,,,,3,9.5,10,10.5,0,0,0.5,0.1,0.4,1.4000000000000001,10,initial,36.05,342,361,379,0,0,9,9,9,0,0,,,,,,,0,0,0,0,0,37,37,30,,,,,,,,,,,,num_3,1.201837600208819,num_3,0.55,0.9,0.30000000000000004,0.45,11.46165,17.19248,return,10.299296400044113,,,,,,,,,,,,,,,,,722,21,female,left_right_width,2024-11-02_15h35.40.288,exp1,2023.1.0,59.990521620956734,
,,,,,,,,,,,,,,,,3,9.5,10,10.5,0,0,0.5,0.1,0.4,1.4000000000000001,10,initial,36.05,342,361,379,0,0,9,9,9,0,0,,,,,,,0,0,0,0,0,38,38,35,,,,,,,,,,,,num_3,1.6225649998523295,num_3,0.45,0.6,0.30000000000000004,0.45,11.46165,17.19248,return,9.633102300111204,,,,,,,,,,,,,,,,,722,21,female,left_right_width,2024-11-02_15h35.40.288,exp1,2023.1.0,59.990521620956734,
,,,,,,,,,,,,,,,,4,9.25,9.75,10.25,10.75,0,0.5,0.1,0.4,1.9000000000000001,10,initial,36.05,333,351,370,388,0,9,9,9,9,0,,,,,,,0,0,0,0,0,39,39,36,,,,,,,,,,,,num_4,1.099031399935484,num_4,0.45,0.5,0.30000000000000004,0.5,11.46165,19.10275,return,5.742461499758065,,,,,,,,,,,,,,,,,722,21,female,left_right_width,2024-11-02_15h35.40.288,exp1,2023.1.0,59.990521620956734,
,,,,,,,,,,,,,,,,3,9.5,10,10.5,0,0,0.5,0.1,0.4,1.4000000000000001,10,initial,36.05,342,361,379,0,0,9,9,9,0,0,,,,,,,0,0,0,0,0,40,40,28,,,,,,,,,,,,num_3,1.01797810010612,num_3,0.25,1.2,0.3,0.5,11.46165,19.10275,return,5.5998090002685785,,,,,,,,,,,,,,,,,722,21,female,left_right_width,2024-11-02_15h35.40.288,exp1,2023.1.0,59.990521620956734,
,,,,,,,,,,,,,,,,3,9.5,10,10.5,0,0,0.5,0.1,0.4,1.4000000000000001,10,initial,36.05,342,361,379,0,0,9,9,9,0,0,,,,,,,0,0,0,0,0,41,41,6,,,,,,,,,,,,num_3,0.9510788000188768,num_3,0.45,0.6,0.4,0.55,15.2822,21.01303,return,6.057634099852294,,,,,,,,,,,,,,,,,722,21,female,left_right_width,2024-11-02_15h35.40.288,exp1,2023.1.0,59.990521620956734,
,,,,,,,,,,,,,,,,3,9.5,10,10.5,0,0,0.5,0.1,0.4,1.4000000000000001,10,initial,36.05,342,361,379,0,0,9,9,9,0,0,,,,,,,0,0,0,0,0,42,42,7,,,,,,,,,,,,num_3,0.8631823002360761,num_3,0.5,1.1,0.45,0.6,17.19248,22.9233,return,6.267816899809986,,,,,,,,,,,,,,,,,722,21,female,left_right_width,2024-11-02_15h35.40.288,exp1,2023.1.0,59.990521620956734,
,,,,,,,,,,,,,,,,3,9.5,10,10.5,0,0,0.5,0.1,0.4,1.4000000000000001,10,initial,36.05,342,361,379,0,0,9,9,9,0,0,,,,,,,0,0,0,0,0,43,43,5,,,,,,,,,,,,num_3,1.473994900006801,num_3,0.45,0.7,0.35000000000000003,0.55,13.37193,21.01303,return,3.777863800060004,,,,,,,,,,,,,,,,,722,21,female,left_right_width,2024-11-02_15h35.40.288,exp1,2023.1.0,59.990521620956734,
,,,,,,,,,,,,,,,,5,9,9.5,10,10.5,11,0.5,0.1,0.4,2.4,10,initial,36.05,324,342,361,379,397,9,9,9,9,9,,,,,,,0,0,0,0,0,44,44,22,,,,,,,,,,,,num_5,1.1637734002433717,num_5,0.4,0.6,0.4,0.55,15.2822,21.01303,return,3.740710699930787,,,,,,,,,,,,,,,,,722,21,female,left_right_width,2024-11-02_15h35.40.288,exp1,2023.1.0,59.990521620956734,
,,,,,,,,,,,,,,,,3,9.5,10,10.5,0,0,0.5,0.1,0.4,1.4000000000000001,10,initial,36.05,342,361,379,0,0,9,9,9,0,0,,,,,,,0,0,0,0,0,45,45,34,,,,,,,,,,,,num_3,1.040495399851352,num_3,0.4,1,0.30000000000000004,0.5,11.46165,19.10275,return,5.761970699764788,,,,,,,,,,,,,,,,,722,21,female,left_right_width,2024-11-02_15h35.40.288,exp1,2023.1.0,59.990521620956734,
,,,,,,,,,,,,,,,,5,9,9.5,10,10.5,11,0.5,0.1,0.4,2.4,10,initial,36.05,324,342,361,379,397,9,9,9,9,9,,,,,,,0,0,0,0,0,46,46,45,,,,,,,,,,,,num_4,1.0328653999604285,num_4,0.35,1.0,0.3,0.5,11.46165,19.10275,return,11.26111329998821,,,,,,,,,,,,,,,,,722,21,female,left_right_width,2024-11-02_15h35.40.288,exp1,2023.1.0,59.990521620956734,
,,,,,,,,,,,,,,,,3,9.5,10,10.5,0,0,0.5,0.1,0.4,1.4000000000000001,10,initial,36.05,342,361,379,0,0,9,9,9,0,0,,,,,,,0,0,0,0,0,47,47,8,,,,,,,,,,,,num_4,1.401115800254047,num_4,0.3,1.2,0.15000000000000002,0.3,5.73083,11.46165,return,5.8664824003353715,,,,,,,,,,,,,,,,,722,21,female,left_right_width,2024-11-02_15h35.40.288,exp1,2023.1.0,59.990521620956734,
,,,,,,,,,,,,,,,,5,9,9.5,10,10.5,11,0.5,0.1,0.4,2.4,10,initial,36.05,324,342,361,379,397,9,9,9,9,9,,,,,,,0,0,0,0,0,48,48,23,,,,,,,,,,,,num_5,1.45183049980551,num_5,0.2,0.7,0.15000000000000002,0.35,5.73083,13.37193,return,4.174123200122267,,,,,,,,,,,,,,,,,722,21,female,left_right_width,2024-11-02_15h35.40.288,exp1,2023.1.0,59.990521620956734,
,,,,,,,,,,,,,,,,3,9.5,10,10.5,0,0,0.5,0.1,0.4,1.4000000000000001,10,initial,36.05,342,361,379,0,0,9,9,9,0,0,,,,,,,0,0,0,0,0,49,49,32,,,,,,,,,,,,num_4,2.234991400036961,num_4,0.45,1.3,0.25000000000000006,0.4,9.55138,15.2822,return,4.143121900036931,,,,,,,,,,,,,,,,,722,21,female,left_right_width,2024-11-02_15h35.40.288,exp1,2023.1.0,59.990521620956734,
,,,,,,,,,,,,,,,,3,9.5,10,10.5,0,0,0.5,0.1,0.4,1.4000000000000001,10,initial,36.05,342,361,379,0,0,9,9,9,0,0,,,,,,,0,0,0,0,0,50,50,33,,,,,,,,,,,,num_4,1.573368000332266,num_4,0.25,0.4,0.3,0.5,11.46165,19.10275,return,3.555951099842787,,,,,,,,,,,,,,,,,722,21,female,left_right_width,2024-11-02_15h35.40.288,exp1,2023.1.0,59.990521620956734,
,,,,,,,,,,,,,,,,3,9.5,10,10.5,0,0,0.5,0.1,0.4,1.4000000000000001,10,initial,36.05,342,361,379,0,0,9,9,9,0,0,,,,,,,0,0,0,0,0,51,51,29,,,,,,,,,,,,num_3,1.5134268002584577,num_3,0.35,0.9,0.3,0.45,11.46165,17.19248,return,3.461084000300616,,,,,,,,,,,,,,,,,722,21,female,left_right_width,2024-11-02_15h35.40.288,exp1,2023.1.0,59.990521620956734,
,,,,,,,,,,,,,,,,4,9.25,9.75,10.25,10.75,0,0.5,0.1,0.4,1.9000000000000001,10,initial,36.05,333,351,370,388,0,9,9,9,9,0,,,,,,,0,0,0,0,0,52,52,43,,,,,,,,,,,,num_5,1.3627066002227366,num_5,0.2,0.6,0.3,0.45,11.46165,17.19248,return,4.091247099917382,,,,,,,,,,,,,,,,,722,21,female,left_right_width,2024-11-02_15h35.40.288,exp1,2023.1.0,59.990521620956734,
,,,,,,,,,,,,,,,,5,9,9.5,10,10.5,11,0.5,0.1,0.4,2.4,10,initial,36.05,324,342,361,379,397,9,9,9,9,9,,,,,,,0,0,0,0,0,53,53,24,,,,,,,,,,,,num_5,1.025280900299549,num_5,0.25,1.0,0.25,0.5,9.55138,19.10275,return,6.467008600011468,,,,,,,,,,,,,,,,,722,21,female,left_right_width,2024-11-02_15h35.40.288,exp1,2023.1.0,59.990521620956734,
,,,,,,,,,,,,,,,,,,,,,,,,,,,,,,,,,,,,,,,,,,,,,0,0,0,0,,,,,,,,,,,,,,,,,,,,,,,,,,,,,1002.78509879997,1002.78509879997,1002.78509879997,,,,,,,,,,,,722,21,female,left_right_width,2024-11-02_15h35.40.288,exp1,2023.1.0,59.990521620956734,
,,,,,,,,,,,,,,,,5,9,9.5,10,10.5,11,0.5,0.25,0.25,2.25,10,initial,36.05,324,342,361,379,397,9,9,9,9,9,,,,,,,1,0,1,0,0,0,0,25,,,,,,,,,,,,num_5,1.698995899874717,num_5,0.4,0.8,0.15000000000000008,0.75,5.73083,28.65413,return,7.7250723000615835,,,,,,,,,,,,,,,,,722,21,female,left_right_width,2024-11-02_15h35.40.288,exp1,2023.1.0,59.990521620956734,
,,,,,,,,,,,,,,,,4,9.25,9.75,10.25,10.75,0,0.5,0.25,0.25,1.75,10,initial,36.05,333,351,370,388,0,9,9,9,9,0,,,,,,,1,0,1,0,0,1,1,15,,,,,,,,,,,,num_4,1.082666200120002,num_4,0.55,0.8,0.15000000000000008,0.7,5.73083,26.74385,return,4.348989500198513,,,,,,,,,,,,,,,,,722,21,female,left_right_width,2024-11-02_15h35.40.288,exp1,2023.1.0,59.990521620956734,
,,,,,,,,,,,,,,,,5,9,9.5,10,10.5,11,0.5,0.25,0.25,2.25,10,initial,36.05,324,342,361,379,397,9,9,9,9,9,,,,,,,1,0,1,0,0,2,2,26,,,,,,,,,,,,num_5,1.1559971999377012,num_5,0.25,1.3,0.10000000000000002,1.1,3.82055,42.02605,return,3.775088899768889,,,,,,,,,,,,,,,,,722,21,female,left_right_width,2024-11-02_15h35.40.288,exp1,2023.1.0,59.990521620956734,
,,,,,,,,,,,,,,,,3,9.5,10,10.5,0,0,0.5,0.25,0.25,1.25,10,initial,36.05,342,361,379,0,0,9,9,9,0,0,,,,,,,1,0,1,0,0,3,3,0,,,,,,,,,,,,num_3,0.9495717003010213,num_3,0.35,1,0.10000000000000002,0.9,3.82055,34.38495,return,3.6079605002887547,,,,,,,,,,,,,,,,,722,21,female,left_right_width,2024-11-02_15h35.40.288,exp1,2023.1.0,59.990521620956734,
,,,,,,,,,,,,,,,,5,9,9.5,10,10.5,11,0.5,0.25,0.25,2.25,10,initial,36.05,324,342,361,379,397,9,9,9,9,9,,,,,,,1,0,1,0,0,4,4,21,,,,,,,,,,,,num_5,1.0395979997701943,num_5,0.4,0.6,0.10000000000000007,0.55,3.82055,21.01303,return,4.319848000071943,,,,,,,,,,,,,,,,,722,21,female,left_right_width,2024-11-02_15h35.40.288,exp1,2023.1.0,59.990521620956734,
,,,,,,,,,,,,,,,,4,9.25,9.75,10.25,10.75,0,0.5,0.25,0.25,1.75,10,initial,36.05,333,351,370,388,0,9,9,9,9,0,,,,,,,1,0,1,0,0,5,5,38,,,,,,,,,,,,num_4,0.9750548000447452,num_4,0.45,0.5,0.10000000000000007,0.7,3.82055,26.74385,return,4.9155766000039876,,,,,,,,,,,,,,,,,722,21,female,left_right_width,2024-11-02_15h35.40.288,exp1,2023.1.0,59.990521620956734,
,,,,,,,,,,,,,,,,4,9.25,9.75,10.25,10.75,0,0.5,0.25,0.25,1.75,10,initial,36.05,333,351,370,388,0,9,9,9,9,0,,,,,,,1,0,1,0,0,6,6,9,,,,,,,,,,,,num_4,0.9119780999608338,num_4,0.35,0.9,0.10000000000000002,0.7,3.82055,26.74385,return,4.182398200035095,,,,,,,,,,,,,,,,,722,21,female,left_right_width,2024-11-02_15h35.40.288,exp1,2023.1.0,59.990521620956734,
,,,,,,,,,,,,,,,,3,9.5,10,10.5,0,0,0.5,0.25,0.25,1.25,10,initial,36.05,342,361,379,0,0,9,9,9,0,0,,,,,,,1,0,1,0,0,7,7,4,,,,,,,,,,,,num_3,1.0518329003825784,num_3,0.4,1.3,-0.09999999999999996,0.85,-3.82055,32.47468,return,14.747313000261784,,,,,,,,,,,,,,,,,722,21,female,left_right_width,2024-11-02_15h35.40.288,exp1,2023.1.0,59.990521620956734,
,,,,,,,,,,,,,,,,4,9.25,9.75,10.25,10.75,0,0.5,0.25,0.25,1.75,10,initial,36.05,333,351,370,388,0,9,9,9,9,0,,,,,,,1,0,1,0,0,8,8,13,,,,,,,,,,,,num_3,1.0146013000048697,num_3,0.35,1.3,0.10000000000000002,1.0,3.82055,38.2055,return,6.840107899624854,,,,,,,,,,,,,,,,,722,21,female,left_right_width,2024-11-02_15h35.40.288,exp1,2023.1.0,59.990521620956734,
,,,,,,,,,,,,,,,,3,9.5,10,10.5,0,0,0.5,0.25,0.25,1.25,10,initial,36.05,342,361,379,0,0,9,9,9,0,0,,,,,,,1,0,1,0,0,9,9,27,,,,,,,,,,,,num_3,0.9324766998179257,num_3,0.3,0.7,0.10000000000000002,0.75,3.82055,28.65413,return,5.242536100093275,,,,,,,,,,,,,,,,,722,21,female,left_right_width,2024-11-02_15h35.40.288,exp1,2023.1.0,59.990521620956734,
,,,,,,,,,,,,,,,,5,9,9.5,10,10.5,11,0.5,0.25,0.25,2.25,10,initial,36.05,324,342,361,379,397,9,9,9,9,9,,,,,,,1,0,1,0,0,10,10,45,,,,,,,,,,,,num_5,0.968502199742943,num_5,0.3,1.1,0.10000000000000002,0.85,3.82055,32.47468,return,6.80091750016436,,,,,,,,,,,,,,,,,722,21,female,left_right_width,2024-11-02_15h35.40.288,exp1,2023.1.0,59.990521620956734,
,,,,,,,,,,,,,,,,4,9.25,9.75,10.25,10.75,0,0.5,0.25,0.25,1.75,10,initial,36.05,333,351,370,388,0,9,9,9,9,0,,,,,,,1,0,1,0,0,11,11,12,,,,,,,,,,,,num_4,0.9164144000969827,num_4,0.45,1.1,0.10000000000000007,0.8,3.82055,30.5644,return,6.032286799978465,,,,,,,,,,,,,,,,,722,21,female,left_right_width,2024-11-02_15h35.40.288,exp1,2023.1.0,59.990521620956734,
,,,,,,,,,,,,,,,,4,9.25,9.75,10.25,10.75,0,0.5,0.25,0.25,1.75,10,initial,36.05,333,351,370,388,0,9,9,9,9,0,,,,,,,1,0,1,0,0,12,12,11,,,,,,,,,,,,num_4,0.95508630014956,num_4,0.35,0.4,0.10000000000000002,0.6,3.82055,22.9233,return,5.9390258002094924,,,,,,,,,,,,,,,,,722,21,female,left_right_width,2024-11-02_15h35.40.288,exp1,2023.1.0,59.990521620956734,
,,,,,,,,,,,,,,,,4,9.25,9.75,10.25,10.75,0,0.5,0.25,0.25,1.75,10,initial,36.05,333,351,370,388,0,9,9,9,9,0,,,,,,,1,0,1,0,0,13,13,41,,,,,,,,,,,,num_4,0.9825848997570574,num_4,0.2,1.3,0.15000000000000002,0.6,5.73083,22.9233,return,4.364163099788129,,,,,,,,,,,,,,,,,722,21,female,left_right_width,2024-11-02_15h35.40.288,exp1,2023.1.0,59.990521620956734,
,,,,,,,,,,,,,,,,3,9.5,10,10.5,0,0,0.5,0.25,0.25,1.25,10,initial,36.05,342,361,379,0,0,9,9,9,0,0,,,,,,,1,0,1,0,0,14,14,7,,,,,,,,,,,,num_3,0.9427891997620463,num_3,0.45,1.1,0.10000000000000007,0.7,3.82055,26.74385,return,7.101565999910235,,,,,,,,,,,,,,,,,722,21,female,left_right_width,2024-11-02_15h35.40.288,exp1,2023.1.0,59.990521620956734,
,,,,,,,,,,,,,,,,3,9.5,10,10.5,0,0,0.5,0.25,0.25,1.25,10,initial,36.05,342,361,379,0,0,9,9,9,0,0,,,,,,,1,0,1,0,0,15,15,8,,,,,,,,,,,,num_3,1.042429099790752,num_3,0.5,1.2,0.15000000000000008,0.75,5.73083,28.65413,return,5.254736499860883,,,,,,,,,,,,,,,,,722,21,female,left_right_width,2024-11-02_15h35.40.288,exp1,2023.1.0,59.990521620956734,
,,,,,,,,,,,,,,,,4,9.25,9.75,10.25,10.75,0,0.5,0.25,0.25,1.75,10,initial,36.05,333,351,370,388,0,9,9,9,9,0,,,,,,,1,0,1,0,0,16,16,36,,,,,,,,,,,,num_4,0.9179390999488533,num_4,0.5,0.6,0.10000000000000007,0.5,3.82055,19.10275,return,12.508837299887091,,,,,,,,,,,,,,,,,722,21,female,left_right_width,2024-11-02_15h35.40.288,exp1,2023.1.0,59.990521620956734,
,,,,,,,,,,,,,,,,5,9,9.5,10,10.5,11,0.5,0.25,0.25,2.25,10,initial,36.05,324,342,361,379,397,9,9,9,9,9,,,,,,,1,0,1,0,0,17,17,51,,,,,,,,,,,,num_5,0.9523935001343489,num_5,0.35,1.1,0.10000000000000002,0.7,3.82055,26.74385,return,6.205764799844474,,,,,,,,,,,,,,,,,722,21,female,left_right_width,2024-11-02_15h35.40.288,exp1,2023.1.0,59.990521620956734,
,,,,,,,,,,,,,,,,3,9.5,10,10.5,0,0,0.5,0.25,0.25,1.25,10,initial,36.05,342,361,379,0,0,9,9,9,0,0,,,,,,,1,0,1,0,0,18,18,30,,,,,,,,,,,,num_3,1.826809599995613,num_3,0.3,0.9,0.15000000000000002,0.75,5.73083,28.65413,return,5.521948299836367,,,,,,,,,,,,,,,,,722,21,female,left_right_width,2024-11-02_15h35.40.288,exp1,2023.1.0,59.990521620956734,
,,,,,,,,,,,,,,,,5,9,9.5,10,10.5,11,0.5,0.25,0.25,2.25,10,initial,36.05,324,342,361,379,397,9,9,9,9,9,,,,,,,1,0,1,0,0,19,19,20,,,,,,,,,,,,num_5,0.9352301997132599,num_5,0.3,0.5,0.10000000000000002,0.65,3.82055,24.83358,return,5.661182899959385,,,,,,,,,,,,,,,,,722,21,female,left_right_width,2024-11-02_15h35.40.288,exp1,2023.1.0,59.990521620956734,
,,,,,,,,,,,,,,,,5,9,9.5,10,10.5,11,0.5,0.25,0.25,2.25,10,initial,36.05,324,342,361,379,397,9,9,9,9,9,,,,,,,1,0,1,0,0,20,20,46,,,,,,,,,,,,num_5,1.1842363001778722,num_5,0.25,0.3,0.10000000000000002,0.55,3.82055,21.01303,return,5.673976599704474,,,,,,,,,,,,,,,,,722,21,female,left_right_width,2024-11-02_15h35.40.288,exp1,2023.1.0,59.990521620956734,
,,,,,,,,,,,,,,,,5,9,9.5,10,10.5,11,0.5,0.25,0.25,2.25,10,initial,36.05,324,342,361,379,397,9,9,9,9,9,,,,,,,1,0,1,0,0,21,21,49,,,,,,,,,,,,num_5,0.9333051000721753,num_5,0.5,1.0,0.15000000000000008,0.85,5.73083,32.47468,return,6.831868700217456,,,,,,,,,,,,,,,,,722,21,female,left_right_width,2024-11-02_15h35.40.288,exp1,2023.1.0,59.990521620956734,
,,,,,,,,,,,,,,,,3,9.5,10,10.5,0,0,0.5,0.25,0.25,1.25,10,initial,36.05,342,361,379,0,0,9,9,9,0,0,,,,,,,1,0,1,0,0,22,22,2,,,,,,,,,,,,num_3,1.0297735002823174,num_3,0.55,0.7,0.10000000000000007,0.55,3.82055,21.01303,return,5.911014399956912,,,,,,,,,,,,,,,,,722,21,female,left_right_width,2024-11-02_15h35.40.288,exp1,2023.1.0,59.990521620956734,
,,,,,,,,,,,,,,,,4,9.25,9.75,10.25,10.75,0,0.5,0.25,0.25,1.75,10,initial,36.05,333,351,370,388,0,9,9,9,9,0,,,,,,,1,0,1,0,0,23,23,39,,,,,,,,,,,,num_4,0.8700545001775026,num_4,0.45,1.3,0.15000000000000008,0.6,5.73083,22.9233,return,5.914894199930131,,,,,,,,,,,,,,,,,722,21,female,left_right_width,2024-11-02_15h35.40.288,exp1,2023.1.0,59.990521620956734,
,,,,,,,,,,,,,,,,5,9,9.5,10,10.5,11,0.5,0.25,0.25,2.25,10,initial,36.05,324,342,361,379,397,9,9,9,9,9,,,,,,,1,0,1,0,0,24,24,52,,,,,,,,,,,,num_5,0.9080343996174634,num_5,0.45,1.1,0.15000000000000008,0.6,5.73083,22.9233,return,4.676016899757087,,,,,,,,,,,,,,,,,722,21,female,left_right_width,2024-11-02_15h35.40.288,exp1,2023.1.0,59.990521620956734,
,,,,,,,,,,,,,,,,3,9.5,10,10.5,0,0,0.5,0.25,0.25,1.25,10,initial,36.05,342,361,379,0,0,9,9,9,0,0,,,,,,,1,0,1,0,0,25,25,31,,,,,,,,,,,,num_3,0.7708177003078163,num_3,0.25,0.4,0.10000000000000002,0.6,3.82055,22.9233,return,3.906878700014204,,,,,,,,,,,,,,,,,722,21,female,left_right_width,2024-11-02_15h35.40.288,exp1,2023.1.0,59.990521620956734,
,,,,,,,,,,,,,,,,5,9,9.5,10,10.5,11,0.5,0.25,0.25,2.25,10,initial,36.05,324,342,361,379,397,9,9,9,9,9,,,,,,,1,0,1,0,0,26,26,18,,,,,,,,,,,,num_5,0.9413265995681286,num_5,0.4,1.3,0.10000000000000007,0.95,3.82055,36.29523,return,4.712916399817914,,,,,,,,,,,,,,,,,722,21,female,left_right_width,2024-11-02_15h35.40.288,exp1,2023.1.0,59.990521620956734,
,,,,,,,,,,,,,,,,5,9,9.5,10,10.5,11,0.5,0.25,0.25,2.25,10,initial,36.05,324,342,361,379,397,9,9,9,9,9,,,,,,,1,0,1,0,0,27,27,50,,,,,,,,,,,,num_4,0.9873511004261672,num_4,0.45,0.7,0.10000000000000007,0.7,3.82055,26.74385,return,4.946789700072259,,,,,,,,,,,,,,,,,722,21,female,left_right_width,2024-11-02_15h35.40.288,exp1,2023.1.0,59.990521620956734,
,,,,,,,,,,,,,,,,3,9.5,10,10.5,0,0,0.5,0.25,0.25,1.25,10,initial,36.05,342,361,379,0,0,9,9,9,0,0,,,,,,,1,0,1,0,0,28,28,33,,,,,,,,,,,,num_3,0.7816355000250041,num_3,0.45,1.2,0.10000000000000007,0.85,3.82055,32.47468,return,6.6811391999945045,,,,,,,,,,,,,,,,,722,21,female,left_right_width,2024-11-02_15h35.40.288,exp1,2023.1.0,59.990521620956734,
,,,,,,,,,,,,,,,,4,9.25,9.75,10.25,10.75,0,0.5,0.25,0.25,1.75,10,initial,36.05,333,351,370,388,0,9,9,9,9,0,,,,,,,1,0,1,0,0,29,29,42,,,,,,,,,,,,num_4,0.8757621003314853,num_4,0.4,0.5,0.10000000000000007,0.7,3.82055,26.74385,return,4.018899400252849,,,,,,,,,,,,,,,,,722,21,female,left_right_width,2024-11-02_15h35.40.288,exp1,2023.1.0,59.990521620956734,
,,,,,,,,,,,,,,,,3,9.5,10,10.5,0,0,0.5,0.25,0.25,1.25,10,initial,36.05,342,361,379,0,0,9,9,9,0,0,,,,,,,1,0,1,0,0,30,30,29,,,,,,,,,,,,num_3,0.9347739997319877,num_3,0.45,1.3,0.15000000000000008,0.8,5.73083,30.5644,return,6.687732100021094,,,,,,,,,,,,,,,,,722,21,female,left_right_width,2024-11-02_15h35.40.288,exp1,2023.1.0,59.990521620956734,
,,,,,,,,,,,,,,,,4,9.25,9.75,10.25,10.75,0,0.5,0.25,0.25,1.75,10,initial,36.05,333,351,370,388,0,9,9,9,9,0,,,,,,,1,0,1,0,0,31,31,16,,,,,,,,,,,,num_4,0.8821827997453511,num_4,0.3,0.7,0.15000000000000002,0.7,5.73083,26.74385,return,2.366371599957347,,,,,,,,,,,,,,,,,722,21,female,left_right_width,2024-11-02_15h35.40.288,exp1,2023.1.0,59.990521620956734,
,,,,,,,,,,,,,,,,5,9,9.5,10,10.5,11,0.5,0.25,0.25,2.25,10,initial,36.05,324,342,361,379,397,9,9,9,9,9,,,,,,,1,0,1,0,0,32,32,47,,,,,,,,,,,,num_5,1.132582699880004,num_5,0.45,1.1,0.20000000000000007,0.95,7.6411,36.29523,return,4.235282599925995,,,,,,,,,,,,,,,,,722,21,female,left_right_width,2024-11-02_15h35.40.288,exp1,2023.1.0,59.990521620956734,
,,,,,,,,,,,,,,,,4,9.25,9.75,10.25,10.75,0,0.5,0.25,0.25,1.75,10,initial,36.05,333,351,370,388,0,9,9,9,9,0,,,,,,,1,0,1,0,0,33,33,10,,,,,,,,,,,,num_4,0.9425033000297844,num_4,0.4,0.5,0.15000000000000008,0.8,5.73083,30.5644,return,3.3304358003661036,,,,,,,,,,,,,,,,,722,21,female,left_right_width,2024-11-02_15h35.40.288,exp1,2023.1.0,59.990521620956734,
,,,,,,,,,,,,,,,,5,9,9.5,10,10.5,11,0.5,0.25,0.25,2.25,10,initial,36.05,324,342,361,379,397,9,9,9,9,9,,,,,,,1,0,1,0,0,34,34,23,,,,,,,,,,,,num_5,0.9705806002020836,num_5,0.3,0.9,0.2,0.8,7.6411,30.5644,return,3.550121200270951,,,,,,,,,,,,,,,,,722,21,female,left_right_width,2024-11-02_15h35.40.288,exp1,2023.1.0,59.990521620956734,
,,,,,,,,,,,,,,,,4,9.25,9.75,10.25,10.75,0,0.5,0.25,0.25,1.75,10,initial,36.05,333,351,370,388,0,9,9,9,9,0,,,,,,,1,0,1,0,0,35,35,40,,,,,,,,,,,,num_4,0.8946980000473559,num_4,0.45,1.1,0.25000000000000006,0.8,9.55138,30.5644,return,3.6387925003655255,,,,,,,,,,,,,,,,,722,21,female,left_right_width,2024-11-02_15h35.40.288,exp1,2023.1.0,59.990521620956734,
,,,,,,,,,,,,,,,,3,9.5,10,10.5,0,0,0.5,0.25,0.25,1.25,10,initial,36.05,342,361,379,0,0,9,9,9,0,0,,,,,,,1,0,1,0,0,36,36,3,,,,,,,,,,,,num_3,0.9812340997159481,num_3,0.55,1,0.25000000000000006,0.8,9.55138,30.5644,return,4.058942399919033,,,,,,,,,,,,,,,,,722,21,female,left_right_width,2024-11-02_15h35.40.288,exp1,2023.1.0,59.990521620956734,
,,,,,,,,,,,,,,,,4,9.25,9.75,10.25,10.75,0,0.5,0.25,0.25,1.75,10,initial,36.05,333,351,370,388,0,9,9,9,9,0,,,,,,,1,0,1,0,0,37,37,14,,,,,,,,,,,,num_3,0.9563525998964906,num_3,0.2,0.8,0.3,0.8,11.46165,30.5644,return,2.0629594000056386,,,,,,,,,,,,,,,,,722,21,female,left_right_width,2024-11-02_15h35.40.288,exp1,2023.1.0,59.990521620956734,
,,,,,,,,,,,,,,,,3,9.5,10,10.5,0,0,0.5,0.25,0.25,1.25,10,initial,36.05,342,361,379,0,0,9,9,9,0,0,,,,,,,1,0,1,0,0,38,38,35,,,,,,,,,,,,num_3,1.001168199814856,num_3,0.45,0.9,0.25000000000000006,0.85,9.55138,32.47468,return,3.4552595000714064,,,,,,,,,,,,,,,,,722,21,female,left_right_width,2024-11-02_15h35.40.288,exp1,2023.1.0,59.990521620956734,
,,,,,,,,,,,,,,,,3,9.5,10,10.5,0,0,0.5,0.25,0.25,1.25,10,initial,36.05,342,361,379,0,0,9,9,9,0,0,,,,,,,1,0,1,0,0,39,39,5,,,,,,,,,,,,num_3,0.7645291001535952,num_3,0.35,1,0.2,0.8,7.6411,30.5644,return,2.9560396000742912,,,,,,,,,,,,,,,,,722,21,female,left_right_width,2024-11-02_15h35.40.288,exp1,2023.1.0,59.990521620956734,
,,,,,,,,,,,,,,,,3,9.5,10,10.5,0,0,0.5,0.25,0.25,1.25,10,initial,36.05,342,361,379,0,0,9,9,9,0,0,,,,,,,1,0,1,0,0,40,40,6,,,,,,,,,,,,num_3,1.0019601001404226,num_3,0.55,1.1,0.20000000000000007,0.85,7.6411,32.47468,return,4.74602479999885,,,,,,,,,,,,,,,,,722,21,female,left_right_width,2024-11-02_15h35.40.288,exp1,2023.1.0,59.990521620956734,
,,,,,,,,,,,,,,,,4,9.25,9.75,10.25,10.75,0,0.5,0.25,0.25,1.75,10,initial,36.05,333,351,370,388,0,9,9,9,9,0,,,,,,,1,0,1,0,0,41,41,43,,,,,,,,,,,,num_4,1.0938633000478148,num_4,0.2,0.7,0.2,0.7,7.6411,26.74385,return,1.2521784999407828,,,,,,,,,,,,,,,,,722,21,female,left_right_width,2024-11-02_15h35.40.288,exp1,2023.1.0,59.990521620956734,
,,,,,,,,,,,,,,,,5,9,9.5,10,10.5,11,0.5,0.25,0.25,2.25,10,initial,36.05,324,342,361,379,397,9,9,9,9,9,,,,,,,1,0,1,0,0,42,42,53,,,,,,,,,,,,num_5,0.88829609984532,num_5,0.2,0.9,0.2,0.75,7.6411,28.65413,return,2.6746622999198735,,,,,,,,,,,,,,,,,722,21,female,left_right_width,2024-11-02_15h35.40.288,exp1,2023.1.0,59.990521620956734,
,,,,,,,,,,,,,,,,3,9.5,10,10.5,0,0,0.5,0.25,0.25,1.25,10,initial,36.05,342,361,379,0,0,9,9,9,0,0,,,,,,,1,0,1,0,0,43,43,1,,,,,,,,,,,,num_3,0.6974924998357892,num_3,0.35,1.1,0.2,0.9,7.6411,34.38495,return,3.7023581000976264,,,,,,,,,,,,,,,,,722,21,female,left_right_width,2024-11-02_15h35.40.288,exp1,2023.1.0,59.990521620956734,
,,,,,,,,,,,,,,,,3,9.5,10,10.5,0,0,0.5,0.25,0.25,1.25,10,initial,36.05,342,361,379,0,0,9,9,9,0,0,,,,,,,1,0,1,0,0,44,44,32,,,,,,,,,,,,num_3,0.7090293997898698,num_3,0.45,0.7,0.20000000000000007,0.7,7.6411,26.74385,return,3.185586899984628,,,,,,,,,,,,,,,,,722,21,female,left_right_width,2024-11-02_15h35.40.288,exp1,2023.1.0,59.990521620956734,
,,,,,,,,,,,,,,,,5,9,9.5,10,10.5,11,0.5,0.25,0.25,2.25,10,initial,36.05,324,342,361,379,397,9,9,9,9,9,,,,,,,1,0,1,0,0,45,45,22,,,,,,,,,,,,num_6,1.4727151999250054,num_6,0.5,0.6,0.20000000000000007,0.5,7.6411,19.10275,return,3.0724037000909448,,,,,,,,,,,,,,,,,722,21,female,left_right_width,2024-11-02_15h35.40.288,exp1,2023.1.0,59.990521620956734,
,,,,,,,,,,,,,,,,3,9.5,10,10.5,0,0,0.5,0.25,0.25,1.25,10,initial,36.05,342,361,379,0,0,9,9,9,0,0,,,,,,,1,0,1,0,0,46,46,34,,,,,,,,,,,,num_3,0.7367170001380146,num_3,0.45,1,0.20000000000000007,0.95,7.6411,36.29523,return,2.7029292001388967,,,,,,,,,,,,,,,,,722,21,female,left_right_width,2024-11-02_15h35.40.288,exp1,2023.1.0,59.990521620956734,
,,,,,,,,,,,,,,,,4,9.25,9.75,10.25,10.75,0,0.5,0.25,0.25,1.75,10,initial,36.05,333,351,370,388,0,9,9,9,9,0,,,,,,,1,0,1,0,0,47,47,44,,,,,,,,,,,,num_4,1.1112838997505605,num_4,0.3,0.9,0.2,0.6,7.6411,22.9233,return,4.457172299735248,,,,,,,,,,,,,,,,,722,21,female,left_right_width,2024-11-02_15h35.40.288,exp1,2023.1.0,59.990521620956734,
,,,,,,,,,,,,,,,,5,9,9.5,10,10.5,11,0.5,0.25,0.25,2.25,10,initial,36.05,324,342,361,379,397,9,9,9,9,9,,,,,,,1,0,1,0,0,48,48,24,,,,,,,,,,,,num_5,0.9966955999843776,num_5,0.4,1.3,0.20000000000000007,0.75,7.6411,28.65413,return,5.282914099749178,,,,,,,,,,,,,,,,,722,21,female,left_right_width,2024-11-02_15h35.40.288,exp1,2023.1.0,59.990521620956734,
,,,,,,,,,,,,,,,,3,9.5,10,10.5,0,0,0.5,0.25,0.25,1.25,10,initial,36.05,342,361,379,0,0,9,9,9,0,0,,,,,,,1,0,1,0,0,49,49,28,,,,,,,,,,,,num_3,0.7473732996731997,num_3,0.2,0.8,0.2,0.7,7.6411,26.74385,return,1.5300420001149178,,,,,,,,,,,,,,,,,722,21,female,left_right_width,2024-11-02_15h35.40.288,exp1,2023.1.0,59.990521620956734,
,,,,,,,,,,,,,,,,4,9.25,9.75,10.25,10.75,0,0.5,0.25,0.25,1.75,10,initial,36.05,333,351,370,388,0,9,9,9,9,0,,,,,,,1,0,1,0,0,50,50,17,,,,,,,,,,,,num_4,0.8964285003021359,num_4,0.25,0.5,0.2,0.5,7.6411,19.10275,return,1.8131978996098042,,,,,,,,,,,,,,,,,722,21,female,left_right_width,2024-11-02_15h35.40.288,exp1,2023.1.0,59.990521620956734,
,,,,,,,,,,,,,,,,5,9,9.5,10,10.5,11,0.5,0.25,0.25,2.25,10,initial,36.05,324,342,361,379,397,9,9,9,9,9,,,,,,,1,0,1,0,0,51,51,48,,,,,,,,,,,,num_5,0.7747563002631068,num_5,0.25,0.9,0.2,0.75,7.6411,28.65413,return,2.88292340002954,,,,,,,,,,,,,,,,,722,21,female,left_right_width,2024-11-02_15h35.40.288,exp1,2023.1.0,59.990521620956734,
,,,,,,,,,,,,,,,,4,9.25,9.75,10.25,10.75,0,0.5,0.25,0.25,1.75,10,initial,36.05,333,351,370,388,0,9,9,9,9,0,,,,,,,1,0,1,0,0,52,52,37,,,,,,,,,,,,num_4,0.8541480996645987,num_4,0.2,0.4,0.2,0.7,7.6411,26.74385,return,2.0645225001499057,,,,,,,,,,,,,,,,,722,21,female,left_right_width,2024-11-02_15h35.40.288,exp1,2023.1.0,59.990521620956734,
,,,,,,,,,,,,,,,,5,9,9.5,10,10.5,11,0.5,0.25,0.25,2.25,10,initial,36.05,324,342,361,379,397,9,9,9,9,9,,,,,,,1,0,1,0,0,53,53,19,,,,,,,,,,,,num_5,0.7455556001514196,num_5,0.45,1.0,0.20000000000000007,0.85,7.6411,32.47468,return,5.221623100340366,,,,,,,,,,,,,,,,,722,21,female,left_right_width,2024-11-02_15h35.40.288,exp1,2023.1.0,59.990521620956734,
,,,,,,,,,,,,,,,,,,,,,,,,,,,,,,,,,,,,,,,,,,,,,1,0,1,0,,,,,,,,,,,,,,,,,,,,,,,,,,,,,1445.4508497002535,1445.4508497002535,1445.4508497002535,,,,,,,,,,,,722,21,female,left_right_width,2024-11-02_15h35.40.288,exp1,2023.1.0,59.990521620956734,
,,,,,,,,,,,,,,,,4,8.65,9.55,10.45,11.35,0,0.9,0.35,0.55,3.25,10,initial,36.05,312,344,377,409,0,9,9,9,9,0,,,,,,,2,0,2,0,0,0,0,11,,,,,,,,,,,,num_4,1.3706015003845096,num_4,0.4,0.6,0.45,0.7,17.19248,26.74385,return,2.5912528000772,,,,,,,,,,,,,,,,,722,21,female,left_right_width,2024-11-02_15h35.40.288,exp1,2023.1.0,59.990521620956734,
,,,,,,,,,,,,,,,,3,9.1,10,10.9,0,0,0.9,0.35,0.55,2.35,10,initial,36.05,328,361,393,0,0,9,9,9,0,0,,,,,,,2,0,2,0,0,1,1,34,,,,,,,,,,,,num_3,0.7720861001871526,num_3,0.45,1.3,0.55,1.2,21.01303,45.8466,return,2.9598349002189934,,,,,,,,,,,,,,,,,722,21,female,left_right_width,2024-11-02_15h35.40.288,exp1,2023.1.0,59.990521620956734,
,,,,,,,,,,,,,,,,3,9.1,10,10.9,0,0,0.9,0.35,0.55,2.35,10,initial,36.05,328,361,393,0,0,9,9,9,0,0,,,,,,,2,0,2,0,0,2,2,35,,,,,,,,,,,,num_3,0.7657417999580503,num_3,0.4,0.7,0.55,1.0,21.01303,38.2055,return,5.582692899741232,,,,,,,,,,,,,,,,,722,21,female,left_right_width,2024-11-02_15h35.40.288,exp1,2023.1.0,59.990521620956734,
,,,,,,,,,,,,,,,,4,8.65,9.55,10.45,11.35,0,0.9,0.35,0.55,3.25,10,initial,36.05,312,344,377,409,0,9,9,9,9,0,,,,,,,2,0,2,0,0,3,3,17,,,,,,,,,,,,num_4,0.936168400105089,num_4,0.4,1.1,0.5,1.1,19.10275,42.02605,return,2.1432227003388107,,,,,,,,,,,,,,,,,722,21,female,left_right_width,2024-11-02_15h35.40.288,exp1,2023.1.0,59.990521620956734,
,,,,,,,,,,,,,,,,5,8.2,9.1,10,10.9,11.8,0.9,0.35,0.55,4.15,10,initial,36.05,296,328,361,393,425,9,9,9,9,9,,,,,,,2,0,2,0,0,4,4,23,,,,,,,,,,,,num_5,0.9159504999406636,num_5,0.3,0.9,0.44999999999999996,0.9,17.19248,34.38495,return,1.8219450996257365,,,,,,,,,,,,,,,,,722,21,female,left_right_width,2024-11-02_15h35.40.288,exp1,2023.1.0,59.990521620956734,
,,,,,,,,,,,,,,,,5,8.2,9.1,10,10.9,11.8,0.9,0.35,0.55,4.15,10,initial,36.05,296,328,361,393,425,9,9,9,9,9,,,,,,,2,0,2,0,0,5,5,24,,,,,,,,,,,,num_5,0.7581667001359165,num_5,0.45,1.2,0.55,1.2,21.01303,45.8466,return,1.987051900010556,,,,,,,,,,,,,,,,,722,21,female,left_right_width,2024-11-02_15h35.40.288,exp1,2023.1.0,59.990521620956734,
,,,,,,,,,,,,,,,,4,8.65,9.55,10.45,11.35,0,0.9,0.35,0.55,3.25,10,initial,36.05,312,344,377,409,0,9,9,9,9,0,,,,,,,2,0,2,0,0,6,6,44,,,,,,,,,,,,num_4,0.8486178000457585,num_4,0.55,0.8,0.55,1.1,21.01303,42.02605,return,2.089451799634844,,,,,,,,,,,,,,,,,722,21,female,left_right_width,2024-11-02_15h35.40.288,exp1,2023.1.0,59.990521620956734,
,,,,,,,,,,,,,,,,5,8.2,9.1,10,10.9,11.8,0.9,0.35,0.55,4.15,10,initial,36.05,296,328,361,393,425,9,9,9,9,9,,,,,,,2,0,2,0,0,7,7,19,,,,,,,,,,,,num_5,0.7163613000884652,num_5,0.25,1.0,0.44999999999999996,1.0,17.19248,38.2055,return,2.0895102000795305,,,,,,,,,,,,,,,,,722,21,female,left_right_width,2024-11-02_15h35.40.288,exp1,2023.1.0,59.990521620956734,
,,,,,,,,,,,,,,,,5,8.2,9.1,10,10.9,11.8,0.9,0.35,0.55,4.15,10,initial,36.05,296,328,361,393,425,9,9,9,9,9,,,,,,,2,0,2,0,0,8,8,22,,,,,,,,,,,,num_5,0.7545738997869194,num_5,0.3,1.1,0.49999999999999994,1.1,19.10275,42.02605,return,1.7114961999468505,,,,,,,,,,,,,,,,,722,21,female,left_right_width,2024-11-02_15h35.40.288,exp1,2023.1.0,59.990521620956734,
,,,,,,,,,,,,,,,,3,9.1,10,10.9,0,0,0.9,0.35,0.55,2.35,10,initial,36.05,328,361,393,0,0,9,9,9,0,0,,,,,,,2,0,2,0,0,9,9,27,,,,,,,,,,,,num_3,0.7604936002753675,num_3,0.2,1.2,0.49999999999999994,1.2,19.10275,45.8466,return,1.928723500110209,,,,,,,,,,,,,,,,,722,21,female,left_right_width,2024-11-02_15h35.40.288,exp1,2023.1.0,59.990521620956734,
,,,,,,,,,,,,,,,,3,9.1,10,10.9,0,0,0.9,0.35,0.55,2.35,10,initial,36.05,328,361,393,0,0,9,9,9,0,0,,,,,,,2,0,2,0,0,10,10,4,,,,,,,,,,,,num_3,0.6610725997015834,num_3,0.25,1,0.7000000000000001,1,26.74385,38.2055,return,2.5786613998934627,,,,,,,,,,,,,,,,,722,21,female,left_right_width,2024-11-02_15h35.40.288,exp1,2023.1.0,59.990521620956734,
,,,,,,,,,,,,,,,,5,8.2,9.1,10,10.9,11.8,0.9,0.35,0.55,4.15,10,initial,36.05,296,328,361,393,425,9,9,9,9,9,,,,,,,2,0,2,0,0,11,11,46,,,,,,,,,,,,num_4,0.8257026998326182,num_4,0.25,0.4,0.44999999999999996,0.9,17.19248,34.38495,return,3.895097500178963,,,,,,,,,,,,,,,,,722,21,female,left_right_width,2024-11-02_15h35.40.288,exp1,2023.1.0,59.990521620956734,
,,,,,,,,,,,,,,,,4,8.65,9.55,10.45,11.35,0,0.9,0.35,0.55,3.25,10,initial,36.05,312,344,377,409,0,9,9,9,9,0,,,,,,,2,0,2,0,0,12,12,36,,,,,,,,,,,,num_5,0.9472162001766264,num_5,0.3,1.0,0.44999999999999996,1.0,17.19248,38.2055,return,1.9473236999474466,,,,,,,,,,,,,,,,,722,21,female,left_right_width,2024-11-02_15h35.40.288,exp1,2023.1.0,59.990521620956734,
,,,,,,,,,,,,,,,,3,9.1,10,10.9,0,0,0.9,0.35,0.55,2.35,10,initial,36.05,328,361,393,0,0,9,9,9,0,0,,,,,,,2,0,2,0,0,13,13,30,,,,,,,,,,,,num_3,0.7025999999605119,num_3,0.4,1.3,0.6500000000000001,1.15,24.83358,43.93633,return,4.258283200208098,,,,,,,,,,,,,,,,,722,21,female,left_right_width,2024-11-02_15h35.40.288,exp1,2023.1.0,59.990521620956734,
,,,,,,,,,,,,,,,,4,8.65,9.55,10.45,11.35,0,0.9,0.35,0.55,3.25,10,initial,36.05,312,344,377,409,0,9,9,9,9,0,,,,,,,2,0,2,0,0,14,14,41,,,,,,,,,,,,num_4,1.1412736000493169,num_4,0.3,0.9,0.5499999999999999,1.0,21.01303,38.2055,return,2.646812600083649,,,,,,,,,,,,,,,,,722,21,female,left_right_width,2024-11-02_15h35.40.288,exp1,2023.1.0,59.990521620956734,
,,,,,,,,,,,,,,,,4,8.65,9.55,10.45,11.35,0,0.9,0.35,0.55,3.25,10,initial,36.05,312,344,377,409,0,9,9,9,9,0,,,,,,,2,0,2,0,0,15,15,40,,,,,,,,,,,,num_5,0.8740105000324547,num_5,0.4,1.2,0.55,1.15,21.01303,43.93633,return,5.198983499780297,,,,,,,,,,,,,,,,,722,21,female,left_right_width,2024-11-02_15h35.40.288,exp1,2023.1.0,59.990521620956734,
,,,,,,,,,,,,,,,,5,8.2,9.1,10,10.9,11.8,0.9,0.35,0.55,4.15,10,initial,36.05,296,328,361,393,425,9,9,9,9,9,,,,,,,2,0,2,0,0,16,16,47,,,,,,,,,,,,num_5,1.4517927998676896,num_5,0.55,1.3,0.6000000000000001,1.3,22.9233,49.66716,return,1.4560817000456154,,,,,,,,,,,,,,,,,722,21,female,left_right_width,2024-11-02_15h35.40.288,exp1,2023.1.0,59.990521620956734,
,,,,,,,,,,,,,,,,3,9.1,10,10.9,0,0,0.9,0.35,0.55,2.35,10,initial,36.05,328,361,393,0,0,9,9,9,0,0,,,,,,,2,0,2,0,0,17,17,0,,,,,,,,,,,,num_3,0.6747095002792776,num_3,0.25,0.9,0.49999999999999994,0.95,19.10275,36.29523,return,2.3082666001282632,,,,,,,,,,,,,,,,,722,21,female,left_right_width,2024-11-02_15h35.40.288,exp1,2023.1.0,59.990521620956734,
,,,,,,,,,,,,,,,,5,8.2,9.1,10,10.9,11.8,0.9,0.35,0.55,4.15,10,initial,36.05,296,328,361,393,425,9,9,9,9,9,,,,,,,2,0,2,0,0,18,18,50,,,,,,,,,,,,num_4,0.8784779999405146,num_4,0.35,0.4,0.7000000000000001,1.2,26.74385,45.8466,return,7.126748399809003,,,,,,,,,,,,,,,,,722,21,female,left_right_width,2024-11-02_15h35.40.288,exp1,2023.1.0,59.990521620956734,
,,,,,,,,,,,,,,,,5,8.2,9.1,10,10.9,11.8,0.9,0.35,0.55,4.15,10,initial,36.05,296,328,361,393,425,9,9,9,9,9,,,,,,,2,0,2,0,0,19,19,25,,,,,,,,,,,,num_5,0.8903076997958124,num_5,0.4,0.7,0.6000000000000001,0.9,22.9233,34.38495,return,2.6139644999057055,,,,,,,,,,,,,,,,,722,21,female,left_right_width,2024-11-02_15h35.40.288,exp1,2023.1.0,59.990521620956734,
,,,,,,,,,,,,,,,,3,9.1,10,10.9,0,0,0.9,0.35,0.55,2.35,10,initial,36.05,328,361,393,0,0,9,9,9,0,0,,,,,,,2,0,2,0,0,20,20,6,,,,,,,,,,,,num_3,0.7038241000846028,num_3,0.55,0.9,0.6000000000000001,0.95,22.9233,36.29523,return,1.6321344003081322,,,,,,,,,,,,,,,,,722,21,female,left_right_width,2024-11-02_15h35.40.288,exp1,2023.1.0,59.990521620956734,
,,,,,,,,,,,,,,,,5,8.2,9.1,10,10.9,11.8,0.9,0.35,0.55,4.15,10,initial,36.05,296,328,361,393,425,9,9,9,9,9,,,,,,,2,0,2,0,0,21,21,48,,,,,,,,,,,,num_4,0.8820789000019431,num_4,0.25,0.6,0.7000000000000001,1.1,26.74385,42.02605,return,6.046690999995917,,,,,,,,,,,,,,,,,722,21,female,left_right_width,2024-11-02_15h35.40.288,exp1,2023.1.0,59.990521620956734,
,,,,,,,,,,,,,,,,4,8.65,9.55,10.45,11.35,0,0.9,0.35,0.55,3.25,10,initial,36.05,312,344,377,409,0,9,9,9,9,0,,,,,,,2,0,2,0,0,22,22,42,,,,,,,,,,,,num_4,0.7627166998572648,num_4,0.25,0.6,0.44999999999999996,0.9,17.19248,34.38495,return,2.9957642001099885,,,,,,,,,,,,,,,,,722,21,female,left_right_width,2024-11-02_15h35.40.288,exp1,2023.1.0,59.990521620956734,
,,,,,,,,,,,,,,,,3,9.1,10,10.9,0,0,0.9,0.35,0.55,2.35,10,initial,36.05,328,361,393,0,0,9,9,9,0,0,,,,,,,2,0,2,0,0,23,23,2,,,,,,,,,,,,num_3,0.7723330999724567,num_3,0.45,0.8,0.6500000000000001,1.1,24.83358,42.02605,return,7.089620900340378,,,,,,,,,,,,,,,,,722,21,female,left_right_width,2024-11-02_15h35.40.288,exp1,2023.1.0,59.990521620956734,
,,,,,,,,,,,,,,,,5,8.2,9.1,10,10.9,11.8,0.9,0.35,0.55,4.15,10,initial,36.05,296,328,361,393,425,9,9,9,9,9,,,,,,,2,0,2,0,0,24,24,26,,,,,,,,,,,,num_4,1.147864599712193,num_4,0.2,1.1,0.7500000000000001,1.1,28.65413,42.02605,return,3.460227099712938,,,,,,,,,,,,,,,,,722,21,female,left_right_width,2024-11-02_15h35.40.288,exp1,2023.1.0,59.990521620956734,
,,,,,,,,,,,,,,,,5,8.2,9.1,10,10.9,11.8,0.9,0.35,0.55,4.15,10,initial,36.05,296,328,361,393,425,9,9,9,9,9,,,,,,,2,0,2,0,0,25,25,53,,,,,,,,,,,,num_5,0.8534895000047982,num_5,0.25,0.8,0.6,0.9,22.9233,34.38495,return,3.901620499789715,,,,,,,,,,,,,,,,,722,21,female,left_right_width,2024-11-02_15h35.40.288,exp1,2023.1.0,59.990521620956734,
,,,,,,,,,,,,,,,,5,8.2,9.1,10,10.9,11.8,0.9,0.35,0.55,4.15,10,initial,36.05,296,328,361,393,425,9,9,9,9,9,,,,,,,2,0,2,0,0,26,26,21,,,,,,,,,,,,num_5,0.8953625997528434,num_5,0.3,1.0,0.6,1.0,22.9233,38.2055,return,2.085852100048214,,,,,,,,,,,,,,,,,722,21,female,left_right_width,2024-11-02_15h35.40.288,exp1,2023.1.0,59.990521620956734,
,,,,,,,,,,,,,,,,3,9.1,10,10.9,0,0,0.9,0.35,0.55,2.35,10,initial,36.05,328,361,393,0,0,9,9,9,0,0,,,,,,,2,0,2,0,0,27,27,32,,,,,,,,,,,,num_3,0.6654484998434782,num_3,0.4,1.1,0.7000000000000002,1.1,26.74385,42.02605,return,1.850053499918431,,,,,,,,,,,,,,,,,722,21,female,left_right_width,2024-11-02_15h35.40.288,exp1,2023.1.0,59.990521620956734,
,,,,,,,,,,,,,,,,4,8.65,9.55,10.45,11.35,0,0.9,0.35,0.55,3.25,10,initial,36.05,312,344,377,409,0,9,9,9,9,0,,,,,,,2,0,2,0,0,28,28,39,,,,,,,,,,,,num_4,0.8011385002173483,num_4,0.25,1.3,0.65,1.3,24.83358,49.66716,return,2.198140500113368,,,,,,,,,,,,,,,,,722,21,female,left_right_width,2024-11-02_15h35.40.288,exp1,2023.1.0,59.990521620956734,
,,,,,,,,,,,,,,,,5,8.2,9.1,10,10.9,11.8,0.9,0.35,0.55,4.15,10,initial,36.05,296,328,361,393,425,9,9,9,9,9,,,,,,,2,0,2,0,0,29,29,49,,,,,,,,,,,,num_5,0.7308637001551688,num_5,0.25,0.5,0.49999999999999994,0.85,19.10275,32.47468,return,2.9018044997937977,,,,,,,,,,,,,,,,,722,21,female,left_right_width,2024-11-02_15h35.40.288,exp1,2023.1.0,59.990521620956734,
,,,,,,,,,,,,,,,,5,8.2,9.1,10,10.9,11.8,0.9,0.35,0.55,4.15,10,initial,36.05,296,328,361,393,425,9,9,9,9,9,,,,,,,2,0,2,0,0,30,30,18,,,,,,,,,,,,num_5,0.7289940998889506,num_5,0.4,1.2,0.7500000000000002,1.15,28.65413,43.93633,return,2.4236305998638272,,,,,,,,,,,,,,,,,722,21,female,left_right_width,2024-11-02_15h35.40.288,exp1,2023.1.0,59.990521620956734,
,,,,,,,,,,,,,,,,4,8.65,9.55,10.45,11.35,0,0.9,0.35,0.55,3.25,10,initial,36.05,312,344,377,409,0,9,9,9,9,0,,,,,,,2,0,2,0,0,31,31,14,,,,,,,,,,,,num_4,0.9070707000792027,num_4,0.4,1.0,0.55,1.0,21.01303,38.2055,return,1.4609928000718355,,,,,,,,,,,,,,,,,722,21,female,left_right_width,2024-11-02_15h35.40.288,exp1,2023.1.0,59.990521620956734,
,,,,,,,,,,,,,,,,4,8.65,9.55,10.45,11.35,0,0.9,0.35,0.55,3.25,10,initial,36.05,312,344,377,409,0,9,9,9,9,0,,,,,,,2,0,2,0,0,32,32,9,,,,,,,,,,,,num_4,0.7599377003498375,num_4,0.25,0.6,0.6,1.0,22.9233,38.2055,return,2.7925480999983847,,,,,,,,,,,,,,,,,722,21,female,left_right_width,2024-11-02_15h35.40.288,exp1,2023.1.0,59.990521620956734,
,,,,,,,,,,,,,,,,3,9.1,10,10.9,0,0,0.9,0.35,0.55,2.35,10,initial,36.05,328,361,393,0,0,9,9,9,0,0,,,,,,,2,0,2,0,0,33,33,33,,,,,,,,,,,,num_3,0.6500230999663472,num_3,0.35,0.7,0.44999999999999996,0.75,17.19248,28.65413,return,1.9187823999673128,,,,,,,,,,,,,,,,,722,21,female,left_right_width,2024-11-02_15h35.40.288,exp1,2023.1.0,59.990521620956734,
,,,,,,,,,,,,,,,,4,8.65,9.55,10.45,11.35,0,0.9,0.35,0.55,3.25,10,initial,36.05,312,344,377,409,0,9,9,9,9,0,,,,,,,2,0,2,0,0,34,34,38,,,,,,,,,,,,num_4,0.7306981002911925,num_4,0.3,1.3,0.44999999999999996,0.9,17.19248,34.38495,return,2.9219729998148978,,,,,,,,,,,,,,,,,722,21,female,left_right_width,2024-11-02_15h35.40.288,exp1,2023.1.0,59.990521620956734,
,,,,,,,,,,,,,,,,3,9.1,10,10.9,0,0,0.9,0.35,0.55,2.35,10,initial,36.05,328,361,393,0,0,9,9,9,0,0,,,,,,,2,0,2,0,0,35,35,7,,,,,,,,,,,,num_3,0.7285778997465968,num_3,0.35,0.9,0.49999999999999994,0.95,19.10275,36.29523,return,1.8306085001677275,,,,,,,,,,,,,,,,,722,21,female,left_right_width,2024-11-02_15h35.40.288,exp1,2023.1.0,59.990521620956734,
,,,,,,,,,,,,,,,,4,8.65,9.55,10.45,11.35,0,0.9,0.35,0.55,3.25,10,initial,36.05,312,344,377,409,0,9,9,9,9,0,,,,,,,2,0,2,0,0,36,36,13,,,,,,,,,,,,num_4,0.7221428002230823,num_4,0.35,1.2,0.49999999999999994,0.9,19.10275,34.38495,return,4.127341799903661,,,,,,,,,,,,,,,,,722,21,female,left_right_width,2024-11-02_15h35.40.288,exp1,2023.1.0,59.990521620956734,
,,,,,,,,,,,,,,,,3,9.1,10,10.9,0,0,0.9,0.35,0.55,2.35,10,initial,36.05,328,361,393,0,0,9,9,9,0,0,,,,,,,2,0,2,0,0,37,37,3,,,,,,,,,,,,num_3,0.6849984996952116,num_3,0.2,1.1,0.5499999999999999,1.05,21.01303,40.11578,return,3.1196639998815954,,,,,,,,,,,,,,,,,722,21,female,left_right_width,2024-11-02_15h35.40.288,exp1,2023.1.0,59.990521620956734,
,,,,,,,,,,,,,,,,4,8.65,9.55,10.45,11.35,0,0.9,0.35,0.55,3.25,10,initial,36.05,312,344,377,409,0,9,9,9,9,0,,,,,,,2,0,2,0,0,38,38,16,,,,,,,,,,,,num_4,0.7909340998157859,num_4,0.4,0.7,0.55,0.9,21.01303,34.38495,return,2.4140508002601564,,,,,,,,,,,,,,,,,722,21,female,left_right_width,2024-11-02_15h35.40.288,exp1,2023.1.0,59.990521620956734,
,,,,,,,,,,,,,,,,4,8.65,9.55,10.45,11.35,0,0.9,0.35,0.55,3.25,10,initial,36.05,312,344,377,409,0,9,9,9,9,0,,,,,,,2,0,2,0,0,39,39,10,,,,,,,,,,,,num_4,0.7755419998429716,num_4,0.2,0.9,0.44999999999999996,0.9,17.19248,34.38495,return,1.6664840998128057,,,,,,,,,,,,,,,,,722,21,female,left_right_width,2024-11-02_15h35.40.288,exp1,2023.1.0,59.990521620956734,
,,,,,,,,,,,,,,,,3,9.1,10,10.9,0,0,0.9,0.35,0.55,2.35,10,initial,36.05,328,361,393,0,0,9,9,9,0,0,,,,,,,2,0,2,0,0,40,40,28,,,,,,,,,,,,num_3,0.6992329000495374,num_3,0.5,1.1,0.5,0.95,19.10275,36.29523,return,2.0555891999974847,,,,,,,,,,,,,,,,,722,21,female,left_right_width,2024-11-02_15h35.40.288,exp1,2023.1.0,59.990521620956734,
,,,,,,,,,,,,,,,,3,9.1,10,10.9,0,0,0.9,0.35,0.55,2.35,10,initial,36.05,328,361,393,0,0,9,9,9,0,0,,,,,,,2,0,2,0,0,41,41,8,,,,,,,,,,,,num_3,0.60799890011549,num_3,0.5,0.8,0.6000000000000001,0.8,22.9233,30.5644,return,1.6810234999284148,,,,,,,,,,,,,,,,,722,21,female,left_right_width,2024-11-02_15h35.40.288,exp1,2023.1.0,59.990521620956734,
,,,,,,,,,,,,,,,,3,9.1,10,10.9,0,0,0.9,0.35,0.55,2.35,10,initial,36.05,328,361,393,0,0,9,9,9,0,0,,,,,,,2,0,2,0,0,42,42,31,,,,,,,,,,,,num_3,0.8070744001306593,num_3,0.55,1.3,0.55,0.95,21.01303,36.29523,return,2.8040771996602416,,,,,,,,,,,,,,,,,722,21,female,left_right_width,2024-11-02_15h35.40.288,exp1,2023.1.0,59.990521620956734,
,,,,,,,,,,,,,,,,4,8.65,9.55,10.45,11.35,0,0.9,0.35,0.55,3.25,10,initial,36.05,312,344,377,409,0,9,9,9,9,0,,,,,,,2,0,2,0,0,43,43,12,,,,,,,,,,,,num_4,0.8619399000890553,num_4,0.2,1.2,0.39999999999999997,0.9,15.2822,34.38495,return,3.1144212000072002,,,,,,,,,,,,,,,,,722,21,female,left_right_width,2024-11-02_15h35.40.288,exp1,2023.1.0,59.990521620956734,
,,,,,,,,,,,,,,,,3,9.1,10,10.9,0,0,0.9,0.35,0.55,2.35,10,initial,36.05,328,361,393,0,0,9,9,9,0,0,,,,,,,2,0,2,0,0,44,44,1,,,,,,,,,,,,num_3,0.7019555997103453,num_3,0.4,0.9,0.55,0.8,21.01303,30.5644,return,1.9802521001547575,,,,,,,,,,,,,,,,,722,21,female,left_right_width,2024-11-02_15h35.40.288,exp1,2023.1.0,59.990521620956734,
,,,,,,,,,,,,,,,,3,9.1,10,10.9,0,0,0.9,0.35,0.55,2.35,10,initial,36.05,328,361,393,0,0,9,9,9,0,0,,,,,,,2,0,2,0,0,45,45,29,,,,,,,,,,,,num_3,0.6649575997143984,num_3,0.25,0.5,0.6,0.85,22.9233,32.47468,return,8.173459599725902,,,,,,,,,,,,,,,,,722,21,female,left_right_width,2024-11-02_15h35.40.288,exp1,2023.1.0,59.990521620956734,
,,,,,,,,,,,,,,,,5,8.2,9.1,10,10.9,11.8,0.9,0.35,0.55,4.15,10,initial,36.05,296,328,361,393,425,9,9,9,9,9,,,,,,,2,0,2,0,0,46,46,45,,,,,,,,,,,,num_5,0.878055099863559,num_5,0.25,0.3,0.39999999999999997,0.7,15.2822,26.74385,return,6.070577200036496,,,,,,,,,,,,,,,,,722,21,female,left_right_width,2024-11-02_15h35.40.288,exp1,2023.1.0,59.990521620956734,
,,,,,,,,,,,,,,,,4,8.65,9.55,10.45,11.35,0,0.9,0.35,0.55,3.25,10,initial,36.05,312,344,377,409,0,9,9,9,9,0,,,,,,,2,0,2,0,0,47,47,15,,,,,,,,,,,,num_4,0.7560515999794006,num_4,0.35,0.8,0.49999999999999994,0.8,19.10275,30.5644,return,1.874456999823451,,,,,,,,,,,,,,,,,722,21,female,left_right_width,2024-11-02_15h35.40.288,exp1,2023.1.0,59.990521620956734,
,,,,,,,,,,,,,,,,5,8.2,9.1,10,10.9,11.8,0.9,0.35,0.55,4.15,10,initial,36.05,296,328,361,393,425,9,9,9,9,9,,,,,,,2,0,2,0,0,48,48,52,,,,,,,,,,,,num_5,0.651780600193888,num_5,0.35,1.0,0.5499999999999999,0.95,21.01303,36.29523,return,4.415608299896121,,,,,,,,,,,,,,,,,722,21,female,left_right_width,2024-11-02_15h35.40.288,exp1,2023.1.0,59.990521620956734,
,,,,,,,,,,,,,,,,5,8.2,9.1,10,10.9,11.8,0.9,0.35,0.55,4.15,10,initial,36.05,296,328,361,393,425,9,9,9,9,9,,,,,,,2,0,2,0,0,49,49,20,,,,,,,,,,,,num_5,0.8123296000994742,num_5,0.45,1.1,0.5,1.1,19.10275,42.02605,return,1.752317300066352,,,,,,,,,,,,,,,,,722,21,female,left_right_width,2024-11-02_15h35.40.288,exp1,2023.1.0,59.990521620956734,
,,,,,,,,,,,,,,,,4,8.65,9.55,10.45,11.35,0,0.9,0.35,0.55,3.25,10,initial,36.05,312,344,377,409,0,9,9,9,9,0,,,,,,,2,0,2,0,0,50,50,43,,,,,,,,,,,,num_4,0.7087305001914501,num_4,0.3,0.9,0.5499999999999999,0.9,21.01303,34.38495,return,1.9955760999582708,,,,,,,,,,,,,,,,,722,21,female,left_right_width,2024-11-02_15h35.40.288,exp1,2023.1.0,59.990521620956734,
,,,,,,,,,,,,,,,,4,8.65,9.55,10.45,11.35,0,0.9,0.35,0.55,3.25,10,initial,36.05,312,344,377,409,0,9,9,9,9,0,,,,,,,2,0,2,0,0,51,51,37,,,,,,,,,,,,num_4,0.8403981998562813,num_4,0.45,0.5,0.55,1.1,21.01303,42.02605,return,5.334511699620634,,,,,,,,,,,,,,,,,722,21,female,left_right_width,2024-11-02_15h35.40.288,exp1,2023.1.0,59.990521620956734,
,,,,,,,,,,,,,,,,3,9.1,10,10.9,0,0,0.9,0.35,0.55,2.35,10,initial,36.05,328,361,393,0,0,9,9,9,0,0,,,,,,,2,0,2,0,0,52,52,5,,,,,,,,,,,,num_3,0.8260164000093937,num_3,0.25,0.6,0.49999999999999994,0.75,19.10275,28.65413,return,3.72882640035823,,,,,,,,,,,,,,,,,722,21,female,left_right_width,2024-11-02_15h35.40.288,exp1,2023.1.0,59.990521620956734,
,,,,,,,,,,,,,,,,5,8.2,9.1,10,10.9,11.8,0.9,0.35,0.55,4.15,10,initial,36.05,296,328,361,393,425,9,9,9,9,9,,,,,,,2,0,2,0,0,53,53,51,,,,,,,,,,,,num_5,0.8535922998562455,num_5,0.5,1.1,0.5,0.95,19.10275,36.29523,return,3.426843899767846,,,,,,,,,,,,,,,,,722,21,female,left_right_width,2024-11-02_15h35.40.288,exp1,2023.1.0,59.990521620956734,
,,,,,,,,,,,,,,,,,,,,,,,,,,,,,,,,,,,,,,,,,,,,,2,0,2,0,,,,,,,,,,,,,,,,,,,,,,,,,,,,,1809.8501169998199,1809.8501169998199,1809.8501169998199,,,,,,,,,,,,722,21,female,left_right_width,2024-11-02_15h35.40.288,exp1,2023.1.0,59.990521620956734,
,,,,,,,,,,,,,,,,4,9.25,9.75,10.25,10.75,0,0.5,0.1,0.4,1.9000000000000001,10,initial,36.05,333,351,370,388,0,9,9,9,9,0,,,,,,,3,0,3,0,0,0,0,15,,,,,,,,,,,,num_4,0.860138799995184,num_4,0.45,0.6,0.5,0.6,19.10275,22.9233,return,1.9246518001891673,,,,,,,,,,,,,,,,,722,21,female,left_right_width,2024-11-02_15h35.40.288,exp1,2023.1.0,59.990521620956734,
,,,,,,,,,,,,,,,,5,9,9.5,10,10.5,11,0.5,0.1,0.4,2.4,10,initial,36.05,324,342,361,379,397,9,9,9,9,9,,,,,,,3,0,3,0,0,1,1,24,,,,,,,,,,,,num_5,0.788644399959594,num_5,0.35,0.5,0.39999999999999997,0.5,15.2822,19.10275,return,1.7432400998659432,,,,,,,,,,,,,,,,,722,21,female,left_right_width,2024-11-02_15h35.40.288,exp1,2023.1.0,59.990521620956734,
,,,,,,,,,,,,,,,,5,9,9.5,10,10.5,11,0.5,0.1,0.4,2.4,10,initial,36.05,324,342,361,379,397,9,9,9,9,9,,,,,,,3,0,3,0,0,2,2,26,,,,,,,,,,,,num_5,0.7828532997518778,num_5,0.3,1.1,0.35,0.45,13.37193,17.19248,return,6.166425599716604,,,,,,,,,,,,,,,,,722,21,female,left_right_width,2024-11-02_15h35.40.288,exp1,2023.1.0,59.990521620956734,
,,,,,,,,,,,,,,,,5,9,9.5,10,10.5,11,0.5,0.1,0.4,2.4,10,initial,36.05,324,342,361,379,397,9,9,9,9,9,,,,,,,3,0,3,0,0,3,3,48,,,,,,,,,,,,num_5,1.1314998003654182,num_5,0.25,0.5,0.39999999999999997,0.55,15.2822,21.01303,return,3.4809167999774218,,,,,,,,,,,,,,,,,722,21,female,left_right_width,2024-11-02_15h35.40.288,exp1,2023.1.0,59.990521620956734,
,,,,,,,,,,,,,,,,5,9,9.5,10,10.5,11,0.5,0.1,0.4,2.4,10,initial,36.05,324,342,361,379,397,9,9,9,9,9,,,,,,,3,0,3,0,0,4,4,49,,,,,,,,,,,,num_5,0.8348040003329515,num_5,0.2,1.3,0.35,0.5,13.37193,19.10275,return,5.167994699906558,,,,,,,,,,,,,,,,,722,21,female,left_right_width,2024-11-02_15h35.40.288,exp1,2023.1.0,59.990521620956734,
,,,,,,,,,,,,,,,,3,9.5,10,10.5,0,0,0.5,0.1,0.4,1.4000000000000001,10,initial,36.05,342,361,379,0,0,9,9,9,0,0,,,,,,,3,0,3,0,0,5,5,2,,,,,,,,,,,,num_3,0.8029744997620583,num_3,0.3,0.4,0.44999999999999996,0.55,17.19248,21.01303,return,4.6101581999100745,,,,,,,,,,,,,,,,,722,21,female,left_right_width,2024-11-02_15h35.40.288,exp1,2023.1.0,59.990521620956734,
,,,,,,,,,,,,,,,,5,9,9.5,10,10.5,11,0.5,0.1,0.4,2.4,10,initial,36.05,324,342,361,379,397,9,9,9,9,9,,,,,,,3,0,3,0,0,6,6,20,,,,,,,,,,,,num_5,1.026530500035733,num_5,0.55,1.0,0.45,0.6,17.19248,22.9233,return,3.506140800192952,,,,,,,,,,,,,,,,,722,21,female,left_right_width,2024-11-02_15h35.40.288,exp1,2023.1.0,59.990521620956734,
,,,,,,,,,,,,,,,,3,9.5,10,10.5,0,0,0.5,0.1,0.4,1.4000000000000001,10,initial,36.05,342,361,379,0,0,9,9,9,0,0,,,,,,,3,0,3,0,0,7,7,34,,,,,,,,,,,,num_3,0.7894870000891387,num_3,0.55,0.8,0.5,0.6,19.10275,22.9233,return,2.8812349000945687,,,,,,,,,,,,,,,,,722,21,female,left_right_width,2024-11-02_15h35.40.288,exp1,2023.1.0,59.990521620956734,
,,,,,,,,,,,,,,,,3,9.5,10,10.5,0,0,0.5,0.1,0.4,1.4000000000000001,10,initial,36.05,342,361,379,0,0,9,9,9,0,0,,,,,,,3,0,3,0,0,8,8,1,,,,,,,,,,,,num_3,0.7972887000069022,num_3,0.25,0.4,0.39999999999999997,0.5,15.2822,19.10275,return,4.87489499989897,,,,,,,,,,,,,,,,,722,21,female,left_right_width,2024-11-02_15h35.40.288,exp1,2023.1.0,59.990521620956734,
,,,,,,,,,,,,,,,,5,9,9.5,10,10.5,11,0.5,0.1,0.4,2.4,10,initial,36.05,324,342,361,379,397,9,9,9,9,9,,,,,,,3,0,3,0,0,9,9,50,,,,,,,,,,,,num_5,0.9467755001969635,num_5,0.2,1.3,0.39999999999999997,0.55,15.2822,21.01303,return,6.773267699871212,,,,,,,,,,,,,,,,,722,21,female,left_right_width,2024-11-02_15h35.40.288,exp1,2023.1.0,59.990521620956734,
,,,,,,,,,,,,,,,,5,9,9.5,10,10.5,11,0.5,0.1,0.4,2.4,10,initial,36.05,324,342,361,379,397,9,9,9,9,9,,,,,,,3,0,3,0,0,10,10,18,,,,,,,,,,,,num_5,0.826849200297147,num_5,0.45,1.3,0.45,0.65,17.19248,24.83358,return,5.87776040006429,,,,,,,,,,,,,,,,,722,21,female,left_right_width,2024-11-02_15h35.40.288,exp1,2023.1.0,59.990521620956734,
,,,,,,,,,,,,,,,,4,9.25,9.75,10.25,10.75,0,0.5,0.1,0.4,1.9000000000000001,10,initial,36.05,333,351,370,388,0,9,9,9,9,0,,,,,,,3,0,3,0,0,11,11,36,,,,,,,,,,,,num_3,0.7188565996475518,num_3,0.45,0.9,0.4,0.6,15.2822,22.9233,return,2.7765236999839544,,,,,,,,,,,,,,,,,722,21,female,left_right_width,2024-11-02_15h35.40.288,exp1,2023.1.0,59.990521620956734,
,,,,,,,,,,,,,,,,4,9.25,9.75,10.25,10.75,0,0.5,0.1,0.4,1.9000000000000001,10,initial,36.05,333,351,370,388,0,9,9,9,9,0,,,,,,,3,0,3,0,0,12,12,44,,,,,,,,,,,,num_4,0.8913836996071041,num_4,0.35,1.0,0.35,0.5,13.37193,19.10275,return,2.754607900045812,,,,,,,,,,,,,,,,,722,21,female,left_right_width,2024-11-02_15h35.40.288,exp1,2023.1.0,59.990521620956734,
,,,,,,,,,,,,,,,,5,9,9.5,10,10.5,11,0.5,0.1,0.4,2.4,10,initial,36.05,324,342,361,379,397,9,9,9,9,9,,,,,,,3,0,3,0,0,13,13,51,,,,,,,,,,,,num_5,0.7256879000924528,num_5,0.4,0.6,0.4,0.55,15.2822,21.01303,return,1.4939621998928487,,,,,,,,,,,,,,,,,722,21,female,left_right_width,2024-11-02_15h35.40.288,exp1,2023.1.0,59.990521620956734,
,,,,,,,,,,,,,,,,5,9,9.5,10,10.5,11,0.5,0.1,0.4,2.4,10,initial,36.05,324,342,361,379,397,9,9,9,9,9,,,,,,,3,0,3,0,0,14,14,22,,,,,,,,,,,,num_5,0.7386950002983212,num_5,0.3,0.9,0.35,0.45,13.37193,17.19248,return,4.162323399912566,,,,,,,,,,,,,,,,,722,21,female,left_right_width,2024-11-02_15h35.40.288,exp1,2023.1.0,59.990521620956734,
,,,,,,,,,,,,,,,,3,9.5,10,10.5,0,0,0.5,0.1,0.4,1.4000000000000001,10,initial,36.05,342,361,379,0,0,9,9,9,0,0,,,,,,,3,0,3,0,0,15,15,31,,,,,,,,,,,,num_3,0.8998499000445008,num_3,0.45,0.9,0.4,0.55,15.2822,21.01303,return,2.974521799944341,,,,,,,,,,,,,,,,,722,21,female,left_right_width,2024-11-02_15h35.40.288,exp1,2023.1.0,59.990521620956734,
,,,,,,,,,,,,,,,,5,9,9.5,10,10.5,11,0.5,0.1,0.4,2.4,10,initial,36.05,324,342,361,379,397,9,9,9,9,9,,,,,,,3,0,3,0,0,16,16,21,,,,,,,,,,,,num_5,0.801286700181663,num_5,0.45,0.9,0.4,0.55,15.2822,21.01303,return,3.5338655998930335,,,,,,,,,,,,,,,,,722,21,female,left_right_width,2024-11-02_15h35.40.288,exp1,2023.1.0,59.990521620956734,
,,,,,,,,,,,,,,,,5,9,9.5,10,10.5,11,0.5,0.1,0.4,2.4,10,initial,36.05,324,342,361,379,397,9,9,9,9,9,,,,,,,3,0,3,0,0,17,17,53,,,,,,,,,,,,num_5,0.8517360999248922,num_5,0.55,0.7,0.5,0.65,19.10275,24.83358,return,2.624156499747187,,,,,,,,,,,,,,,,,722,21,female,left_right_width,2024-11-02_15h35.40.288,exp1,2023.1.0,59.990521620956734,
,,,,,,,,,,,,,,,,3,9.5,10,10.5,0,0,0.5,0.1,0.4,1.4000000000000001,10,initial,36.05,342,361,379,0,0,9,9,9,0,0,,,,,,,3,0,3,0,0,18,18,6,,,,,,,,,,,,num_3,1.0084357000887394,num_3,0.25,0.8,0.44999999999999996,0.6,17.19248,22.9233,return,4.930479099974036,,,,,,,,,,,,,,,,,722,21,female,left_right_width,2024-11-02_15h35.40.288,exp1,2023.1.0,59.990521620956734,
,,,,,,,,,,,,,,,,5,9,9.5,10,10.5,11,0.5,0.1,0.4,2.4,10,initial,36.05,324,342,361,379,397,9,9,9,9,9,,,,,,,3,0,3,0,0,19,19,23,,,,,,,,,,,,num_5,0.814970999956131,num_5,0.2,0.7,0.39999999999999997,0.55,15.2822,21.01303,return,3.050035699736327,,,,,,,,,,,,,,,,,722,21,female,left_right_width,2024-11-02_15h35.40.288,exp1,2023.1.0,59.990521620956734,
,,,,,,,,,,,,,,,,3,9.5,10,10.5,0,0,0.5,0.1,0.4,1.4000000000000001,10,initial,36.05,342,361,379,0,0,9,9,9,0,0,,,,,,,3,0,3,0,0,20,20,7,,,,,,,,,,,,num_3,0.6794380997307599,num_3,0.4,1.2,0.45,0.6,17.19248,22.9233,return,6.2180683999322355,,,,,,,,,,,,,,,,,722,21,female,left_right_width,2024-11-02_15h35.40.288,exp1,2023.1.0,59.990521620956734,
,,,,,,,,,,,,,,,,3,9.5,10,10.5,0,0,0.5,0.1,0.4,1.4000000000000001,10,initial,36.05,342,361,379,0,0,9,9,9,0,0,,,,,,,3,0,3,0,0,21,21,4,,,,,,,,,,,,num_3,0.7458659000694752,num_3,0.5,1.2,0.45,0.6,17.19248,22.9233,return,3.7988277999684215,,,,,,,,,,,,,,,,,722,21,female,left_right_width,2024-11-02_15h35.40.288,exp1,2023.1.0,59.990521620956734,
,,,,,,,,,,,,,,,,3,9.5,10,10.5,0,0,0.5,0.1,0.4,1.4000000000000001,10,initial,36.05,342,361,379,0,0,9,9,9,0,0,,,,,,,3,0,3,0,0,22,22,33,,,,,,,,,,,,num_3,0.6766216000542045,num_3,0.35,0.7,0.35,0.5,13.37193,19.10275,return,2.8846065001562238,,,,,,,,,,,,,,,,,722,21,female,left_right_width,2024-11-02_15h35.40.288,exp1,2023.1.0,59.990521620956734,
,,,,,,,,,,,,,,,,3,9.5,10,10.5,0,0,0.5,0.1,0.4,1.4000000000000001,10,initial,36.05,342,361,379,0,0,9,9,9,0,0,,,,,,,3,0,3,0,0,23,23,8,,,,,,,,,,,,num_3,0.9077486000023782,num_3,0.55,1.3,0.5,0.6,19.10275,22.9233,return,4.13449089974165,,,,,,,,,,,,,,,,,722,21,female,left_right_width,2024-11-02_15h35.40.288,exp1,2023.1.0,59.990521620956734,
,,,,,,,,,,,,,,,,4,9.25,9.75,10.25,10.75,0,0.5,0.1,0.4,1.9000000000000001,10,initial,36.05,333,351,370,388,0,9,9,9,9,0,,,,,,,3,0,3,0,0,24,24,14,,,,,,,,,,,,num_3,0.8505857000127435,num_3,0.3,0.8,0.39999999999999997,0.55,15.2822,21.01303,return,3.0693218000233173,,,,,,,,,,,,,,,,,722,21,female,left_right_width,2024-11-02_15h35.40.288,exp1,2023.1.0,59.990521620956734,
,,,,,,,,,,,,,,,,3,9.5,10,10.5,0,0,0.5,0.1,0.4,1.4000000000000001,10,initial,36.05,342,361,379,0,0,9,9,9,0,0,,,,,,,3,0,3,0,0,25,25,0,,,,,,,,,,,,num_3,0.7245127996429801,num_3,0.55,1.1,0.45,0.6,17.19248,22.9233,return,3.8315463000908494,,,,,,,,,,,,,,,,,722,21,female,left_right_width,2024-11-02_15h35.40.288,exp1,2023.1.0,59.990521620956734,
,,,,,,,,,,,,,,,,5,9,9.5,10,10.5,11,0.5,0.1,0.4,2.4,10,initial,36.05,324,342,361,379,397,9,9,9,9,9,,,,,,,3,0,3,0,0,26,26,46,,,,,,,,,,,,num_5,0.8495032000355422,num_5,0.3,0.8,0.3,0.45,11.46165,17.19248,return,4.285178499761969,,,,,,,,,,,,,,,,,722,21,female,left_right_width,2024-11-02_15h35.40.288,exp1,2023.1.0,59.990521620956734,
,,,,,,,,,,,,,,,,3,9.5,10,10.5,0,0,0.5,0.1,0.4,1.4000000000000001,10,initial,36.05,342,361,379,0,0,9,9,9,0,0,,,,,,,3,0,3,0,0,27,27,5,,,,,,,,,,,,num_3,0.688417199999094,num_3,0.2,1.3,0.3,0.55,11.46165,21.01303,return,7.983916699886322,,,,,,,,,,,,,,,,,722,21,female,left_right_width,2024-11-02_15h35.40.288,exp1,2023.1.0,59.990521620956734,
,,,,,,,,,,,,,,,,3,9.5,10,10.5,0,0,0.5,0.1,0.4,1.4000000000000001,10,initial,36.05,342,361,379,0,0,9,9,9,0,0,,,,,,,3,0,3,0,0,28,28,32,,,,,,,,,,,,num_3,0.8161296998150647,num_3,0.25,0.8,0.35,0.55,13.37193,21.01303,return,3.804209800437093,,,,,,,,,,,,,,,,,722,21,female,left_right_width,2024-11-02_15h35.40.288,exp1,2023.1.0,59.990521620956734,
,,,,,,,,,,,,,,,,3,9.5,10,10.5,0,0,0.5,0.1,0.4,1.4000000000000001,10,initial,36.05,342,361,379,0,0,9,9,9,0,0,,,,,,,3,0,3,0,0,29,29,28,,,,,,,,,,,,num_3,0.7434249999932945,num_3,0.4,0.5,0.4,0.5,15.2822,19.10275,return,1.3831675997935236,,,,,,,,,,,,,,,,,722,21,female,left_right_width,2024-11-02_15h35.40.288,exp1,2023.1.0,59.990521620956734,
,,,,,,,,,,,,,,,,3,9.5,10,10.5,0,0,0.5,0.1,0.4,1.4000000000000001,10,initial,36.05,342,361,379,0,0,9,9,9,0,0,,,,,,,3,0,3,0,0,30,30,30,,,,,,,,,,,,num_3,0.6562399002723396,num_3,0.2,0.9,0.3,0.45,11.46165,17.19248,return,5.0642072996124625,,,,,,,,,,,,,,,,,722,21,female,left_right_width,2024-11-02_15h35.40.288,exp1,2023.1.0,59.990521620956734,
,,,,,,,,,,,,,,,,4,9.25,9.75,10.25,10.75,0,0.5,0.1,0.4,1.9000000000000001,10,initial,36.05,333,351,370,388,0,9,9,9,9,0,,,,,,,3,0,3,0,0,31,31,9,,,,,,,,,,,,num_4,0.9184304000809789,num_4,0.5,1.1,0.45,0.6,17.19248,22.9233,return,2.7678134003654122,,,,,,,,,,,,,,,,,722,21,female,left_right_width,2024-11-02_15h35.40.288,exp1,2023.1.0,59.990521620956734,
,,,,,,,,,,,,,,,,5,9,9.5,10,10.5,11,0.5,0.1,0.4,2.4,10,initial,36.05,324,342,361,379,397,9,9,9,9,9,,,,,,,3,0,3,0,0,32,32,19,,,,,,,,,,,,num_5,0.6933188997209072,num_5,0.25,0.7,0.35,0.5,13.37193,19.10275,return,2.4322325997054577,,,,,,,,,,,,,,,,,722,21,female,left_right_width,2024-11-02_15h35.40.288,exp1,2023.1.0,59.990521620956734,
,,,,,,,,,,,,,,,,4,9.25,9.75,10.25,10.75,0,0.5,0.1,0.4,1.9000000000000001,10,initial,36.05,333,351,370,388,0,9,9,9,9,0,,,,,,,3,0,3,0,0,33,33,39,,,,,,,,,,,,num_4,0.6978460997343063,num_4,0.4,1.3,0.4,0.6,15.2822,22.9233,return,2.3140938002616167,,,,,,,,,,,,,,,,,722,21,female,left_right_width,2024-11-02_15h35.40.288,exp1,2023.1.0,59.990521620956734,
,,,,,,,,,,,,,,,,5,9,9.5,10,10.5,11,0.5,0.1,0.4,2.4,10,initial,36.05,324,342,361,379,397,9,9,9,9,9,,,,,,,3,0,3,0,0,34,34,47,,,,,,,,,,,,num_5,0.6583249997347593,num_5,0.45,0.5,0.45,0.6,17.19248,22.9233,return,1.7443327000364661,,,,,,,,,,,,,,,,,722,21,female,left_right_width,2024-11-02_15h35.40.288,exp1,2023.1.0,59.990521620956734,
,,,,,,,,,,,,,,,,4,9.25,9.75,10.25,10.75,0,0.5,0.1,0.4,1.9000000000000001,10,initial,36.05,333,351,370,388,0,9,9,9,9,0,,,,,,,3,0,3,0,0,35,35,11,,,,,,,,,,,,num_4,0.7927164998836815,num_4,0.25,0.4,0.35,0.5,13.37193,19.10275,return,3.090559500269592,,,,,,,,,,,,,,,,,722,21,female,left_right_width,2024-11-02_15h35.40.288,exp1,2023.1.0,59.990521620956734,
,,,,,,,,,,,,,,,,5,9,9.5,10,10.5,11,0.5,0.1,0.4,2.4,10,initial,36.05,324,342,361,379,397,9,9,9,9,9,,,,,,,3,0,3,0,0,36,36,25,,,,,,,,,,,,num_5,0.6943157999776304,num_5,0.25,0.4,0.3,0.45,11.46165,17.19248,return,2.009600200224668,,,,,,,,,,,,,,,,,722,21,female,left_right_width,2024-11-02_15h35.40.288,exp1,2023.1.0,59.990521620956734,
,,,,,,,,,,,,,,,,4,9.25,9.75,10.25,10.75,0,0.5,0.1,0.4,1.9000000000000001,10,initial,36.05,333,351,370,388,0,9,9,9,9,0,,,,,,,3,0,3,0,0,37,37,38,,,,,,,,,,,,num_5,0.6890707998536527,num_5,0.35,0.8,0.35,0.6,13.37193,22.9233,return,4.755527500063181,,,,,,,,,,,,,,,,,722,21,female,left_right_width,2024-11-02_15h35.40.288,exp1,2023.1.0,59.990521620956734,
,,,,,,,,,,,,,,,,4,9.25,9.75,10.25,10.75,0,0.5,0.1,0.4,1.9000000000000001,10,initial,36.05,333,351,370,388,0,9,9,9,9,0,,,,,,,3,0,3,0,0,38,38,40,,,,,,,,,,,,num_4,0.7903451998718083,num_4,0.45,1.1,0.4,0.6,15.2822,22.9233,return,2.4957051002420485,,,,,,,,,,,,,,,,,722,21,female,left_right_width,2024-11-02_15h35.40.288,exp1,2023.1.0,59.990521620956734,
,,,,,,,,,,,,,,,,4,9.25,9.75,10.25,10.75,0,0.5,0.1,0.4,1.9000000000000001,10,initial,36.05,333,351,370,388,0,9,9,9,9,0,,,,,,,3,0,3,0,0,39,39,37,,,,,,,,,,,,num_4,0.7028793999925256,num_4,0.45,0.8,0.45,0.7,17.19248,26.74385,return,1.2628431003540754,,,,,,,,,,,,,,,,,722,21,female,left_right_width,2024-11-02_15h35.40.288,exp1,2023.1.0,59.990521620956734,
,,,,,,,,,,,,,,,,4,9.25,9.75,10.25,10.75,0,0.5,0.1,0.4,1.9000000000000001,10,initial,36.05,333,351,370,388,0,9,9,9,9,0,,,,,,,3,0,3,0,0,40,40,13,,,,,,,,,,,,num_4,0.6888447003439069,num_4,0.45,1.0,0.45,0.6,17.19248,22.9233,return,2.1162371998652816,,,,,,,,,,,,,,,,,722,21,female,left_right_width,2024-11-02_15h35.40.288,exp1,2023.1.0,59.990521620956734,
,,,,,,,,,,,,,,,,5,9,9.5,10,10.5,11,0.5,0.1,0.4,2.4,10,initial,36.05,324,342,361,379,397,9,9,9,9,9,,,,,,,3,0,3,0,0,41,41,45,,,,,,,,,,,,num_5,0.65194660006091,num_5,0.25,1.1,0.3,0.5,11.46165,19.10275,return,4.747341999784112,,,,,,,,,,,,,,,,,722,21,female,left_right_width,2024-11-02_15h35.40.288,exp1,2023.1.0,59.990521620956734,
,,,,,,,,,,,,,,,,4,9.25,9.75,10.25,10.75,0,0.5,0.1,0.4,1.9000000000000001,10,initial,36.05,333,351,370,388,0,9,9,9,9,0,,,,,,,3,0,3,0,0,42,42,41,,,,,,,,,,,,num_4,0.7307414999231696,num_4,0.5,1.2,0.45,0.7,17.19248,26.74385,return,2.2683103000745177,,,,,,,,,,,,,,,,,722,21,female,left_right_width,2024-11-02_15h35.40.288,exp1,2023.1.0,59.990521620956734,
,,,,,,,,,,,,,,,,3,9.5,10,10.5,0,0,0.5,0.1,0.4,1.4000000000000001,10,initial,36.05,342,361,379,0,0,9,9,9,0,0,,,,,,,3,0,3,0,0,43,43,29,,,,,,,,,,,,num_3,0.7934067002497613,num_3,0.45,1.2,0.4,0.75,15.2822,28.65413,return,2.8874449003487825,,,,,,,,,,,,,,,,,722,21,female,left_right_width,2024-11-02_15h35.40.288,exp1,2023.1.0,59.990521620956734,
,,,,,,,,,,,,,,,,4,9.25,9.75,10.25,10.75,0,0.5,0.1,0.4,1.9000000000000001,10,initial,36.05,333,351,370,388,0,9,9,9,9,0,,,,,,,3,0,3,0,0,44,44,12,,,,,,,,,,,,num_4,0.641557099763304,num_4,0.4,0.8,0.4,0.6,15.2822,22.9233,return,2.551030599977821,,,,,,,,,,,,,,,,,722,21,female,left_right_width,2024-11-02_15h35.40.288,exp1,2023.1.0,59.990521620956734,
,,,,,,,,,,,,,,,,3,9.5,10,10.5,0,0,0.5,0.1,0.4,1.4000000000000001,10,initial,36.05,342,361,379,0,0,9,9,9,0,0,,,,,,,3,0,3,0,0,45,45,35,,,,,,,,,,,,num_3,0.7945389999076724,num_3,0.2,1.3,0.25,0.45,9.55138,17.19248,return,4.372415699996054,,,,,,,,,,,,,,,,,722,21,female,left_right_width,2024-11-02_15h35.40.288,exp1,2023.1.0,59.990521620956734,
,,,,,,,,,,,,,,,,4,9.25,9.75,10.25,10.75,0,0.5,0.1,0.4,1.9000000000000001,10,initial,36.05,333,351,370,388,0,9,9,9,9,0,,,,,,,3,0,3,0,0,46,46,17,,,,,,,,,,,,num_4,0.7374543999321759,num_4,0.2,1.2,0.3,0.5,11.46165,19.10275,return,2.928463399875909,,,,,,,,,,,,,,,,,722,21,female,left_right_width,2024-11-02_15h35.40.288,exp1,2023.1.0,59.990521620956734,
,,,,,,,,,,,,,,,,4,9.25,9.75,10.25,10.75,0,0.5,0.1,0.4,1.9000000000000001,10,initial,36.05,333,351,370,388,0,9,9,9,9,0,,,,,,,3,0,3,0,0,47,47,16,,,,,,,,,,,,num_4,0.6627189996652305,num_4,0.3,1.1,0.3,0.5,11.46165,19.10275,return,2.4552511000074446,,,,,,,,,,,,,,,,,722,21,female,left_right_width,2024-11-02_15h35.40.288,exp1,2023.1.0,59.990521620956734,
,,,,,,,,,,,,,,,,4,9.25,9.75,10.25,10.75,0,0.5,0.1,0.4,1.9000000000000001,10,initial,36.05,333,351,370,388,0,9,9,9,9,0,,,,,,,3,0,3,0,0,48,48,42,,,,,,,,,,,,num_4,0.7806060002185404,num_4,0.3,1.3,0.35,0.5,13.37193,19.10275,return,3.6596431001089513,,,,,,,,,,,,,,,,,722,21,female,left_right_width,2024-11-02_15h35.40.288,exp1,2023.1.0,59.990521620956734,
,,,,,,,,,,,,,,,,5,9,9.5,10,10.5,11,0.5,0.1,0.4,2.4,10,initial,36.05,324,342,361,379,397,9,9,9,9,9,,,,,,,3,0,3,0,0,49,49,52,,,,,,,,,,,,num_5,0.7422063001431525,num_5,0.5,0.7,0.45,0.65,17.19248,24.83358,return,2.343752000015229,,,,,,,,,,,,,,,,,722,21,female,left_right_width,2024-11-02_15h35.40.288,exp1,2023.1.0,59.990521620956734,
,,,,,,,,,,,,,,,,4,9.25,9.75,10.25,10.75,0,0.5,0.1,0.4,1.9000000000000001,10,initial,36.05,333,351,370,388,0,9,9,9,9,0,,,,,,,3,0,3,0,0,50,50,43,,,,,,,,,,,,num_4,0.7825918002054095,num_4,0.55,1.1,0.35000000000000003,0.5,13.37193,19.10275,return,6.120293699670583,,,,,,,,,,,,,,,,,722,21,female,left_right_width,2024-11-02_15h35.40.288,exp1,2023.1.0,59.990521620956734,
,,,,,,,,,,,,,,,,3,9.5,10,10.5,0,0,0.5,0.1,0.4,1.4000000000000001,10,initial,36.05,342,361,379,0,0,9,9,9,0,0,,,,,,,3,0,3,0,0,51,51,3,,,,,,,,,,,,num_3,0.7621041000820696,num_3,0.2,1.2,0.3,0.6,11.46165,22.9233,return,4.13368869991973,,,,,,,,,,,,,,,,,722,21,female,left_right_width,2024-11-02_15h35.40.288,exp1,2023.1.0,59.990521620956734,
,,,,,,,,,,,,,,,,4,9.25,9.75,10.25,10.75,0,0.5,0.1,0.4,1.9000000000000001,10,initial,36.05,333,351,370,388,0,9,9,9,9,0,,,,,,,3,0,3,0,0,52,52,10,,,,,,,,,,,,num_4,0.8394065001048148,num_4,0.2,0.5,0.35,0.5,13.37193,19.10275,return,2.1784093999303877,,,,,,,,,,,,,,,,,722,21,female,left_right_width,2024-11-02_15h35.40.288,exp1,2023.1.0,59.990521620956734,
,,,,,,,,,,,,,,,,3,9.5,10,10.5,0,0,0.5,0.1,0.4,1.4000000000000001,10,initial,36.05,342,361,379,0,0,9,9,9,0,0,,,,,,,3,0,3,0,0,53,53,27,,,,,,,,,,,,num_3,1.6797144999727607,num_3,0.2,0.6,0.39999999999999997,0.6,15.2822,22.9233,return,2.6489401999861,,,,,,,,,,,,,,,,,722,21,female,left_right_width,2024-11-02_15h35.40.288,exp1,2023.1.0,59.990521620956734,
,,,,,,,,,,,,,,,,,,,,,,,,,,,,,,,,,,,,,,,,,,,,,3,0,3,0,,,,,,,,,,,,,,,,,,,,,,,,,,,,,2216.4660021001473,2216.4660021001473,2216.4660021001473,,,,,,,,,,,,722,21,female,left_right_width,2024-11-02_15h35.40.288,exp1,2023.1.0,59.990521620956734,
,,,,,,,,,,,,,,,,5,9,9.5,10,10.5,11,0.5,0.25,0.25,2.25,10,initial,36.05,324,342,361,379,397,9,9,9,9,9,,,,,,,4,0,4,0,0,0,0,45,,,,,,,,,,,,num_4,1.0118816997855902,num_4,0.3,1.2,0.10000000000000002,0.8,3.82055,30.5644,return,5.147107400000095,,,,,,,,,,,,,,,,,722,21,female,left_right_width,2024-11-02_15h35.40.288,exp1,2023.1.0,59.990521620956734,
,,,,,,,,,,,,,,,,3,9.5,10,10.5,0,0,0.5,0.25,0.25,1.25,10,initial,36.05,342,361,379,0,0,9,9,9,0,0,,,,,,,4,0,4,0,0,1,1,32,,,,,,,,,,,,num_3,0.7195810996927321,num_3,0.25,0.3,0.15000000000000002,0.55,5.73083,21.01303,return,3.792596099898219,,,,,,,,,,,,,,,,,722,21,female,left_right_width,2024-11-02_15h35.40.288,exp1,2023.1.0,59.990521620956734,
,,,,,,,,,,,,,,,,3,9.5,10,10.5,0,0,0.5,0.25,0.25,1.25,10,initial,36.05,342,361,379,0,0,9,9,9,0,0,,,,,,,4,0,4,0,0,2,2,31,,,,,,,,,,,,num_3,0.6787181999534369,num_3,0.55,0.6,0.15000000000000008,0.75,5.73083,28.65413,return,5.605482699815184,,,,,,,,,,,,,,,,,722,21,female,left_right_width,2024-11-02_15h35.40.288,exp1,2023.1.0,59.990521620956734,
,,,,,,,,,,,,,,,,3,9.5,10,10.5,0,0,0.5,0.25,0.25,1.25,10,initial,36.05,342,361,379,0,0,9,9,9,0,0,,,,,,,4,0,4,0,0,3,3,33,,,,,,,,,,,,num_3,0.6321389996446669,num_3,0.35,0.7,0.15000000000000002,0.7,5.73083,26.74385,return,2.0921151000075042,,,,,,,,,,,,,,,,,722,21,female,left_right_width,2024-11-02_15h35.40.288,exp1,2023.1.0,59.990521620956734,
,,,,,,,,,,,,,,,,4,9.25,9.75,10.25,10.75,0,0.5,0.25,0.25,1.75,10,initial,36.05,333,351,370,388,0,9,9,9,9,0,,,,,,,4,0,4,0,0,4,4,12,,,,,,,,,,,,num_4,0.743730700109154,num_4,0.25,0.8,0.10000000000000002,0.8,3.82055,30.5644,return,1.8754856996238232,,,,,,,,,,,,,,,,,722,21,female,left_right_width,2024-11-02_15h35.40.288,exp1,2023.1.0,59.990521620956734,
,,,,,,,,,,,,,,,,4,9.25,9.75,10.25,10.75,0,0.5,0.25,0.25,1.75,10,initial,36.05,333,351,370,388,0,9,9,9,9,0,,,,,,,4,0,4,0,0,5,5,15,,,,,,,,,,,,num_4,0.7591380998492241,num_4,0.25,0.4,0.2,0.6,7.6411,22.9233,return,3.4121315996162593,,,,,,,,,,,,,,,,,722,21,female,left_right_width,2024-11-02_15h35.40.288,exp1,2023.1.0,59.990521620956734,
,,,,,,,,,,,,,,,,5,9,9.5,10,10.5,11,0.5,0.25,0.25,2.25,10,initial,36.05,324,342,361,379,397,9,9,9,9,9,,,,,,,4,0,4,0,0,6,6,23,,,,,,,,,,,,num_5,0.7527300999499857,num_5,0.25,0.7,0.15000000000000002,0.65,5.73083,24.83358,return,2.203387100249529,,,,,,,,,,,,,,,,,722,21,female,left_right_width,2024-11-02_15h35.40.288,exp1,2023.1.0,59.990521620956734,
,,,,,,,,,,,,,,,,5,9,9.5,10,10.5,11,0.5,0.25,0.25,2.25,10,initial,36.05,324,342,361,379,397,9,9,9,9,9,,,,,,,4,0,4,0,0,7,7,25,,,,,,,,,,,,num_5,0.7227132003754377,num_5,0.3,0.4,0.2,0.45,7.6411,17.19248,return,3.749308899976313,,,,,,,,,,,,,,,,,722,21,female,left_right_width,2024-11-02_15h35.40.288,exp1,2023.1.0,59.990521620956734,
,,,,,,,,,,,,,,,,4,9.25,9.75,10.25,10.75,0,0.5,0.25,0.25,1.75,10,initial,36.05,333,351,370,388,0,9,9,9,9,0,,,,,,,4,0,4,0,0,8,8,43,,,,,,,,,,,,num_5,0.7518040998838842,num_5,0.45,1.1,0.15000000000000008,0.75,5.73083,28.65413,return,4.940919100306928,,,,,,,,,,,,,,,,,722,21,female,left_right_width,2024-11-02_15h35.40.288,exp1,2023.1.0,59.990521620956734,
,,,,,,,,,,,,,,,,4,9.25,9.75,10.25,10.75,0,0.5,0.25,0.25,1.75,10,initial,36.05,333,351,370,388,0,9,9,9,9,0,,,,,,,4,0,4,0,0,9,9,36,,,,,,,,,,,,num_4,0.8726503001525998,num_4,0.5,0.8,0.20000000000000007,0.7,7.6411,26.74385,return,4.162282499950379,,,,,,,,,,,,,,,,,722,21,female,left_right_width,2024-11-02_15h35.40.288,exp1,2023.1.0,59.990521620956734,
,,,,,,,,,,,,,,,,3,9.5,10,10.5,0,0,0.5,0.25,0.25,1.25,10,initial,36.05,342,361,379,0,0,9,9,9,0,0,,,,,,,4,0,4,0,0,10,10,3,,,,,,,,,,,,num_3,0.6310335998423398,num_3,0.45,0.7,0.20000000000000007,0.7,7.6411,26.74385,return,2.2821408002637327,,,,,,,,,,,,,,,,,722,21,female,left_right_width,2024-11-02_15h35.40.288,exp1,2023.1.0,59.990521620956734,
,,,,,,,,,,,,,,,,5,9,9.5,10,10.5,11,0.5,0.25,0.25,2.25,10,initial,36.05,324,342,361,379,397,9,9,9,9,9,,,,,,,4,0,4,0,0,11,11,49,,,,,,,,,,,,num_5,0.6673860000446439,num_5,0.3,1.0,0.15000000000000002,0.8,5.73083,30.5644,return,4.316182400099933,,,,,,,,,,,,,,,,,722,21,female,left_right_width,2024-11-02_15h35.40.288,exp1,2023.1.0,59.990521620956734,
,,,,,,,,,,,,,,,,3,9.5,10,10.5,0,0,0.5,0.25,0.25,1.25,10,initial,36.05,342,361,379,0,0,9,9,9,0,0,,,,,,,4,0,4,0,0,12,12,35,,,,,,,,,,,,num_2,0.7098616999574006,num_2,0.2,0.6,0.2,0.6,7.6411,22.9233,return,0.9962168000638485,,,,,,,,,,,,,,,,,722,21,female,left_right_width,2024-11-02_15h35.40.288,exp1,2023.1.0,59.990521620956734,
,,,,,,,,,,,,,,,,3,9.5,10,10.5,0,0,0.5,0.25,0.25,1.25,10,initial,36.05,342,361,379,0,0,9,9,9,0,0,,,,,,,4,0,4,0,0,13,13,8,,,,,,,,,,,,num_2,0.6487011001445353,num_2,0.55,1.2,0.25000000000000006,0.8,9.55138,30.5644,return,4.809649799950421,,,,,,,,,,,,,,,,,722,21,female,left_right_width,2024-11-02_15h35.40.288,exp1,2023.1.0,59.990521620956734,
,,,,,,,,,,,,,,,,4,9.25,9.75,10.25,10.75,0,0.5,0.25,0.25,1.75,10,initial,36.05,333,351,370,388,0,9,9,9,9,0,,,,,,,4,0,4,0,0,14,14,16,,,,,,,,,,,,num_3,1.2976523996330798,num_3,0.55,0.7,0.20000000000000007,0.65,7.6411,24.83358,return,3.766360499896109,,,,,,,,,,,,,,,,,722,21,female,left_right_width,2024-11-02_15h35.40.288,exp1,2023.1.0,59.990521620956734,
,,,,,,,,,,,,,,,,5,9,9.5,10,10.5,11,0.5,0.25,0.25,2.25,10,initial,36.05,324,342,361,379,397,9,9,9,9,9,,,,,,,4,0,4,0,0,15,15,52,,,,,,,,,,,,num_4,0.8348578000441194,num_4,0.35,1.3,0.2,0.8,7.6411,30.5644,return,2.7998332995921373,,,,,,,,,,,,,,,,,722,21,female,left_right_width,2024-11-02_15h35.40.288,exp1,2023.1.0,59.990521620956734,
,,,,,,,,,,,,,,,,4,9.25,9.75,10.25,10.75,0,0.5,0.25,0.25,1.75,10,initial,36.05,333,351,370,388,0,9,9,9,9,0,,,,,,,4,0,4,0,0,16,16,44,,,,,,,,,,,,num_4,0.7278799000196159,num_4,0.3,0.3,0.25,0.5,9.55138,19.10275,return,3.4493851996958256,,,,,,,,,,,,,,,,,722,21,female,left_right_width,2024-11-02_15h35.40.288,exp1,2023.1.0,59.990521620956734,
,,,,,,,,,,,,,,,,5,9,9.5,10,10.5,11,0.5,0.25,0.25,2.25,10,initial,36.05,324,342,361,379,397,9,9,9,9,9,,,,,,,4,0,4,0,0,17,17,46,,,,,,,,,,,,num_5,0.7768059000372887,num_5,0.3,1.1,0.2,1.0,7.6411,38.2055,return,2.451898300088942,,,,,,,,,,,,,,,,,722,21,female,left_right_width,2024-11-02_15h35.40.288,exp1,2023.1.0,59.990521620956734,
,,,,,,,,,,,,,,,,4,9.25,9.75,10.25,10.75,0,0.5,0.25,0.25,1.75,10,initial,36.05,333,351,370,388,0,9,9,9,9,0,,,,,,,4,0,4,0,0,18,18,41,,,,,,,,,,,,num_4,0.7230806001462042,num_4,0.35,0.8,0.3,0.7,11.46165,26.74385,return,2.5825124997645617,,,,,,,,,,,,,,,,,722,21,female,left_right_width,2024-11-02_15h35.40.288,exp1,2023.1.0,59.990521620956734,
,,,,,,,,,,,,,,,,4,9.25,9.75,10.25,10.75,0,0.5,0.25,0.25,1.75,10,initial,36.05,333,351,370,388,0,9,9,9,9,0,,,,,,,4,0,4,0,0,19,19,9,,,,,,,,,,,,num_4,0.8012060998007655,num_4,0.3,0.6,0.25,0.7,9.55138,26.74385,return,1.9345381003804505,,,,,,,,,,,,,,,,,722,21,female,left_right_width,2024-11-02_15h35.40.288,exp1,2023.1.0,59.990521620956734,
,,,,,,,,,,,,,,,,3,9.5,10,10.5,0,0,0.5,0.25,0.25,1.25,10,initial,36.05,342,361,379,0,0,9,9,9,0,0,,,,,,,4,0,4,0,0,20,20,30,,,,,,,,,,,,num_2,0.9493299000896513,num_2,0.3,0.8,0.25,0.8,9.55138,30.5644,return,1.4028671998530626,,,,,,,,,,,,,,,,,722,21,female,left_right_width,2024-11-02_15h35.40.288,exp1,2023.1.0,59.990521620956734,
,,,,,,,,,,,,,,,,3,9.5,10,10.5,0,0,0.5,0.25,0.25,1.25,10,initial,36.05,342,361,379,0,0,9,9,9,0,0,,,,,,,4,0,4,0,0,21,21,27,,,,,,,,,,,,num_2,0.6326238997280598,num_2,0.4,1.2,0.30000000000000004,1.2,11.46165,45.8466,return,1.5794424000196159,,,,,,,,,,,,,,,,,722,21,female,left_right_width,2024-11-02_15h35.40.288,exp1,2023.1.0,59.990521620956734,
,,,,,,,,,,,,,,,,4,9.25,9.75,10.25,10.75,0,0.5,0.25,0.25,1.75,10,initial,36.05,333,351,370,388,0,9,9,9,9,0,,,,,,,4,0,4,0,0,22,22,14,,,,,,,,,,,,num_4,0.7063320996239781,num_4,0.25,0.8,0.15000000000000002,0.8,5.73083,30.5644,return,1.4601479000411928,,,,,,,,,,,,,,,,,722,21,female,left_right_width,2024-11-02_15h35.40.288,exp1,2023.1.0,59.990521620956734,
,,,,,,,,,,,,,,,,3,9.5,10,10.5,0,0,0.5,0.25,0.25,1.25,10,initial,36.05,342,361,379,0,0,9,9,9,0,0,,,,,,,4,0,4,0,0,23,23,7,,,,,,,,,,,,num_2,0.5963846002705395,num_2,0.25,1.2,0.15000000000000002,1.0,5.73083,38.2055,return,3.704345399979502,,,,,,,,,,,,,,,,,722,21,female,left_right_width,2024-11-02_15h35.40.288,exp1,2023.1.0,59.990521620956734,
,,,,,,,,,,,,,,,,5,9,9.5,10,10.5,11,0.5,0.25,0.25,2.25,10,initial,36.05,324,342,361,379,397,9,9,9,9,9,,,,,,,4,0,4,0,0,24,24,19,,,,,,,,,,,,num_4,0.7830834998749197,num_4,0.2,1.2,0.15000000000000002,0.8,5.73083,30.5644,return,3.0877626999281347,,,,,,,,,,,,,,,,,722,21,female,left_right_width,2024-11-02_15h35.40.288,exp1,2023.1.0,59.990521620956734,
,,,,,,,,,,,,,,,,3,9.5,10,10.5,0,0,0.5,0.25,0.25,1.25,10,initial,36.05,342,361,379,0,0,9,9,9,0,0,,,,,,,4,0,4,0,0,25,25,5,,,,,,,,,,,,num_2,0.661086400039494,num_2,0.5,0.8,0.25000000000000006,0.8,9.55138,30.5644,return,2.6295543001033366,,,,,,,,,,,,,,,,,722,21,female,left_right_width,2024-11-02_15h35.40.288,exp1,2023.1.0,59.990521620956734,
,,,,,,,,,,,,,,,,5,9,9.5,10,10.5,11,0.5,0.25,0.25,2.25,10,initial,36.05,324,342,361,379,397,9,9,9,9,9,,,,,,,4,0,4,0,0,26,26,48,,,,,,,,,,,,num_4,0.7327484996058047,num_4,0.2,0.9,0.2,0.8,7.6411,30.5644,return,1.7715459000319242,,,,,,,,,,,,,,,,,722,21,female,left_right_width,2024-11-02_15h35.40.288,exp1,2023.1.0,59.990521620956734,
,,,,,,,,,,,,,,,,3,9.5,10,10.5,0,0,0.5,0.25,0.25,1.25,10,initial,36.05,342,361,379,0,0,9,9,9,0,0,,,,,,,4,0,4,0,0,27,27,0,,,,,,,,,,,,num_3,0.8018091004341841,num_3,0.5,0.7,0.30000000000000004,0.65,11.46165,24.83358,return,2.603426500223577,,,,,,,,,,,,,,,,,722,21,female,left_right_width,2024-11-02_15h35.40.288,exp1,2023.1.0,59.990521620956734,
,,,,,,,,,,,,,,,,5,9,9.5,10,10.5,11,0.5,0.25,0.25,2.25,10,initial,36.05,324,342,361,379,397,9,9,9,9,9,,,,,,,4,0,4,0,0,28,28,47,,,,,,,,,,,,num_5,0.8080852995626628,num_5,0.45,1.3,0.20000000000000007,0.8,7.6411,30.5644,return,4.516062999609858,,,,,,,,,,,,,,,,,722,21,female,left_right_width,2024-11-02_15h35.40.288,exp1,2023.1.0,59.990521620956734,
,,,,,,,,,,,,,,,,5,9,9.5,10,10.5,11,0.5,0.25,0.25,2.25,10,initial,36.05,324,342,361,379,397,9,9,9,9,9,,,,,,,4,0,4,0,0,29,29,22,,,,,,,,,,,,num_5,0.8854819000698626,num_5,0.2,1.1,0.2,0.8,7.6411,30.5644,return,2.2192100998945534,,,,,,,,,,,,,,,,,722,21,female,left_right_width,2024-11-02_15h35.40.288,exp1,2023.1.0,59.990521620956734,
,,,,,,,,,,,,,,,,5,9,9.5,10,10.5,11,0.5,0.25,0.25,2.25,10,initial,36.05,324,342,361,379,397,9,9,9,9,9,,,,,,,4,0,4,0,0,30,30,53,,,,,,,,,,,,num_5,0.7160642999224365,num_5,0.25,1.2,0.15000000000000002,0.85,5.73083,32.47468,return,2.7347483998164535,,,,,,,,,,,,,,,,,722,21,female,left_right_width,2024-11-02_15h35.40.288,exp1,2023.1.0,59.990521620956734,
,,,,,,,,,,,,,,,,5,9,9.5,10,10.5,11,0.5,0.25,0.25,2.25,10,initial,36.05,324,342,361,379,397,9,9,9,9,9,,,,,,,4,0,4,0,0,31,31,18,,,,,,,,,,,,num_5,0.7498666997998953,num_5,0.4,0.8,0.15000000000000008,0.8,5.73083,30.5644,return,2.443938999902457,,,,,,,,,,,,,,,,,722,21,female,left_right_width,2024-11-02_15h35.40.288,exp1,2023.1.0,59.990521620956734,
,,,,,,,,,,,,,,,,5,9,9.5,10,10.5,11,0.5,0.25,0.25,2.25,10,initial,36.05,324,342,361,379,397,9,9,9,9,9,,,,,,,4,0,4,0,0,32,32,20,,,,,,,,,,,,num_5,0.6797632002271712,num_5,0.5,1.3,0.15000000000000008,0.95,5.73083,36.29523,return,4.279823999851942,,,,,,,,,,,,,,,,,722,21,female,left_right_width,2024-11-02_15h35.40.288,exp1,2023.1.0,59.990521620956734,
,,,,,,,,,,,,,,,,4,9.25,9.75,10.25,10.75,0,0.5,0.25,0.25,1.75,10,initial,36.05,333,351,370,388,0,9,9,9,9,0,,,,,,,4,0,4,0,0,33,33,37,,,,,,,,,,,,num_4,0.9308796999976039,num_4,0.35,0.4,0.2,0.7,7.6411,26.74385,return,2.421634799800813,,,,,,,,,,,,,,,,,722,21,female,left_right_width,2024-11-02_15h35.40.288,exp1,2023.1.0,59.990521620956734,
,,,,,,,,,,,,,,,,3,9.5,10,10.5,0,0,0.5,0.25,0.25,1.25,10,initial,36.05,342,361,379,0,0,9,9,9,0,0,,,,,,,4,0,4,0,0,34,34,1,,,,,,,,,,,,num_2,0.6844138000160456,num_2,0.4,1.0,0.15000000000000008,0.9,5.73083,34.38495,return,2.056192200165242,,,,,,,,,,,,,,,,,722,21,female,left_right_width,2024-11-02_15h35.40.288,exp1,2023.1.0,59.990521620956734,
,,,,,,,,,,,,,,,,5,9,9.5,10,10.5,11,0.5,0.25,0.25,2.25,10,initial,36.05,324,342,361,379,397,9,9,9,9,9,,,,,,,4,0,4,0,0,35,35,26,,,,,,,,,,,,num_5,0.7345345998182893,num_5,0.3,0.8,0.15000000000000002,0.85,5.73083,32.47468,return,3.791515300050378,,,,,,,,,,,,,,,,,722,21,female,left_right_width,2024-11-02_15h35.40.288,exp1,2023.1.0,59.990521620956734,
,,,,,,,,,,,,,,,,5,9,9.5,10,10.5,11,0.5,0.25,0.25,2.25,10,initial,36.05,324,342,361,379,397,9,9,9,9,9,,,,,,,4,0,4,0,0,36,36,21,,,,,,,,,,,,num_5,0.6621389999054372,num_5,0.35,0.9,0.15000000000000002,0.85,5.73083,32.47468,return,3.018338399939239,,,,,,,,,,,,,,,,,722,21,female,left_right_width,2024-11-02_15h35.40.288,exp1,2023.1.0,59.990521620956734,
,,,,,,,,,,,,,,,,4,9.25,9.75,10.25,10.75,0,0.5,0.25,0.25,1.75,10,initial,36.05,333,351,370,388,0,9,9,9,9,0,,,,,,,4,0,4,0,0,37,37,39,,,,,,,,,,,,num_4,0.6808892004191875,num_4,0.3,0.5,0.15000000000000002,0.8,5.73083,30.5644,return,2.4773120996542275,,,,,,,,,,,,,,,,,722,21,female,left_right_width,2024-11-02_15h35.40.288,exp1,2023.1.0,59.990521620956734,
,,,,,,,,,,,,,,,,3,9.5,10,10.5,0,0,0.5,0.25,0.25,1.25,10,initial,36.05,342,361,379,0,0,9,9,9,0,0,,,,,,,4,0,4,0,0,38,38,6,,,,,,,,,,,,num_2,0.6184792001731694,num_2,0.35,1.6,0.2,1.0,7.6411,38.2055,return,3.628301799762994,,,,,,,,,,,,,,,,,722,21,female,left_right_width,2024-11-02_15h35.40.288,exp1,2023.1.0,59.990521620956734,
,,,,,,,,,,,,,,,,5,9,9.5,10,10.5,11,0.5,0.25,0.25,2.25,10,initial,36.05,324,342,361,379,397,9,9,9,9,9,,,,,,,4,0,4,0,0,39,39,51,,,,,,,,,,,,num_4,0.6415309999138117,num_4,0.2,1.1,0.2,0.9,7.6411,34.38495,return,2.129605299793184,,,,,,,,,,,,,,,,,722,21,female,left_right_width,2024-11-02_15h35.40.288,exp1,2023.1.0,59.990521620956734,
,,,,,,,,,,,,,,,,3,9.5,10,10.5,0,0,0.5,0.25,0.25,1.25,10,initial,36.05,342,361,379,0,0,9,9,9,0,0,,,,,,,4,0,4,0,0,40,40,2,,,,,,,,,,,,num_2,0.6861395002342761,num_2,0.4,1.0,0.30000000000000004,1.0,11.46165,38.2055,return,1.5984163000248373,,,,,,,,,,,,,,,,,722,21,female,left_right_width,2024-11-02_15h35.40.288,exp1,2023.1.0,59.990521620956734,
,,,,,,,,,,,,,,,,5,9,9.5,10,10.5,11,0.5,0.25,0.25,2.25,10,initial,36.05,324,342,361,379,397,9,9,9,9,9,,,,,,,4,0,4,0,0,41,41,50,,,,,,,,,,,,num_5,0.6273972000926733,num_5,0.25,0.5,0.15000000000000002,0.7,5.73083,26.74385,return,3.0011526001617312,,,,,,,,,,,,,,,,,722,21,female,left_right_width,2024-11-02_15h35.40.288,exp1,2023.1.0,59.990521620956734,
,,,,,,,,,,,,,,,,3,9.5,10,10.5,0,0,0.5,0.25,0.25,1.25,10,initial,36.05,342,361,379,0,0,9,9,9,0,0,,,,,,,4,0,4,0,0,42,42,28,,,,,,,,,,,,num_2,0.6174180000089109,num_2,0.45,1.4,0.20000000000000007,1.1,7.6411,42.02605,return,3.1818254999816418,,,,,,,,,,,,,,,,,722,21,female,left_right_width,2024-11-02_15h35.40.288,exp1,2023.1.0,59.990521620956734,
,,,,,,,,,,,,,,,,4,9.25,9.75,10.25,10.75,0,0.5,0.25,0.25,1.75,10,initial,36.05,333,351,370,388,0,9,9,9,9,0,,,,,,,4,0,4,0,0,43,43,13,,,,,,,,,,,,num_3,0.7289646998979151,num_3,0.55,0.6,0.20000000000000007,0.7,7.6411,26.74385,return,3.1384606999345124,,,,,,,,,,,,,,,,,722,21,female,left_right_width,2024-11-02_15h35.40.288,exp1,2023.1.0,59.990521620956734,
,,,,,,,,,,,,,,,,4,9.25,9.75,10.25,10.75,0,0.5,0.25,0.25,1.75,10,initial,36.05,333,351,370,388,0,9,9,9,9,0,,,,,,,4,0,4,0,0,44,44,11,,,,,,,,,,,,num_4,0.8460888997651637,num_4,0.45,1.2,0.25000000000000006,0.6,9.55138,22.9233,return,2.9858947000466287,,,,,,,,,,,,,,,,,722,21,female,left_right_width,2024-11-02_15h35.40.288,exp1,2023.1.0,59.990521620956734,
,,,,,,,,,,,,,,,,4,9.25,9.75,10.25,10.75,0,0.5,0.25,0.25,1.75,10,initial,36.05,333,351,370,388,0,9,9,9,9,0,,,,,,,4,0,4,0,0,45,45,42,,,,,,,,,,,,num_4,0.6988722998648882,num_4,0.25,0.4,0.25,0.7,9.55138,26.74385,return,2.061056699603796,,,,,,,,,,,,,,,,,722,21,female,left_right_width,2024-11-02_15h35.40.288,exp1,2023.1.0,59.990521620956734,
,,,,,,,,,,,,,,,,5,9,9.5,10,10.5,11,0.5,0.25,0.25,2.25,10,initial,36.05,324,342,361,379,397,9,9,9,9,9,,,,,,,4,0,4,0,0,46,46,24,,,,,,,,,,,,num_5,0.7162202997133136,num_5,0.55,0.6,0.25000000000000006,0.75,9.55138,28.65413,return,3.103397199884057,,,,,,,,,,,,,,,,,722,21,female,left_right_width,2024-11-02_15h35.40.288,exp1,2023.1.0,59.990521620956734,
,,,,,,,,,,,,,,,,4,9.25,9.75,10.25,10.75,0,0.5,0.25,0.25,1.75,10,initial,36.05,333,351,370,388,0,9,9,9,9,0,,,,,,,4,0,4,0,0,47,47,40,,,,,,,,,,,,num_4,0.7633080002851784,num_4,0.45,0.7,0.25000000000000006,0.7,9.55138,26.74385,return,1.7810657997615635,,,,,,,,,,,,,,,,,722,21,female,left_right_width,2024-11-02_15h35.40.288,exp1,2023.1.0,59.990521620956734,
,,,,,,,,,,,,,,,,4,9.25,9.75,10.25,10.75,0,0.5,0.25,0.25,1.75,10,initial,36.05,333,351,370,388,0,9,9,9,9,0,,,,,,,4,0,4,0,0,48,48,38,,,,,,,,,,,,num_4,0.663108800072223,num_4,0.25,0.8,0.25,0.8,9.55138,30.5644,return,1.0499530998058617,,,,,,,,,,,,,,,,,722,21,female,left_right_width,2024-11-02_15h35.40.288,exp1,2023.1.0,59.990521620956734,
,,,,,,,,,,,,,,,,3,9.5,10,10.5,0,0,0.5,0.25,0.25,1.25,10,initial,36.05,342,361,379,0,0,9,9,9,0,0,,,,,,,4,0,4,0,0,49,49,29,,,,,,,,,,,,num_2,0.6589020001702011,num_2,0.3,1.4,0.3,1.1,11.46165,42.02605,return,1.5753533001989126,,,,,,,,,,,,,,,,,722,21,female,left_right_width,2024-11-02_15h35.40.288,exp1,2023.1.0,59.990521620956734,
,,,,,,,,,,,,,,,,4,9.25,9.75,10.25,10.75,0,0.5,0.25,0.25,1.75,10,initial,36.05,333,351,370,388,0,9,9,9,9,0,,,,,,,4,0,4,0,0,50,50,17,,,,,,,,,,,,num_5,0.7528373003005981,num_5,0.3,0.4,0.15000000000000002,0.5,5.73083,19.10275,return,2.1121720001101494,,,,,,,,,,,,,,,,,722,21,female,left_right_width,2024-11-02_15h35.40.288,exp1,2023.1.0,59.990521620956734,
,,,,,,,,,,,,,,,,4,9.25,9.75,10.25,10.75,0,0.5,0.25,0.25,1.75,10,initial,36.05,333,351,370,388,0,9,9,9,9,0,,,,,,,4,0,4,0,0,51,51,10,,,,,,,,,,,,num_4,0.9187934999354184,num_4,0.35,0.9,0.2,0.6,7.6411,22.9233,return,3.0099714999087155,,,,,,,,,,,,,,,,,722,21,female,left_right_width,2024-11-02_15h35.40.288,exp1,2023.1.0,59.990521620956734,
,,,,,,,,,,,,,,,,3,9.5,10,10.5,0,0,0.5,0.25,0.25,1.25,10,initial,36.05,342,361,379,0,0,9,9,9,0,0,,,,,,,4,0,4,0,0,52,52,4,,,,,,,,,,,,num_2,0.8695653998292983,num_2,0.5,0.8,0.25000000000000006,0.8,9.55138,30.5644,return,2.1253772997297347,,,,,,,,,,,,,,,,,722,21,female,left_right_width,2024-11-02_15h35.40.288,exp1,2023.1.0,59.990521620956734,
,,,,,,,,,,,,,,,,3,9.5,10,10.5,0,0,0.5,0.25,0.25,1.25,10,initial,36.05,342,361,379,0,0,9,9,9,0,0,,,,,,,4,0,4,0,0,53,53,34,,,,,,,,,,,,num_3,1.7179601001553237,num_3,0.25,0.4,0.2,0.65,7.6411,24.83358,return,2.714785700198263,,,,,,,,,,,,,,,,,722,21,female,left_right_width,2024-11-02_15h35.40.288,exp1,2023.1.0,59.990521620956734,
,,,,,,,,,,,,,,,,,,,,,,,,,,,,,,,,,,,,,,,,,,,,,4,0,4,0,,,,,,,,,,,,,,,,,,,,,,,,,,,,,2562.815190100111,2562.815190100111,2562.815190100111,,,,,,,,,,,,722,21,female,left_right_width,2024-11-02_15h35.40.288,exp1,2023.1.0,59.990521620956734,
,,,,,,,,,,,,,,,,5,8.2,9.1,10,10.9,11.8,0.9,0.35,0.55,4.15,10,initial,36.05,296,328,361,393,425,9,9,9,9,9,,,,,,,5,0,5,0,0,0,0,48,,,,,,,,,,,,num_4,1.206244200002402,num_4,0.45,0.9,0.45,0.8,17.19248,30.5644,return,2.141674800310284,,,,,,,,,,,,,,,,,722,21,female,left_right_width,2024-11-02_15h35.40.288,exp1,2023.1.0,59.990521620956734,
,,,,,,,,,,,,,,,,3,9.1,10,10.9,0,0,0.9,0.35,0.55,2.35,10,initial,36.05,328,361,393,0,0,9,9,9,0,0,,,,,,,5,0,5,0,0,1,1,32,,,,,,,,,,,,num_3,0.690414700191468,num_3,0.25,1.2,0.44999999999999996,1.2,17.19248,45.8466,return,2.06596070015803,,,,,,,,,,,,,,,,,722,21,female,left_right_width,2024-11-02_15h35.40.288,exp1,2023.1.0,59.990521620956734,
,,,,,,,,,,,,,,,,5,8.2,9.1,10,10.9,11.8,0.9,0.35,0.55,4.15,10,initial,36.05,296,328,361,393,425,9,9,9,9,9,,,,,,,5,0,5,0,0,2,2,53,,,,,,,,,,,,num_5,0.7843057997524738,num_5,0.55,1.3,0.55,1.3,21.01303,49.66716,return,0.9390640002675354,,,,,,,,,,,,,,,,,722,21,female,left_right_width,2024-11-02_15h35.40.288,exp1,2023.1.0,59.990521620956734,
,,,,,,,,,,,,,,,,5,8.2,9.1,10,10.9,11.8,0.9,0.35,0.55,4.15,10,initial,36.05,296,328,361,393,425,9,9,9,9,9,,,,,,,5,0,5,0,0,3,3,49,,,,,,,,,,,,num_5,0.6565709002315998,num_5,0.3,0.5,0.39999999999999997,0.7,15.2822,26.74385,return,2.7510413001291454,,,,,,,,,,,,,,,,,722,21,female,left_right_width,2024-11-02_15h35.40.288,exp1,2023.1.0,59.990521620956734,
,,,,,,,,,,,,,,,,5,8.2,9.1,10,10.9,11.8,0.9,0.35,0.55,4.15,10,initial,36.05,296,328,361,393,425,9,9,9,9,9,,,,,,,5,0,5,0,0,4,4,26,,,,,,,,,,,,num_5,0.7682713000103831,num_5,0.2,1.2,0.49999999999999994,1.1,19.10275,42.02605,return,2.7994029000401497,,,,,,,,,,,,,,,,,722,21,female,left_right_width,2024-11-02_15h35.40.288,exp1,2023.1.0,59.990521620956734,
,,,,,,,,,,,,,,,,4,8.65,9.55,10.45,11.35,0,0.9,0.35,0.55,3.25,10,initial,36.05,312,344,377,409,0,9,9,9,9,0,,,,,,,5,0,5,0,0,5,5,12,,,,,,,,,,,,num_4,0.8494755998253822,num_4,0.2,1.1,0.39999999999999997,1.1,15.2822,42.02605,return,1.7690117000602186,,,,,,,,,,,,,,,,,722,21,female,left_right_width,2024-11-02_15h35.40.288,exp1,2023.1.0,59.990521620956734,
,,,,,,,,,,,,,,,,5,8.2,9.1,10,10.9,11.8,0.9,0.35,0.55,4.15,10,initial,36.05,296,328,361,393,425,9,9,9,9,9,,,,,,,5,0,5,0,0,6,6,19,,,,,,,,,,,,num_5,0.6992122000083327,num_5,0.55,0.8,0.4,0.75,15.2822,28.65413,return,3.278446199838072,,,,,,,,,,,,,,,,,722,21,female,left_right_width,2024-11-02_15h35.40.288,exp1,2023.1.0,59.990521620956734,
