"participant","stim_length","amount","center_to_center","w","trial_type","loop.thisN","response","key_resp.rt","starting_width_deg","starting_space_deg","response_width_degree","response_spacing_degree","next_5.rt","resp_group"
1,1.65,4,0.466666666666667,0.25,"match",0,3,2.92675460013561,0.1,1.3,0.25,0.75,7.27211120002903,"left_right_width"
1,2.1,3,1,0.1,"match",1,3,2.49829599983059,0.15,0.5,0.1,1,9.11644969996996,"left_right_width"
1,2.2,4,0.6,0.4,"match",2,3,4.42918620002456,0.15,1.3,0.35,0.65,6.93804990011267,"left_right_width"
1,2.25,5,0.5,0.25,"initial",3,4,1.30401759990491,0.3,0.3,0.4,0.6,23.475285399938,"left_right_width"
1,3.1,5,0.675,0.4,"match",4,4,1.58405849989504,0.4,1.2,0.4,0.6,3.98432980012149,"left_right_width"
1,1.4,3,0.5,0.4,"initial",5,3,1.13310929993168,0.15,1.2,0.4,0.65,6.59089780016802,"left_right_width"
1,2.95,5,0.675,0.25,"match",6,4,1.08213890017942,0.25,1.3,0.25,0.9,4.45910259988159,"left_right_width"
1,2.2,4,0.7,0.1,"initial",7,4,1.16977070015855,0.45,1.2,0.1,0.7,12.2902154000476,"left_right_width"
1,2.9,3,1.4,0.1,"match",8,2,1.06274560000747,0.45,1.6,0.1,1.4,5.84709669998847,"left_right_width"
1,1.25,3,0.5,0.25,"initial",9,3,1.09673670004122,0.4,0.8,0.25,0.7,5.81985140009783,"left_right_width"
1,2.5,5,0.525,0.4,"match",10,5,1.59398759994656,0.1,0.5,0.35,0.5,5.48144650016911,"left_right_width"
1,2.25,3,1,0.25,"match",11,2,1.1902366001159,0.1,1.6,0.4,1.3,7.21995349996723,"left_right_width"
1,1.1,3,0.5,0.1,"initial",12,2,1.91726119979285,0.4,1.6,0.1,1.1,4.9766136999242,"left_right_width"
1,1.65,3,0.7,0.25,"initial",13,3,1.12536599999294,0.2,1,0.25,0.8,4.326524999924,"left_right_width"
1,2.5,4,0.7,0.4,"initial",14,3,1.50443420000374,0.1,0.8,0.4,0.8,2.62465899996459,"left_right_width"
1,3.7,5,0.9,0.1,"initial",15,4,0.946618600049987,0.35,1,0.1,1,5.32355220010504,"left_right_width"
1,2.8,5,0.675,0.1,"match",16,5,1.12747790012509,0.15,1.3,0.1,0.85,6.36113320011646,"left_right_width"
1,2.9,5,0.7,0.1,"initial",17,5,1.16934060002677,0.4,0.9,0.0500000000000001,0.9,4.68828419991769,"left_right_width"
1,1.6,5,0.375,0.1,"match",18,4,1.58190759993158,0.35,1.3,0.1,0.7,9.01927680009976,"left_right_width"
1,1.6,4,0.5,0.1,"initial",19,3,1.75716729997657,0.1,0.7,0.1,0.8,2.45334429992363,"left_right_width"
1,1.5,3,0.7,0.1,"initial",20,2,2.30452980007976,0.3,1.6,0.2,1.1,6.49605270009488,"left_right_width"
1,3.7,3,1.8,0.1,"match",21,3,1.95809129998088,0.35,0.5,0.1,1.6,12.1180954000447,"left_right_width"
1,2.4,5,0.5,0.4,"initial",22,4,1.87627330003306,0.15,0.8,0.35,0.5,4.56711399997585,"left_right_width"
1,2.1,5,0.5,0.1,"initial",23,4,0.947251399978995,0.3,1,0.1,0.5,4.46165139996447,"left_right_width"
1,1.9,5,0.4125,0.25,"match",24,4,0.992679900024086,0.35,1.1,0.25,0.5,3.82956839981489,"left_right_width"
1,2.35,5,0.525,0.25,"match",25,4,0.999083600006998,0.2,0.4,0.35,0.8,5.16706739994697,"left_right_width"
1,1.25,4,0.333333333333333,0.25,"match",26,3,1.14286290016025,0.3,0.6,0.3,0.5,7.01656769984402,"left_right_width"
1,1.9,4,0.5,0.4,"initial",27,3,1.52226769994013,0.3,0.6,0.4,0.65,4.33920829999261,"left_right_width"
1,3.05,3,1.4,0.25,"match",28,2,0.716631199931726,0.35,1.6,0.25,2.2,3.53333649993874,"left_right_width"
1,3.2,3,1.475,0.25,"match",29,2,1.07678120001219,0.15,1.6,0.1,3.3,5.04944289987907,"left_right_width"
1,2.2,3,0.9,0.4,"initial",30,2,3.02513940003701,0.45,1.6,0.45,1.6,1.33583780005574,"left_right_width"
1,1.8,4,0.466666666666667,0.4,"match",31,3,1.04848320013843,0.45,0.5,0.45,0.65,2.68573069991544,"left_right_width"
1,1.75,4,0.5,0.25,"initial",32,4,1.38703270000406,0.15,0.7,0.3,0.5,3.69610309996642,"left_right_width"
1,4,3,1.8,0.4,"match",33,3,0.849759300006554,0.25,0.8,0.25,1.65,6.3964756000787,"left_right_width"
1,2.05,4,0.6,0.25,"match",34,4,1.52001390000805,0.3,0.3,0.15,0.5,5.32821649988182,"left_right_width"
1,4,5,0.9,0.4,"initial",35,4,1.06937410007231,0.4,0.9,0.4,0.9,1.4397054000292,"left_right_width"
1,2.35,4,0.7,0.25,"initial",36,3,1.08013239991851,0.35,1.2,0.2,0.95,3.24426559987478,"left_right_width"
1,1.1,4,0.333333333333333,0.1,"match",37,4,1.01469140010886,0.4,0.7,0.1,0.5,5.13278550002724,"left_right_width"
1,2.4,3,1,0.4,"match",38,3,1.05851319991052,0.45,0.9,0.45,1,1.78114450001158,"left_right_width"
1,1.75,5,0.375,0.25,"match",39,4,0.96649430016987,0.1,0.4,0.35,0.5,4.92461250000633,"left_right_width"
1,3.05,5,0.7,0.25,"initial",40,4,1.05675629992038,0.2,0.4,0.25,0.6,4.98117210017517,"left_right_width"
1,2.95,4,0.9,0.25,"initial",41,3,1.62668929994106,0.45,0.7,0.15,0.9,6.34494749992155,"left_right_width"
1,1.4,4,0.383333333333333,0.25,"match",42,3,0.907228100113571,0.3,0.6,0.3,0.5,1.87531180004589,"left_right_width"
1,1.9,4,0.6,0.1,"match",43,4,0.99335250002332,0.15,1.2,0.1,0.6,8.34235499985516,"left_right_width"
1,2.2,5,0.525,0.1,"match",44,5,1.47563640004955,0.4,1,0.0500000000000001,0.65,9.2528649000451,"left_right_width"
1,2.05,3,0.9,0.25,"initial",45,2,0.99924959987402,0.45,1.6,0.35,1.3,2.9590646000579,"left_right_width"
1,3.85,3,1.8,0.25,"match",46,2,1.43513240013272,0.2,1.6,0.3,1.9,4.83147520013154,"left_right_width"
1,3.1,4,0.9,0.4,"initial",47,4,2.42819519992918,0.35,1.3,0.3,0.8,3.7661117000971,"left_right_width"
1,1.5,4,0.466666666666667,0.1,"match",48,4,0.99808119982481,0.4,0.7,0.1,0.5,3.29360279999673,"left_right_width"
1,2.8,4,0.9,0.1,"initial",49,3,1.18610000004992,0.4,1.3,0.1,1.05,5.66522550000809,"left_right_width"
1,3.85,5,0.9,0.25,"initial",50,5,1.78310500015505,0.25,0.8,0.15,0.85,3.19685070007108,"left_right_width"
1,1.8,3,0.7,0.4,"initial",51,2,0.999651100020856,0.1,1.6,0.5,0.8,6.0314301000908,"left_right_width"
1,3.2,5,0.7,0.4,"initial",52,4,1.01467720000073,0.15,1.1,0.5,0.8,8.26961109996773,"left_right_width"
1,1.9,3,0.9,0.1,"initial",53,2,1.11946600000374,0.1,1.6,0.1,1.5,4.83249770011753,"left_right_width"
1,2.05,4,0.6,0.25,"match",0,3,1.09546769992448,0.25,0.4,0.25,0.6,3.96054459991865,"left_right_width"
1,1.9,5,0.4125,0.25,"match",1,4,0.696975100087002,0.1,0.7,0.25,0.6,2.13931869994849,"left_right_width"
1,2.8,4,0.9,0.1,"initial",2,4,0.735368900001049,0.3,0.5,0.1,0.8,4.57628379995003,"left_right_width"
1,1.65,3,0.7,0.25,"initial",3,2,1.11599460011348,0.45,1.6,0.3,1.1,5.00464840000495,"left_right_width"
1,2.1,3,1,0.1,"match",4,3,0.950733499834314,0.1,0.9,0.1,0.9,0.92734029982239,"left_right_width"
1,3.05,3,1.4,0.25,"match",5,2,0.908857499947771,0.25,1.6,0.15,1.9,2.79199289996177,"left_right_width"
1,1.4,3,0.5,0.4,"initial",6,2,1.03983850008808,0.25,1.6,0.45,0.7,7.34726330009289,"left_right_width"
1,3.7,3,1.8,0.1,"match",7,2,1.11219300003722,0.45,1.6,0.0500000000000001,2.7,5.56159040005878,"left_right_width"
1,3.1,4,0.9,0.4,"initial",8,3,2.12675270019099,0.15,0.8,0.35,1,4.39126689988188,"left_right_width"
1,3.7,5,0.9,0.1,"initial",9,4,2.68746259994805,0.1,0.7,0.1,1,1.74554969999008,"left_right_width"
1,2.95,4,0.9,0.25,"initial",10,4,0.889356400119141,0.1,1.1,0.2,0.7,3.07560229999945,"left_right_width"
1,3.2,3,1.475,0.25,"match",11,3,1.13193739997223,0.2,0.9,0.2,1.05,1.91832149983384,"left_right_width"
1,1.6,5,0.375,0.1,"match",12,4,0.749981800094247,0.25,0.5,0.1,0.4,2.76646910002455,"left_right_width"
1,2.25,3,1,0.25,"match",13,3,1.38505619997159,0.25,1.2,0.15,0.8,3.79208920011297,"left_right_width"
1,2.8,5,0.675,0.1,"match",14,4,2.26578569994308,0.3,0.7,0.1,0.7,4.01327180000953,"left_right_width"
1,1.65,4,0.466666666666667,0.25,"match",15,3,1.00881840009242,0.15,0.5,0.3,0.5,1.65385639993474,"left_right_width"
1,1.75,4,0.5,0.25,"initial",16,3,0.933273300062865,0.15,0.3,0.25,0.45,2.81543289986439,"left_right_width"
1,2.1,5,0.5,0.1,"initial",17,4,0.847747099818662,0.2,1.2,0.1,0.5,4.7482108999975,"left_right_width"
1,2.25,5,0.5,0.25,"initial",18,5,3.34923040005378,0.2,0.8,0.2,0.45,4.38231900008395,"left_right_width"
1,4,3,1.8,0.4,"match",19,2,0.876184300053865,0.4,1.6,0.4,4.1,7.70309289987199,"left_right_width"
1,1.8,3,0.7,0.4,"initial",20,2,0.864854499930516,0.3,1.6,0.4,0.8,8.09136560000479,"left_right_width"
1,3.05,5,0.7,0.25,"initial",21,4,1.0239338001702,0.4,0.7,0.25,0.6,13.573447200004,"left_right_width"
1,2.35,5,0.525,0.25,"match",22,4,0.783489999826998,0.1,0.4,0.35,0.7,9.11866240017116,"left_right_width"
1,1.25,4,0.333333333333333,0.25,"match",23,3,1.07543399999849,0.25,0.3,0.25,0.35,2.24677970004268,"left_right_width"
1,3.1,5,0.675,0.4,"match",24,4,0.970006000017747,0.4,0.5,0.4,0.7,1.87345189996995,"left_right_width"
1,1.1,3,0.5,0.1,"initial",25,2,0.669487399980426,0.45,1.6,0.0500000000000001,0.5,6.41799629991874,"left_right_width"
1,2.95,5,0.675,0.25,"match",26,4,0.727418900001794,0.4,0.9,0.25,0.7,2.48866609996185,"left_right_width"
1,2.05,3,0.9,0.25,"initial",27,2,0.76027309987694,0.45,1.6,0.2,1.6,5.0315243001096,"left_right_width"
1,1.1,4,0.333333333333333,0.1,"match",28,3,1.00018989993259,0.3,0.7,0.1,0.4,3.29469330003485,"left_right_width"
1,4,5,0.9,0.4,"initial",29,4,0.727967099985108,0.15,0.7,0.45,1,3.38431639992632,"left_right_width"
1,2.5,4,0.7,0.4,"initial",30,3,0.955396400066093,0.25,0.9,0.4,0.95,3.63427179981954,"left_right_width"
1,1.9,3,0.9,0.1,"initial",31,2,1.30709499982186,0.35,1.6,0.15,1.3,2.90126299997792,"left_right_width"
1,1.4,4,0.383333333333333,0.25,"match",32,3,0.770770699949935,0.2,0.3,0.3,0.5,3.20146839995869,"left_right_width"
1,2.2,4,0.6,0.4,"match",33,3,1.26350670005195,0.35,0.6,0.4,0.7,1.99645750015043,"left_right_width"
1,2.4,5,0.5,0.4,"initial",34,4,1.07077479991131,0.15,0.7,0.35,0.5,9.79393509984948,"left_right_width"
1,2.2,4,0.7,0.1,"initial",35,3,0.939079000148922,0.25,0.7,0.1,0.75,3.55482920003124,"left_right_width"
1,1.9,4,0.5,0.4,"initial",36,3,0.638713999884203,0.25,0.7,0.4,0.7,5.22061840002425,"left_right_width"
1,2.2,5,0.525,0.1,"match",37,4,1.13032569992356,0.3,0.3,0.1,0.4,4.10715099982917,"left_right_width"
1,2.35,4,0.7,0.25,"initial",38,4,0.831938600167632,0.3,0.5,0.2,0.6,2.36690470017493,"left_right_width"
1,1.25,3,0.5,0.25,"initial",39,2,0.917987399967387,0.15,1.6,0.25,0.5,4.81518150004558,"left_right_width"
1,1.75,5,0.375,0.25,"match",40,4,1.24063990009017,0.35,0.9,0.2,0.5,6.40514899999835,"left_right_width"
1,1.5,4,0.466666666666667,0.1,"match",41,4,1.1262085000053,0.1,0.7,0.1,0.4,1.91165269981138,"left_right_width"
1,1.5,3,0.7,0.1,"initial",42,2,0.785891099832952,0.4,1.6,0.1,0.8,3.95343339978717,"left_right_width"
1,2.2,3,0.9,0.4,"initial",43,2,0.889532099943608,0.1,1.6,0.8,1.4,5.53567179990932,"left_right_width"
1,1.6,4,0.5,0.1,"initial",44,3,0.957848600111902,0.3,0.6,0.05,0.6,3.95780980004929,"left_right_width"
1,3.85,5,0.9,0.25,"initial",45,4,1.07294209999964,0.4,0.6,0.1,0.8,4.24417389999144,"left_right_width"
1,1.8,4,0.466666666666667,0.4,"match",46,3,0.849978799931705,0.25,0.9,0.45,0.55,5.13447689986788,"left_right_width"
1,2.5,5,0.525,0.4,"match",47,4,1.06677629984915,0.25,1.1,0.45,0.6,12.0775383000728,"left_right_width"
1,2.4,3,1,0.4,"match",48,3,1.00668710004538,0.35,1,0.35,1,0.85266079986468,"left_right_width"
1,2.9,5,0.7,0.1,"initial",49,4,0.723445200128481,0.1,0.5,0.1,0.7,1.45984999998473,"left_right_width"
1,2.9,3,1.4,0.1,"match",50,3,2.45958499982953,0.35,1.1,0.1,1.1,3.39940929994918,"left_right_width"
1,1.9,4,0.6,0.1,"match",51,3,0.712756299879402,0.15,1.1,0.15,1.1,0.777662700042129,"left_right_width"
1,3.85,3,1.8,0.25,"match",52,2,0.824699399992824,0.35,1.6,0.2,2.3,3.39864280004986,"left_right_width"
1,3.2,5,0.7,0.4,"initial",53,4,0.79923120001331,0.1,0.4,0.4,0.7,2.4636782000307,"left_right_width"
1,1.65,4,0.466666666666667,0.25,"match",0,3,0.945002000080422,0.35,1.1,0.25,0.65,2.31448019994423,"left_right_width"
1,1.65,3,0.7,0.25,"initial",1,2,0.654136400204152,0.2,1.6,0.3,0.8,3.70014349999838,"left_right_width"
1,2.25,3,1,0.25,"match",2,3,0.7274466000963,0.4,0.5,0.3,0.8,4.58542750007473,"left_right_width"
1,2.8,4,0.9,0.1,"initial",3,3,0.762745999963954,0.35,1.3,0.15,1.2,4.4911984000355,"left_right_width"
1,2.5,5,0.525,0.4,"match",4,3,0.900055800098926,0.45,0.5,0.5,0.7,3.27969820005819,"left_right_width"
1,2.4,5,0.5,0.4,"initial",5,4,0.728724399814382,0.1,0.8,0.5,0.6,3.4988563999068,"left_right_width"
1,3.2,5,0.7,0.4,"initial",6,4,0.807305400026962,0.3,1.2,0.35,0.6,6.35829110001214,"left_right_width"
1,3.05,3,1.4,0.25,"match",7,2,0.712160700000823,0.45,1.6,0.35,2,2.4431652999483,"left_right_width"
1,1.25,4,0.333333333333333,0.25,"match",8,3,1.31359480018727,0.4,0.5,0.4,0.5,0.925171900074929,"left_right_width"
1,1.9,3,0.9,0.1,"initial",9,2,1.65732860006392,0.4,1.6,0.2,1.1,2.53126959991641,"left_right_width"
1,4,3,1.8,0.4,"match",10,3,1.04338899999857,0.3,0.7,0.4,1.45,5.44985710014589,"left_right_width"
1,2.05,3,0.9,0.25,"initial",11,3,1.74923820002005,0.15,0.3,0.3,1.3,6.49444569996558,"left_right_width"
1,1.5,3,0.7,0.1,"initial",12,3,2.73155219992623,0.1,0.6,0.1,0.6,0.909756100038067,"left_right_width"
1,3.1,5,0.675,0.4,"match",13,4,0.735566399991512,0.15,0.6,0.35,0.7,3.20040900004096,"left_right_width"
1,2.35,4,0.7,0.25,"initial",14,3,0.945641699945554,0.1,1.1,0.4,1,5.09896180010401,"left_right_width"
1,3.85,3,1.8,0.25,"match",15,3,1.25542740011588,0.3,0.9,0.3,1.35,2.48271330003627,"left_right_width"
1,3.1,4,0.9,0.4,"initial",16,4,0.775474299909547,0.15,0.6,0.3,1,2.56600079988129,"left_right_width"
1,3.85,5,0.9,0.25,"initial",17,4,1.20341209997423,0.15,1,0.15,1,0.803055000025779,"left_right_width"
1,2.05,4,0.6,0.25,"match",18,3,0.946740900166333,0.15,1,0.15,1,0.793782600201666,"left_right_width"
1,2.1,5,0.5,0.1,"initial",19,5,1.18871739995666,0.15,0.9,0.15,0.75,2.18046780000441,"left_right_width"
1,2.2,4,0.6,0.4,"match",20,4,1.71155459992588,0.45,1.1,0.35,0.6,5.13057909999043,"left_right_width"
1,2.1,3,1,0.1,"match",21,3,1.11962180002593,0.3,1.3,0.1,0.95,4.7515266998671,"left_right_width"
1,2.2,3,0.9,0.4,"initial",22,2,0.784298700047657,0.2,1.6,0.6,1.6,3.34386610006914,"left_right_width"
1,2.95,4,0.9,0.25,"initial",23,3,0.844900500029325,0.15,1,0.35,1.05,2.00998060009442,"left_right_width"
1,1.75,5,0.375,0.25,"match",24,4,0.944282500073314,0.3,1.2,0.15,0.3,4.13673650007695,"left_right_width"
1,1.4,3,0.5,0.4,"initial",25,3,0.922737600049004,0.4,0.9,0.35,0.45,6.29047570005059,"left_right_width"
1,1.9,4,0.5,0.4,"initial",26,4,0.869111099978909,0.4,1,0.4,0.5,3.8173478001263,"left_right_width"
1,1.9,5,0.4125,0.25,"match",27,4,1.58315299986862,0.2,0.3,0.2,0.3,0.880041399970651,"left_right_width"
1,3.05,5,0.7,0.25,"initial",28,5,1.84295809990726,0.3,1.1,0.3,1.1,0.856261499924585,"left_right_width"
1,1.1,3,0.5,0.1,"initial",29,2,1.57436099997722,0.35,1.6,0.2,0.7,4.72602099995129,"left_right_width"
1,2.95,5,0.675,0.25,"match",30,4,14.527798499912,0.2,1.2,0.2,1.1,0.89018899993971,"left_right_width"
1,2.8,5,0.675,0.1,"match",31,4,0.696195799857378,0.35,0.6,0.05,0.6,3.5004511999432,"left_right_width"
1,1.1,4,0.333333333333333,0.1,"match",32,3,1.26597620011307,0.1,0.4,0.1,0.4,0.656018600100651,"left_right_width"
1,1.8,3,0.7,0.4,"initial",33,2,1.03677319991402,0.2,1.6,0.5,1,4.49914839980192,"left_right_width"
1,3.2,3,1.475,0.25,"match",34,3,1.12487429985777,0.35,0.9,0.2,1.05,2.42351499991491,"left_right_width"
1,2.5,4,0.7,0.4,"initial",35,3,0.808018099982291,0.3,1.2,0.45,1.2,3.11098150000907,"left_right_width"
1,3.7,5,0.9,0.1,"initial",36,4,0.794850299833342,0.25,0.3,0.1,0.8,2.61798200011253,"left_right_width"
1,2.25,5,0.5,0.25,"initial",37,4,6.04999840003438,0.15,0.8,0.15,0.8,1.08683349983767,"left_right_width"
1,1.5,4,0.466666666666667,0.1,"match",38,4,1.51499049994163,0.2,0.3,0.1,0.4,2.23781260009855,"left_right_width"
1,2.9,3,1.4,0.1,"match",39,2,1.19075169996358,0.4,1.6,0.1,1.6,2.08334750006907,"left_right_width"
1,2.4,3,1,0.4,"match",40,2,0.697480999864638,0.3,1.6,0.45,1.6,1.62822529999539,"left_right_width"
1,2.35,5,0.525,0.25,"match",41,4,0.892371700145304,0.1,1,0.25,0.7,2.48731540003791,"left_right_width"
1,1.9,4,0.6,0.1,"match",42,3,0.87072390015237,0.45,0.5,0.1,0.75,5.41055110003799,"left_right_width"
1,2.2,4,0.7,0.1,"initial",43,4,1.84272640012205,0.45,0.6,0.15,0.8,6.27777760010213,"left_right_width"
1,1.8,4,0.466666666666667,0.4,"match",44,4,1.7092633000575,0.1,1.3,0.3,0.4,5.9570983001031,"left_right_width"
1,2.2,5,0.525,0.1,"match",45,4,0.815945700043812,0.15,0.4,0.15,0.4,0.799324500141665,"left_right_width"
1,1.6,5,0.375,0.1,"match",46,4,0.699263399932534,0.2,0.5,0.15,0.5,2.79949999996461,"left_right_width"
1,1.75,4,0.5,0.25,"initial",47,3,1.35134130017832,0.2,0.5,0.2,0.5,0.925980199826881,"left_right_width"
1,2.9,5,0.7,0.1,"initial",48,4,0.786243200069293,0.1,0.6,0.1,0.8,2.77009040000848,"left_right_width"
1,1.25,3,0.5,0.25,"initial",49,2,1.04556780005805,0.45,1.6,0.25,0.6,7.00216709985398,"left_right_width"
1,1.6,4,0.5,0.1,"initial",50,3,1.41963590006344,0.35,0.4,0.1,0.5,2.40258260001428,"left_right_width"
1,4,5,0.9,0.4,"initial",51,4,0.922500399872661,0.2,1,0.35,1,1.74656559992582,"left_right_width"
1,1.4,4,0.383333333333333,0.25,"match",52,3,0.790870700031519,0.35,0.5,0.35,0.5,0.599169799825177,"left_right_width"
1,3.7,3,1.8,0.1,"match",53,2,1.47289309999906,0.1,1.6,0.1,1.6,0.611511500086635,"left_right_width"
1,1.6,5,0.375,0.1,"match",0,4,0.915512999985367,0.3,1.2,0.1,0.5,3.93123580003157,"left_right_width"
1,2.5,5,0.525,0.4,"match",1,4,0.861424100119621,0.4,0.5,0.4,0.5,0.538838699925691,"left_right_width"
1,1.5,4,0.466666666666667,0.1,"match",2,3,0.877561500063166,0.2,0.4,0.2,0.4,1.19379710010253,"left_right_width"
1,1.65,4,0.466666666666667,0.25,"match",3,3,1.07208170020021,0.3,0.8,0.2,0.5,2.72540870006196,"left_right_width"
1,2.8,5,0.675,0.1,"match",4,4,0.845633700024337,0.35,0.7,0.15,0.7,4.16987080010585,"left_right_width"
1,2.5,4,0.7,0.4,"initial",5,3,0.859077099943534,0.15,0.6,0.35,0.65,2.88802780001424,"left_right_width"
1,2.2,4,0.6,0.4,"match",6,3,1.17889990005642,0.25,0.8,0.4,0.7,7.77007809979841,"left_right_width"
1,1.9,5,0.4125,0.25,"match",7,4,0.774925600038841,0.4,0.6,0.3,0.5,3.42862750007771,"left_right_width"
1,2.25,3,1,0.25,"match",8,3,0.901846599997953,0.4,0.8,0.2,0.85,2.14302760013379,"left_right_width"
1,1.5,3,0.7,0.1,"initial",9,2,1.49562530010007,0.3,1.6,0.15,1.3,4.82623849995434,"left_right_width"
1,1.65,3,0.7,0.25,"initial",10,3,0.834439200116321,0.3,1.1,0.3,1,1.51772339991294,"left_right_width"
1,3.2,3,1.475,0.25,"match",11,2,0.69125029980205,0.4,1.6,0.25,2,2.10104510001838,"left_right_width"
1,2.9,5,0.7,0.1,"initial",12,4,1.01201910013333,0.3,0.4,0.15,0.8,2.9540277000051,"left_right_width"
1,3.85,5,0.9,0.25,"initial",13,5,0.992843499872833,0.3,1,0.3,1,0.997499299934134,"left_right_width"
1,4,3,1.8,0.4,"match",14,2,1.25495390011929,0.3,1.6,0.3,2.4,2.3551120001357,"left_right_width"
1,2.95,5,0.675,0.25,"match",15,5,2.18167500011623,0.25,1,0.25,1,2.8620289999526,"left_right_width"
1,1.1,3,0.5,0.1,"initial",16,2,0.743614599807188,0.35,1.6,0.25,0.8,3.04953729989938,"left_right_width"
1,3.05,5,0.7,0.25,"initial",17,4,0.903514500008896,0.15,0.7,0.3,0.7,1.47450969996862,"left_right_width"
1,4,5,0.9,0.4,"initial",18,4,0.797754700062796,0.4,0.6,0.3,0.9,2.12588110007346,"left_right_width"
1,3.1,5,0.675,0.4,"match",19,4,0.750123099889606,0.2,0.5,0.3,0.7,1.90194289991632,"left_right_width"
1,1.4,3,0.5,0.4,"initial",20,2,0.886374199995771,0.15,1.6,0.4,0.5,9.58596020005643,"left_right_width"
1,2.95,4,0.9,0.25,"initial",21,4,1.4448261000216,0.2,0.3,0.2,0.8,2.05805839993991,"left_right_width"
1,2.1,5,0.5,0.1,"initial",22,4,0.976398499915376,0.45,0.8,0.15,0.8,4.82451139995828,"left_right_width"
1,1.4,4,0.383333333333333,0.25,"match",23,3,2.25321710016578,0.45,1.3,0.35,0.65,4.04731120006181,"left_right_width"
1,1.1,4,0.333333333333333,0.1,"match",24,4,1.09496579994448,0.1,1.1,0.1,0.4,4.04156069993041,"left_right_width"
1,2.05,3,0.9,0.25,"initial",25,2,0.990603300044313,0.15,1.6,0.15,0.8,2.85483750002459,"left_right_width"
1,3.2,5,0.7,0.4,"initial",26,4,1.17900749994442,0.35,1,0.35,0.8,2.82748909993097,"left_right_width"
1,3.7,5,0.9,0.1,"initial",27,5,1.43591380002908,0.45,1.1,0.2,1.05,4.099638100015,"left_right_width"
1,2.4,3,1,0.4,"match",28,2,1.48601699993014,0.1,1.6,0.1,1.6,6.8332631001249,"left_right_width"
1,3.05,3,1.4,0.25,"match",29,2,1.88911109999754,0.35,1.6,0.35,2.3,2.02183849993162,"left_right_width"
1,2.1,3,1,0.1,"match",30,2,0.89626509998925,0.25,1.6,0.1,1.9,1.74080240004696,"left_right_width"
1,1.9,4,0.5,0.4,"initial",31,3,1.0900583001785,0.45,1.1,0.45,0.7,2.1024533000309,"left_right_width"
1,2.2,3,0.9,0.4,"initial",32,2,0.948319799965248,0.3,1.6,0.3,0.6,2.63158619985916,"left_right_width"
1,1.9,3,0.9,0.1,"initial",33,2,1.02499050018378,0.4,1.6,0.4,1.5,8.72643499984406,"left_right_width"
1,2.2,5,0.525,0.1,"match",34,4,1.05820259987377,0.25,0.3,0.25,0.6,3.54257460008375,"left_right_width"
1,3.7,3,1.8,0.1,"match",35,2,0.911014300072566,0.25,1.6,0.15,2.3,3.04966319981031,"left_right_width"
1,2.4,5,0.5,0.4,"initial",36,5,1.63953849999234,0.15,0.5,0.25,0.5,2.18402149993926,"left_right_width"
1,2.2,4,0.7,0.1,"initial",37,3,0.926837099948898,0.3,0.9,0.2,0.9,2.34432159992866,"left_right_width"
1,3.1,4,0.9,0.4,"initial",38,3,1.16296890005469,0.45,0.6,0.45,0.95,1.932104999898,"left_right_width"
1,2.8,4,0.9,0.1,"initial",39,3,0.752923199906945,0.35,1.2,0.15,1.2,2.22592979995534,"left_right_width"
1,2.35,4,0.7,0.25,"initial",40,3,0.960859100101516,0.1,0.6,0.25,0.8,2.32710710004903,"left_right_width"
1,1.8,4,0.466666666666667,0.4,"match",41,3,1.84868549997918,0.1,0.4,0.6,1.05,13.2754443001468,"left_right_width"
1,2.35,5,0.525,0.25,"match",42,4,7.03741049999371,0.4,0.6,0.4,0.6,0.850450500147417,"left_right_width"
1,1.75,4,0.5,0.25,"initial",43,3,1.33540269988589,0.45,0.7,0.45,0.7,0.783367699943483,"left_right_width"
1,1.25,4,0.333333333333333,0.25,"match",44,3,1.03199260006659,0.25,0.7,0.25,0.45,2.08031210000627,"left_right_width"
1,1.9,4,0.6,0.1,"match",45,3,0.721586300060153,0.35,0.9,0.1,0.75,2.3413903999608,"left_right_width"
1,1.8,3,0.7,0.4,"initial",46,2,11.8863528000657,0.3,1.6,0.3,0.8,3.08842419995926,"left_right_width"
1,1.25,3,0.5,0.25,"initial",47,2,0.701999900164083,0.4,1.6,0.4,0.7,2.52908330014907,"left_right_width"
1,2.05,4,0.6,0.25,"match",48,3,0.716263600159436,0.15,0.4,0.3,0.6,1.98000430013053,"left_right_width"
1,2.25,5,0.5,0.25,"initial",49,4,1.01010549999774,0.2,1.1,0.2,0.5,2.20116410008632,"left_right_width"
1,1.75,5,0.375,0.25,"match",50,4,0.855460699880496,0.1,0.4,0.25,0.4,4.40586899989285,"left_right_width"
1,1.6,4,0.5,0.1,"initial",51,3,1.10477350000292,0.25,0.9,0.1,0.9,2.68950690003112,"left_right_width"
1,3.85,3,1.8,0.25,"match",52,2,0.644707199884579,0.15,1.6,0.3,1.7,2.07397069991566,"left_right_width"
1,2.9,3,1.4,0.1,"match",53,2,1.0011136000976,0.4,1.6,0.0500000000000001,1.6,2.84698190004565,"left_right_width"
1,3.05,5,0.7,0.25,"initial",0,4,0.868894800078124,0.4,0.6,0.25,0.6,1.89495510002598,"left_right_width"
1,1.4,4,0.383333333333333,0.25,"match",1,3,0.673416200093925,0.3,1.3,0.3,0.55,3.90995200001635,"left_right_width"
1,2.4,5,0.5,0.4,"initial",2,4,0.981913499999791,0.45,1.3,0.45,0.6,2.28675279999152,"left_right_width"
1,1.6,5,0.375,0.1,"match",3,4,0.927030599908903,0.3,0.4,0.1,0.4,5.51326659996994,"left_right_width"
1,1.65,3,0.7,0.25,"initial",4,2,1.19295209995471,0.4,1.6,0.4,0.7,3.28905860008672,"left_right_width"
1,1.25,3,0.5,0.25,"initial",5,2,1.0516876000911,0.1,1.6,0.1,0.6,3.68135179998353,"left_right_width"
1,2.4,3,1,0.4,"match",6,2,0.752250500023365,0.15,1.6,0.5,1.6,3.26489160000347,"left_right_width"
1,2.1,3,1,0.1,"match",7,2,0.983394700102508,0.4,1.6,0.1,1.6,2.22377280006185,"left_right_width"
1,1.9,4,0.6,0.1,"match",8,4,1.19077989994548,0.3,0.8,0.1,0.8,2.78925989987329,"left_right_width"
1,2.8,5,0.675,0.1,"match",9,4,1.07085500005633,0.3,1.3,0.1,1.3,3.80634339991957,"left_right_width"
1,2.95,4,0.9,0.25,"initial",10,4,1.89864509995095,0.15,0.9,0.25,0.9,1.40261629992165,"left_right_width"
1,4,5,0.9,0.4,"initial",11,4,0.702133999904618,0.4,0.8,0.4,1,2.01390799996443,"left_right_width"
1,3.2,3,1.475,0.25,"match",12,2,1.05675700004213,0.2,1.6,0.2,1.6,1.42669059988111,"left_right_width"
1,4,3,1.8,0.4,"match",13,2,0.808936199871823,0.35,1.6,0.4,2.3,2.18408509995788,"left_right_width"
1,3.85,5,0.9,0.25,"initial",14,4,1.02074010018259,0.1,0.4,0.25,1.2,5.79475579992868,"left_right_width"
1,1.5,3,0.7,0.1,"initial",15,3,1.36169059993699,0.3,0.8,0.1,0.75,2.32671499997377,"left_right_width"
1,2.2,3,0.9,0.4,"initial",16,3,1.50753719988279,0.1,0.7,0.35,0.7,2.24551589996554,"left_right_width"
1,1.9,5,0.4125,0.25,"match",17,4,0.904919800115749,0.3,0.9,0.3,0.5,1.84292449988425,"left_right_width"
1,2.95,5,0.675,0.25,"match",18,4,1.10622580000199,0.25,0.5,0.25,0.7,1.82942750002258,"left_right_width"
1,2.5,4,0.7,0.4,"initial",19,4,1.94017529999837,0.45,1,0.3,0.6,3.1579352999106,"left_right_width"
1,1.4,3,0.5,0.4,"initial",20,2,4.8415190000087,0.2,1.6,0.3,1.2,4.98350739991292,"left_right_width"
1,2.5,5,0.525,0.4,"match",21,4,1.01598869985901,0.4,0.9,0.4,0.5,3.26275100000203,"left_right_width"
1,1.1,3,0.5,0.1,"initial",22,2,1.19879259984009,0.25,1.6,0.15,0.7,3.17958409991115,"left_right_width"
1,1.1,4,0.333333333333333,0.1,"match",23,4,1.7456625001505,0.3,0.4,0.1,0.4,3.28990060021169,"left_right_width"
1,1.9,4,0.5,0.4,"initial",24,4,0.755807699868456,0.45,1.1,0.4,0.5,10.9478768999688,"left_right_width"
1,2.1,5,0.5,0.1,"initial",25,5,1.48888020007871,0.4,1.3,0.0999999999999999,0.7,5.71660079993308,"left_right_width"
1,2.05,3,0.9,0.25,"initial",26,3,1.26433349982835,0.2,1,0.2,1.05,1.19718150002882,"left_right_width"
1,1.5,4,0.466666666666667,0.1,"match",27,3,1.09766509989277,0.4,1.2,0.15,0.75,2.73241749987938,"left_right_width"
1,3.1,4,0.9,0.4,"initial",28,4,1.18030630005524,0.1,0.8,0.4,0.8,2.04535129992291,"left_right_width"
1,2.25,3,1,0.25,"match",29,2,0.784855100093409,0.4,1.6,0.4,1.6,0.753606099868193,"left_right_width"
1,1.6,4,0.5,0.1,"initial",30,3,1.05146989994682,0.15,0.8,0.15,0.85,0.849959900137037,"left_right_width"
1,3.2,5,0.7,0.4,"initial",31,4,1.03144120005891,0.1,1.1,0.3,1,15.3079790000338,"left_right_width"
1,3.05,3,1.4,0.25,"match",32,2,0.805520500056446,0.25,1.6,0.25,2.2,1.45949209993705,"left_right_width"
1,3.1,5,0.675,0.4,"match",33,4,0.828279400011525,0.4,0.6,0.4,0.8,0.922120099887252,"left_right_width"
1,2.25,5,0.5,0.25,"initial",34,4,0.8917612999212,0.15,0.6,0.35,0.6,1.46004400006495,"left_right_width"
1,2.9,3,1.4,0.1,"match",35,2,0.655034400057048,0.4,1.6,0.1,1.7,2.25975049985573,"left_right_width"
1,1.25,4,0.333333333333333,0.25,"match",36,4,1.0897859998513,0.1,1.2,0.3,0.4,6.13426150009036,"left_right_width"
1,3.7,3,1.8,0.1,"match",37,3,0.903932499932125,0.15,1.1,0.15,1.4,1.80962439998984,"left_right_width"
1,2.35,4,0.7,0.25,"initial",38,3,0.800813599955291,0.15,0.5,0.25,0.8,1.98443000018597,"left_right_width"
1,2.35,5,0.525,0.25,"match",39,4,1.35352299991064,0.1,0.3,0.1,0.5,2.3722529001534,"left_right_width"
1,3.7,5,0.9,0.1,"initial",40,4,0.964406599989161,0.1,1.1,0.1,1.1,0.680065599968657,"left_right_width"
1,2.2,4,0.6,0.4,"match",41,4,0.927090200129896,0.45,0.5,0.45,0.7,1.49723520013504,"left_right_width"
1,1.8,3,0.7,0.4,"initial",42,2,0.735107399988919,0.1,1.6,0.55,1.6,3.27896089991555,"left_right_width"
1,2.9,5,0.7,0.1,"initial",43,4,1.00886949989945,0.1,0.4,0.1,0.8,2.7580864999909,"left_right_width"
1,2.05,4,0.6,0.25,"match",44,4,2.99364590016194,0.35,0.9,0.25,0.9,3.6570682998281,"left_right_width"
1,1.8,4,0.466666666666667,0.4,"match",45,3,1.6952795998659,0.2,0.9,0.25,0.4,5.03494079993106,"left_right_width"
1,2.8,4,0.9,0.1,"initial",46,3,1.42545099998824,0.2,1.3,0.1,1.3,1.25677730003372,"left_right_width"
1,3.85,3,1.8,0.25,"match",47,2,0.843959699850529,0.15,1.6,0.3,2.1,1.92919990001246,"left_right_width"
1,1.75,4,0.5,0.25,"initial",48,3,0.81443229992874,0.3,0.4,0.3,0.5,1.35425990005024,"left_right_width"
1,1.9,3,0.9,0.1,"initial",49,2,0.706817799946293,0.35,1.6,0.1,1.6,2.05080730002373,"left_right_width"
1,1.75,5,0.375,0.25,"match",50,4,1.02068299986422,0.4,0.7,0.4,0.5,1.07477940013632,"left_right_width"
1,1.65,4,0.466666666666667,0.25,"match",51,3,1.09169269981794,0.3,0.8,0.3,0.45,1.81580520002171,"left_right_width"
1,2.2,4,0.7,0.1,"initial",52,4,0.736957800108939,0.4,0.8,0.0500000000000001,0.8,1.79512130003422,"left_right_width"
1,2.2,5,0.525,0.1,"match",53,4,0.723643299890682,0.45,0.5,0.0500000000000001,0.5,2.26205290015787,"left_right_width"
1,1.8,3,0.7,0.4,"initial",0,2,2.33178960019723,0.45,1.6,0.2,1.6,2.2181216001045,"left_right_width"
1,1.65,4,0.466666666666667,0.25,"match",1,3,2.1828345998656,0.3,1.3,0.15,1.1,2.95936520001851,"left_right_width"
1,1.4,4,0.383333333333333,0.25,"match",2,3,1.71359579986893,0.15,0.3,0.25,0.4,2.09063039999455,"left_right_width"
1,1.25,3,0.5,0.25,"initial",3,2,0.650913299992681,0.4,1.6,0.3,0.8,2.67264449992217,"left_right_width"
1,3.05,3,1.4,0.25,"match",4,3,0.907536499900743,0.45,0.9,0.25,0.9,1.74818070000038,"left_right_width"
1,2.5,4,0.7,0.4,"initial",5,3,0.902868300210685,0.15,0.7,0.4,0.7,1.71189169981517,"left_right_width"
1,3.1,4,0.9,0.4,"initial",6,4,0.901935199974105,0.35,0.5,0.35,0.8,1.13652719999664,"left_right_width"
1,1.8,4,0.466666666666667,0.4,"match",7,3,1.37571789999492,0.15,0.4,0.35,0.45,1.78334860014729,"left_right_width"
1,4,5,0.9,0.4,"initial",8,4,0.768798799952492,0.2,1.3,0.45,1.3,1.56670639989898,"left_right_width"
1,1.9,3,0.9,0.1,"initial",9,2,0.731053899973631,0.1,1.6,0.1,1.6,0.796896700048819,"left_right_width"
1,2.35,5,0.525,0.25,"match",10,4,0.81559420004487,0.1,0.3,0.2,0.5,2.09460989991203,"left_right_width"
1,3.7,3,1.8,0.1,"match",11,2,0.861227799905464,0.2,1.6,0.1,1.7,2.05692539992742,"left_right_width"
1,3.05,5,0.7,0.25,"initial",12,4,1.1556910998188,0.45,0.9,0.3,0.9,1.42991150007583,"left_right_width"
1,2.2,4,0.7,0.1,"initial",13,3,1.11559890001081,0.1,1.1,0.1,1.1,0.606727699982002,"left_right_width"
1,2.2,4,0.6,0.4,"match",14,3,0.808160799788311,0.1,0.8,0.35,0.8,1.78364349994808,"left_right_width"
1,1.65,3,0.7,0.25,"initial",15,2,1.30809090007097,0.35,1.6,0.35,1.1,1.94187949993648,"left_right_width"
1,2.9,5,0.7,0.1,"initial",16,4,1.00768499984406,0.15,0.3,0.15,0.8,1.44364389986731,"left_right_width"
1,2.1,5,0.5,0.1,"initial",17,5,0.885543500073254,0.2,1,0.2,1,0.62522489996627,"left_right_width"
1,1.75,4,0.5,0.25,"initial",18,3,0.826255700085312,0.1,0.8,0.3,0.8,1.4650606000796,"left_right_width"
1,1.5,3,0.7,0.1,"initial",19,2,0.814773899968714,0.15,1.6,0.1,1.1,1.83893369999714,"left_right_width"
1,3.85,5,0.9,0.25,"initial",20,4,0.996481199981645,0.45,1.3,0.25,1.2,1.64516760013066,"left_right_width"
1,3.1,5,0.675,0.4,"match",21,4,1.1699806000106,0.15,1.3,0.45,1.3,1.69872119999491,"left_right_width"
1,2.4,5,0.5,0.4,"initial",22,4,1.50917969993316,0.3,0.5,0.4,0.5,1.27267799992114,"left_right_width"
1,2.25,5,0.5,0.25,"initial",23,4,0.871759600006044,0.25,0.3,0.35,0.7,3.47561650001444,"left_right_width"
1,1.1,4,0.333333333333333,0.1,"match",24,4,0.906916599953547,0.2,0.5,0.2,0.3,8.21336840000004,"left_right_width"
1,1.1,3,0.5,0.1,"initial",25,2,0.831963200122118,0.25,1.6,0.1,1,1.70993260014802,"left_right_width"
1,2.1,3,1,0.1,"match",26,2,0.977818399900571,0.3,1.6,0.1,1.6,1.22616429999471,"left_right_width"
1,3.7,5,0.9,0.1,"initial",27,4,0.996681400109082,0.45,1.2,0.1,1.2,1.72620459995233,"left_right_width"
1,2.35,4,0.7,0.25,"initial",28,3,1.03977499995381,0.4,1.1,0.4,1.1,0.786258799955249,"left_right_width"
1,1.9,5,0.4125,0.25,"match",29,4,1.10976170003414,0.25,0.6,0.25,0.6,0.856216100044549,"left_right_width"
1,1.6,4,0.5,0.1,"initial",30,3,1.05416150018573,0.25,1,0.15,1,3.47491590003483,"left_right_width"
1,2.2,3,0.9,0.4,"initial",31,2,0.862379299942404,0.25,1.6,0.35,1.6,1.50164679996669,"left_right_width"
1,3.2,5,0.7,0.4,"initial",32,4,1.01386710000224,0.3,0.4,0.3,0.7,1.06606990005821,"left_right_width"
1,1.6,5,0.375,0.1,"match",33,4,0.958579699974507,0.2,0.4,0.2,0.4,0.834782300051302,"left_right_width"
1,2.05,4,0.6,0.25,"match",34,4,0.918311100220308,0.25,0.6,0.25,0.6,0.656967099988833,"left_right_width"
1,1.4,3,0.5,0.4,"initial",35,2,0.974973100004718,0.45,1.6,0.45,0.6,2.32717909989879,"left_right_width"
1,2.25,3,1,0.25,"match",36,2,0.800193400122225,0.3,1.6,0.3,1.6,0.559316399972886,"left_right_width"
1,2.2,5,0.525,0.1,"match",37,4,0.751492700073868,0.1,1.2,0.1,0.9,1.39328359998763,"left_right_width"
1,2.95,5,0.675,0.25,"match",38,4,1.03955029998906,0.1,1.2,0.25,0.9,1.78208279982209,"left_right_width"
1,3.85,3,1.8,0.25,"match",39,3,0.915994199924171,0.2,0.5,0.2,1.1,2.83120390004478,"left_right_width"
1,2.8,5,0.675,0.1,"match",40,4,0.918495200108737,0.25,1.1,0.05,1,1.80856320005842,"left_right_width"
1,1.5,4,0.466666666666667,0.1,"match",41,3,0.874401599867269,0.35,0.7,0.1,0.7,1.59144430002198,"left_right_width"
1,2.5,5,0.525,0.4,"match",42,3,0.985018600011244,0.25,0.9,0.55,0.7,4.3368939999491,"left_right_width"
1,1.9,4,0.6,0.1,"match",43,4,0.956630300031975,0.3,0.4,0.15,0.5,3.81459359987639,"left_right_width"
1,2.8,4,0.9,0.1,"initial",44,4,1.14131490001455,0.1,1.1,0.1,1.1,0.822294800076634,"left_right_width"
1,1.75,5,0.375,0.25,"match",45,4,0.891648099990562,0.3,1.3,0.3,0.4,3.52623870014213,"left_right_width"
1,3.2,3,1.475,0.25,"match",46,3,1.12030049995519,0.25,0.6,0.25,0.55,8.03412920003757,"left_right_width"
1,2.05,3,0.9,0.25,"initial",47,2,0.921746300067753,0.25,1.6,0.25,1.6,0.581948600010946,"left_right_width"
1,1.25,4,0.333333333333333,0.25,"match",48,3,1.81307350005955,0.35,1,0.35,0.6,2.97127339988947,"left_right_width"
1,2.9,3,1.4,0.1,"match",49,2,0.653581199934706,0.4,1.6,0.1,1.6,1.66657410003245,"left_right_width"
1,4,3,1.8,0.4,"match",50,3,0.848566399887204,0.35,0.6,0.35,1.1,2.37574839987792,"left_right_width"
1,1.9,4,0.5,0.4,"initial",51,3,0.73174410010688,0.4,0.9,0.4,0.5,2.02983330003917,"left_right_width"
1,2.4,3,1,0.4,"match",52,2,0.868424599990249,0.15,1.6,0.45,1.6,1.83737790002488,"left_right_width"
1,2.95,4,0.9,0.25,"initial",53,4,1.02421179995872,0.25,0.9,0.25,0.9,0.643964200047776,"left_right_width"
10,1.9,4,0.6,0.1,"match",0,4,2.51947049994487,0.45,0.6,0.1,0.6,10.1588341000024,"up_down_width"
10,1.1,3,0.5,0.1,"initial",1,3,2.36933110002428,0.25,0.9,0.1,0.8,13.8079316000221,"up_down_width"
10,1.65,4,0.466666666666667,0.25,"match",2,4,6.04166470002383,0.15,0.3,0.15,0.5,5.47676489991136,"up_down_width"
10,1.9,3,0.9,0.1,"initial",3,3,2.41426210000645,0.2,1,0.1,1,6.28526679996867,"up_down_width"
10,2.2,4,0.7,0.1,"initial",4,4,1.73018100007903,0.15,0.5,0.1,0.6,6.69730410003103,"up_down_width"
10,1.25,4,0.333333333333333,0.25,"match",5,4,2.00638260005508,0.2,0.9,0.2,0.6,5.23714230000041,"up_down_width"
10,1.4,4,0.383333333333333,0.25,"match",6,4,3.46773669996765,0.15,0.9,0.15,0.5,4.35236340004485,"up_down_width"
10,2.4,5,0.5,0.4,"initial",7,4,3.21091479994357,0.35,1.1,0.35,0.8,10.8420508999843,"up_down_width"
10,2.8,5,0.675,0.1,"match",8,5,3.04828079999425,0.15,1,0.15,0.7,7.8696881000651,"up_down_width"
10,2.2,3,0.9,0.4,"initial",9,3,2.72562949999701,0.25,0.7,0.25,0.95,4.69318619999103,"up_down_width"
10,3.7,5,0.9,0.1,"initial",10,5,2.04986149992328,0.35,0.5,0.15,0.7,8.59801840002183,"up_down_width"
10,1.25,3,0.5,0.25,"initial",11,3,2.29840179998428,0.45,1.3,0.25,0.9,11.3414929000428,"up_down_width"
10,1.1,4,0.333333333333333,0.1,"match",12,4,3.97538640000857,0.3,0.4,0.15,0.4,5.71972880000249,"up_down_width"
10,3.7,3,1.8,0.1,"match",13,3,2.45826569991186,0.35,1.3,0.15,1.5,7.55888060003053,"up_down_width"
10,2.8,4,0.9,0.1,"initial",14,4,1.87232699990273,0.2,0.6,0.1,1.2,5.15574299998116,"up_down_width"
10,1.65,3,0.7,0.25,"initial",15,3,2.55109399999492,0.35,1.3,0.2,1.3,4.73307379998732,"up_down_width"
10,1.9,5,0.4125,0.25,"match",16,5,1.62704390008003,0.35,1,0.15,0.95,10.7451274999185,"up_down_width"
10,2.1,5,0.5,0.1,"initial",17,4,2.54040599998552,0.45,0.6,0.2,0.7,6.86987579998095,"up_down_width"
10,2.35,4,0.7,0.25,"initial",18,5,2.72416950005572,0.2,0.9,0.2,0.85,7.41439320007339,"up_down_width"
10,2.9,3,1.4,0.1,"match",19,3,2.17508770001587,0.2,0.8,0.15,1.15,12.3859243000625,"up_down_width"
10,1.5,4,0.466666666666667,0.1,"match",20,4,1.78023260005284,0.45,0.8,0.1,0.8,15.7877023000037,"up_down_width"
10,3.2,5,0.7,0.4,"initial",21,4,2.92574350000359,0.3,1.3,0.25,0.6,6.54968259995803,"up_down_width"
10,2.2,4,0.6,0.4,"match",22,4,2.59641960007139,0.45,0.8,0.45,0.7,3.25881490006577,"up_down_width"
10,2.95,5,0.675,0.25,"match",23,5,1.67568129999563,0.25,0.8,0.25,0.55,5.43229489994701,"up_down_width"
10,2.5,5,0.525,0.4,"match",24,5,2.56444870005362,0.45,0.8,0.45,0.65,4.09296689997427,"up_down_width"
10,1.75,4,0.5,0.25,"initial",25,4,2.56070289993659,0.4,1.2,0.4,0.7,2.62104730005376,"up_down_width"
10,2.25,3,1,0.25,"match",26,3,3.16971009992994,0.15,1.3,0.45,0.85,13.0399678999092,"up_down_width"
10,3.2,3,1.475,0.25,"match",27,3,2.11574809998274,0.25,1.2,0.3,1.3,4.65369069995359,"up_down_width"
10,2.05,4,0.6,0.25,"match",28,4,3.06110990000889,0.25,0.7,0.25,0.7,1.27368159999605,"up_down_width"
10,2.95,4,0.9,0.25,"initial",29,4,1.49159310001414,0.25,0.6,0.2,1,4.26343910000287,"up_down_width"
10,2.1,3,1,0.1,"match",30,3,1.92992989998311,0.45,0.5,0.2,0.85,6.36224809999112,"up_down_width"
10,1.4,3,0.5,0.4,"initial",31,3,2.63116730004549,0.2,1,0.55,0.7,12.380613300018,"up_down_width"
10,1.8,3,0.7,0.4,"initial",32,3,2.02011669997592,0.25,0.9,0.45,0.7,8.27192389999982,"up_down_width"
10,2.05,3,0.9,0.25,"initial",33,3,2.23158619995229,0.2,0.6,0.4,0.95,7.37294370005839,"up_down_width"
10,4,3,1.8,0.4,"match",34,3,1.85490660008509,0.3,1.1,0.55,1.6,7.17124669998884,"up_down_width"
10,1.9,4,0.5,0.4,"initial",35,3,2.00540609995369,0.1,1,0.8,1,7.08742220001295,"up_down_width"
10,4,5,0.9,0.4,"initial",36,5,1.79176200006623,0.45,1.1,0.35,0.7,6.70866759994533,"up_down_width"
10,1.5,3,0.7,0.1,"initial",37,3,1.98696999996901,0.4,0.9,0.15,0.9,9.07540490000974,"up_down_width"
10,2.2,5,0.525,0.1,"match",38,4,1.91958220000379,0.1,1.3,0.05,0.6,10.3519757000031,"up_down_width"
10,1.75,5,0.375,0.25,"match",39,4,1.85014200001024,0.25,0.4,0.2,0.4,5.12262709997594,"up_down_width"
10,3.05,3,1.4,0.25,"match",40,4,2.36377920000814,0.45,1.3,0.25,0.9,5.08255200006533,"up_down_width"
10,2.4,3,1,0.4,"match",41,3,2.89938580000307,0.4,0.5,0.25,0.6,7.87087969994172,"up_down_width"
10,2.5,4,0.7,0.4,"initial",42,4,2.54472929995973,0.15,1.1,0.5,0.7,5.20726509997621,"up_down_width"
10,2.35,5,0.525,0.25,"match",43,5,1.54315370006952,0.1,0.6,0.25,0.55,4.79310199990869,"up_down_width"
10,3.85,5,0.9,0.25,"initial",44,5,1.76505679998081,0.35,1.1,0.25,0.95,4.51002070005052,"up_down_width"
10,1.6,5,0.375,0.1,"match",45,5,1.64393619995099,0.15,0.7,0.15,0.6,4.08610199997202,"up_down_width"
10,1.8,4,0.466666666666667,0.4,"match",46,4,1.48494599992409,0.1,1,0.4,0.6,7.93423159990925,"up_down_width"
10,2.25,5,0.5,0.25,"initial",47,5,2.06303179997485,0.2,0.5,0.2,0.5,2.49089490005281,"up_down_width"
10,1.6,4,0.5,0.1,"initial",48,4,2.44835680001415,0.25,0.6,0.1,0.6,6.30309010006022,"up_down_width"
10,3.85,3,1.8,0.25,"match",49,3,2.12212239997461,0.45,0.5,0.1,1.05,11.427823200007,"up_down_width"
10,3.1,5,0.675,0.4,"match",50,4,1.42212090000976,0.15,1.2,0.25,0.9,5.31791089999024,"up_down_width"
10,2.9,5,0.7,0.1,"initial",51,5,2.51438180007972,0.25,1.1,0.1,0.85,6.09039060003124,"up_down_width"
10,3.1,4,0.9,0.4,"initial",52,4,1.65745060006157,0.3,0.4,0.2,0.9,6.32424320001155,"up_down_width"
10,3.05,5,0.7,0.25,"initial",53,5,1.61542379995808,0.3,1,0.2,0.85,4.04351809993386,"up_down_width"
10,1.65,4,0.466666666666667,0.25,"match",0,4,1.5402150999289,0.25,1.1,0.2,0.5,4.70665369997732,"up_down_width"
10,2.95,4,0.9,0.25,"initial",1,5,1.79988619999494,0.45,0.7,0.25,0.65,5.39210739999544,"up_down_width"
10,1.4,3,0.5,0.4,"initial",2,4,2.22343869996257,0.35,1.2,0.35,0.6,5.23944329994265,"up_down_width"
10,4,5,0.9,0.4,"initial",3,5,1.53684790001716,0.15,1.1,0.5,0.95,5.37841000000481,"up_down_width"
10,1.8,4,0.466666666666667,0.4,"match",4,4,2.13178289995994,0.2,0.3,0.6,0.7,12.4782150000101,"up_down_width"
10,2.25,5,0.5,0.25,"initial",5,5,1.82096749998163,0.35,0.8,0.25,0.5,5.95355209999252,"up_down_width"
10,2.1,3,1,0.1,"match",6,3,2.66382879996672,0.3,0.4,0.05,0.65,5.64268239994999,"up_down_width"
10,3.85,3,1.8,0.25,"match",7,3,2.69885970000178,0.45,0.5,0.15,0.95,7.82095409999602,"up_down_width"
10,1.6,5,0.375,0.1,"match",8,4,2.37990660010837,0.25,0.6,0.2,0.8,4.42679659998976,"up_down_width"
10,2.5,4,0.7,0.4,"initial",9,4,1.38344439992215,0.3,0.6,0.45,0.7,4.1216244000243,"up_down_width"
10,1.6,4,0.5,0.1,"initial",10,4,2.41126309998799,0.3,0.6,0.3,0.7,4.95166180003434,"up_down_width"
10,2.35,4,0.7,0.25,"initial",11,4,1.36637190007605,0.4,1.3,0.2,0.7,4.15983259992208,"up_down_width"
10,2.2,4,0.6,0.4,"match",12,5,2.19774360000156,0.45,0.8,0.2,0.65,4.9196677999571,"up_down_width"
10,1.1,4,0.333333333333333,0.1,"match",13,4,1.54026839998551,0.4,0.7,0.15,0.8,7.11050409998279,"up_down_width"
10,1.5,4,0.466666666666667,0.1,"match",14,4,1.48374739999417,0.3,0.5,0.1,0.8,6.86374400008935,"up_down_width"
10,3.05,5,0.7,0.25,"initial",15,2,1.78983210003935,0.3,1.6,0.2,1.5,4.11603619996458,"up_down_width"
10,1.1,3,0.5,0.1,"initial",16,3,1.44929920008872,0.3,0.4,0.15,0.85,6.87854989990592,"up_down_width"
10,1.8,3,0.7,0.4,"initial",17,3,1.90765770000871,0.25,1,0.5,1,3.60421100002714,"up_down_width"
10,1.9,4,0.6,0.1,"match",18,4,2.37427070003469,0.3,0.6,0.1,0.6,4.51886469998863,"up_down_width"
10,2.2,5,0.525,0.1,"match",19,5,1.48640239995439,0.2,0.3,0.05,0.45,3.55203979997896,"up_down_width"
10,2.95,5,0.675,0.25,"match",20,5,1.86622949992307,0.15,0.7,0.25,0.7,2.78351009998005,"up_down_width"
10,3.1,5,0.675,0.4,"match",21,5,1.94465920003131,0.35,1.2,0.2,0.5,8.9859032999957,"up_down_width"
10,4,3,1.8,0.4,"match",22,2,1.57680179993622,0.2,1.6,0.5,1.8,7.29870199994184,"up_down_width"
10,3.05,3,1.4,0.25,"match",23,2,2.12962789996527,0.3,1.6,0.3,2.2,2.79487959994003,"up_down_width"
10,1.25,3,0.5,0.25,"initial",24,2,1.8063581000315,0.4,1.6,0.3,1.6,2.94811260001734,"up_down_width"
10,2.05,4,0.6,0.25,"match",25,3,2.01195369998459,0.15,0.9,0.2,0.9,5.25603960000444,"up_down_width"
10,3.2,5,0.7,0.4,"initial",26,4,1.13638969999738,0.4,0.8,0.3,0.7,4.88244920002762,"up_down_width"
10,2.9,3,1.4,0.1,"match",27,2,1.60709939990193,0.4,1.6,0.1,1.6,2.88347130001057,"up_down_width"
10,2.05,3,0.9,0.25,"initial",28,3,1.90687509998679,0.1,0.5,0.15,1,9.87630760006141,"up_down_width"
10,1.5,3,0.7,0.1,"initial",29,3,1.85275880002882,0.4,0.9,0.0500000000000001,0.95,6.20991620002314,"up_down_width"
10,1.9,4,0.5,0.4,"initial",30,4,2.43197270005476,0.45,1.2,0.25,0.4,7.03591750003397,"up_down_width"
10,2.4,5,0.5,0.4,"initial",31,4,1.40473820001353,0.1,1.1,0.4,0.6,5.50484010006767,"up_down_width"
10,1.25,4,0.333333333333333,0.25,"match",32,4,1.92380729992874,0.2,0.8,0.4,0.5,10.2142945999512,"up_down_width"
10,1.9,3,0.9,0.1,"initial",33,3,1.73155730008148,0.2,1.2,0.25,0.9,21.3578490000218,"up_down_width"
10,3.7,3,1.8,0.1,"match",34,3,1.86391309997998,0.35,0.5,0.1,1.25,6.76581320003606,"up_down_width"
10,3.85,5,0.9,0.25,"initial",35,5,1.21638540003914,0.3,1.1,0.25,1.1,5.58140260004438,"up_down_width"
10,1.75,4,0.5,0.25,"initial",36,4,1.39454589993693,0.1,0.4,0.2,0.5,5.49712820001878,"up_down_width"
10,2.8,4,0.9,0.1,"initial",37,4,1.8703185999766,0.2,0.8,0.15,0.7,4.17868130002171,"up_down_width"
10,2.2,4,0.7,0.1,"initial",38,5,1.47999679995701,0.3,0.7,0.1,0.6,4.2332313999068,"up_down_width"
10,1.75,5,0.375,0.25,"match",39,4,1.16124290006701,0.35,1.3,0.25,0.4,6.74386160005815,"up_down_width"
10,2.1,5,0.5,0.1,"initial",40,5,1.64598589995876,0.15,0.4,0.15,0.45,2.92336960008834,"up_down_width"
10,3.7,5,0.9,0.1,"initial",41,5,1.5619854000397,0.35,1.3,0.1,0.85,8.05811279988848,"up_down_width"
10,2.8,5,0.675,0.1,"match",42,5,1.67439989990089,0.3,1,0.1,0.9,5.44546810002066,"up_down_width"
10,1.4,4,0.383333333333333,0.25,"match",43,4,1.12910869996995,0.45,1.1,0.35,0.6,8.18447109998669,"up_down_width"
10,2.4,3,1,0.4,"match",44,3,1.86058999993838,0.3,0.7,0.5,0.7,4.61710509995464,"up_down_width"
10,1.9,5,0.4125,0.25,"match",45,4,1.54529560008086,0.35,0.5,0.5,0.7,6.98684419994242,"up_down_width"
10,1.65,3,0.7,0.25,"initial",46,3,1.82832099997904,0.2,0.5,0.55,0.95,8.2017640999984,"up_down_width"
10,2.9,5,0.7,0.1,"initial",47,5,1.26879789994564,0.3,0.6,0.15,0.85,5.58386340003926,"up_down_width"
10,2.25,3,1,0.25,"match",48,3,2.86841189989354,0.4,0.6,0.25,0.8,5.13519060006365,"up_down_width"
10,2.2,3,0.9,0.4,"initial",49,3,1.54185220005456,0.35,0.5,0.25,1,6.39153390005231,"up_down_width"
10,3.1,4,0.9,0.4,"initial",50,4,1.51774569996633,0.2,0.4,0.35,0.8,4.22229459998198,"up_down_width"
10,2.5,5,0.525,0.4,"match",51,5,1.86961280007381,0.25,1.3,0.25,0.45,6.29027430003043,"up_down_width"
10,3.2,3,1.475,0.25,"match",52,3,1.84850960003678,0.1,1.1,0.3,1.2,6.29928680008743,"up_down_width"
10,2.35,5,0.525,0.25,"match",53,4,1.43785170000046,0.15,0.6,0.15,0.6,4.7859419999877,"up_down_width"
10,2.05,3,0.9,0.25,"initial",0,3,1.49840970011428,0.2,0.7,0.2,1,4.12611279997509,"up_down_width"
10,2.35,5,0.525,0.25,"match",1,5,1.40311129996553,0.1,0.3,0.2,0.55,7.33012210007291,"up_down_width"
10,3.2,5,0.7,0.4,"initial",2,5,1.33704420004506,0.3,0.7,0.3,0.6,3.56901490001474,"up_down_width"
10,2.2,4,0.6,0.4,"match",3,4,1.29664580000099,0.15,1.1,0.2,0.9,5.33949209994171,"up_down_width"
10,2.9,3,1.4,0.1,"match",4,2,1.71439129998907,0.35,1.6,0.1,2.1,6.0941271999618,"up_down_width"
10,3.05,5,0.7,0.25,"initial",5,5,2.43352590000723,0.1,0.8,0.15,0.75,5.47285390004981,"up_down_width"
10,3.2,3,1.475,0.25,"match",6,2,1.35702350002248,0.4,1.6,0.15,2.1,5.06156389997341,"up_down_width"
10,2.5,4,0.7,0.4,"initial",7,4,1.36191430001054,0.35,1.1,0.25,0.6,4.426134700072,"up_down_width"
10,4,3,1.8,0.4,"match",8,3,1.878187000053,0.15,1.1,0.35,1.35,6.50675659999251,"up_down_width"
10,3.85,5,0.9,0.25,"initial",9,5,1.37495669990312,0.25,1.3,0.2,0.7,5.19063640001696,"up_down_width"
10,1.75,5,0.375,0.25,"match",10,4,1.34341740002856,0.3,0.9,0.3,0.5,2.49284630001057,"up_down_width"
10,2.1,5,0.5,0.1,"initial",11,5,1.58942679991014,0.4,0.7,0.2,0.45,6.68868030002341,"up_down_width"
10,2.05,4,0.6,0.25,"match",12,4,1.72977670002729,0.35,1.1,0.15,0.7,3.05146089999471,"up_down_width"
10,1.1,4,0.333333333333333,0.1,"match",13,5,2.13228409993462,0.3,1.3,0.15,0.55,5.6954878999386,"up_down_width"
10,1.9,5,0.4125,0.25,"match",14,5,1.24395640008152,0.15,1.1,0.15,0.5,6.58501669997349,"up_down_width"
10,2.25,3,1,0.25,"match",15,3,1.94605380005669,0.2,0.8,0.3,0.85,3.26000410004053,"up_down_width"
10,1.9,4,0.6,0.1,"match",16,3,2.08120219991542,0.1,0.4,0.1,0.75,7.40610570006538,"up_down_width"
10,1.9,3,0.9,0.1,"initial",17,3,1.49326269992162,0.2,0.7,0.1,0.85,4.87315760005731,"up_down_width"
10,1.9,4,0.5,0.4,"initial",18,4,1.89007299998775,0.35,1.1,0.25,0.4,3.97380070004147,"up_down_width"
10,1.8,3,0.7,0.4,"initial",19,3,1.59030580008402,0.15,0.8,0.45,0.65,10.1009412000421,"up_down_width"
10,1.4,3,0.5,0.4,"initial",20,3,2.44056770007592,0.35,0.4,0.35,0.5,3.25403169996571,"up_down_width"
10,2.8,5,0.675,0.1,"match",21,5,2.63445390004199,0.45,1.2,0.1,0.75,4.70434439997189,"up_down_width"
10,2.95,4,0.9,0.25,"initial",22,4,1.7816192000173,0.3,0.5,0.1,0.8,3.43627539998852,"up_down_width"
10,2.2,3,0.9,0.4,"initial",23,3,1.568364799954,0.25,0.6,0.15,0.95,5.64977739995811,"up_down_width"
10,4,5,0.9,0.4,"initial",24,5,2.71515860001091,0.3,0.4,0.4,0.85,6.94173290010076,"up_down_width"
10,1.75,4,0.5,0.25,"initial",25,4,1.6649264000589,0.3,0.6,0.35,0.8,2.68600920005701,"up_down_width"
10,1.4,4,0.383333333333333,0.25,"match",26,4,1.15057850000449,0.35,1.1,0.3,0.5,3.48788439994678,"up_down_width"
10,2.2,4,0.7,0.1,"initial",27,4,1.23917279997841,0.2,1.3,0.15,0.8,3.31542550004087,"up_down_width"
10,3.05,3,1.4,0.25,"match",28,3,1.76081849995535,0.2,1.3,0.2,1.3,1.57847209996544,"up_down_width"
10,1.65,4,0.466666666666667,0.25,"match",29,4,1.15848590002861,0.4,1.1,0.25,0.7,3.22077280003577,"up_down_width"
10,1.6,5,0.375,0.1,"match",30,5,1.34728400001768,0.15,1.2,0.15,0.85,5.37413109990302,"up_down_width"
10,2.25,5,0.5,0.25,"initial",31,5,1.82535249995999,0.25,1.2,0.2,0.7,6.32497260009404,"up_down_width"
10,1.5,4,0.466666666666667,0.1,"match",32,4,1.63493099994957,0.35,1.3,0.15,0.7,5.00651360000484,"up_down_width"
10,2.4,5,0.5,0.4,"initial",33,5,2.26705090003088,0.1,0.8,0.5,0.65,5.59956259990577,"up_down_width"
10,1.6,4,0.5,0.1,"initial",34,4,1.19648819998838,0.4,1.1,0.1,0.9,4.82900590007193,"up_down_width"
10,3.85,3,1.8,0.25,"match",35,4,2.66699109994806,0.15,0.5,0.15,1,2.06114050000906,"up_down_width"
10,1.8,4,0.466666666666667,0.4,"match",36,4,1.06195210001897,0.25,0.8,0.4,0.5,3.6579078999348,"up_down_width"
10,1.5,3,0.7,0.1,"initial",37,3,2.22871589998249,0.25,1.2,0.1,0.9,3.43579929997213,"up_down_width"
10,2.4,3,1,0.4,"match",38,3,1.74178600008599,0.15,0.7,0.25,0.9,3.40017919999082,"up_down_width"
10,2.35,4,0.7,0.25,"initial",39,4,1.24793829990085,0.1,0.4,0.15,0.7,3.30702340009157,"up_down_width"
10,2.1,3,1,0.1,"match",40,3,2.37930050003342,0.3,0.5,0.25,0.5,4.24897810001858,"up_down_width"
10,1.1,3,0.5,0.1,"initial",41,3,1.73577699996531,0.3,0.6,0.15,0.7,2.81726290006191,"up_down_width"
10,2.2,5,0.525,0.1,"match",42,4,1.1909636000637,0.15,1.2,0.15,0.8,3.92509649996646,"up_down_width"
10,1.25,3,0.5,0.25,"initial",43,3,1.73965010000393,0.3,0.4,0.2,0.55,4.24614139995538,"up_down_width"
10,2.8,4,0.9,0.1,"initial",44,4,0.891599599970505,0.15,0.7,0.15,1.2,2.95116030005738,"up_down_width"
10,3.1,4,0.9,0.4,"initial",45,5,1.49046480003744,0.3,0.9,0.4,0.9,2.99691480002366,"up_down_width"
10,1.65,3,0.7,0.25,"initial",46,3,1.46630169998389,0.2,0.3,0.35,1.05,5.31030390004162,"up_down_width"
10,3.7,5,0.9,0.1,"initial",47,4,1.3932120000245,0.15,0.3,0.15,1,2.5673788000131,"up_down_width"
10,1.25,4,0.333333333333333,0.25,"match",48,4,2.09846180002205,0.1,1.1,0.2,0.4,3.16349810000975,"up_down_width"
10,3.1,5,0.675,0.4,"match",49,5,1.16014890000224,0.2,1,0.25,0.6,5.08176180010196,"up_down_width"
10,2.5,5,0.525,0.4,"match",50,5,1.18391909997445,0.2,0.6,0.35,0.5,6.28926760004833,"up_down_width"
10,2.9,5,0.7,0.1,"initial",51,5,1.98114869999699,0.35,1,0.25,0.5,3.88630739995278,"up_down_width"
10,3.7,3,1.8,0.1,"match",52,3,1.81034600001294,0.25,1,0.15,1,2.29766889999155,"up_down_width"
10,2.95,5,0.675,0.25,"match",53,6,1.83394109993242,0.15,0.8,0.1,0.4,2.47793459997047,"up_down_width"
10,2.05,4,0.6,0.25,"match",0,4,1.58647310000379,0.2,0.9,0.25,0.6,3.5064234000165,"up_down_width"
10,2.2,3,0.9,0.4,"initial",1,3,1.73570600000676,0.45,0.7,0.35,0.7,2.95686709997244,"up_down_width"
10,1.1,4,0.333333333333333,0.1,"match",2,4,1.22741370007861,0.2,1.2,0.15,0.6,2.71350389998406,"up_down_width"
10,4,5,0.9,0.4,"initial",3,6,1.53933800000232,0.4,1,0.2,0.8,3.62151560001075,"up_down_width"
10,3.85,5,0.9,0.25,"initial",4,5,1.56470330001321,0.4,0.7,0.2,0.85,3.48094090004452,"up_down_width"
10,1.5,4,0.466666666666667,0.1,"match",5,5,1.79138579999562,0.3,1.1,0.15,0.65,3.8604777000146,"up_down_width"
10,1.75,5,0.375,0.25,"match",6,5,1.59674680000171,0.25,1.2,0.2,0.75,7.93516380002256,"up_down_width"
10,1.6,5,0.375,0.1,"match",7,5,1.21526450000238,0.1,0.4,0.2,0.55,4.09215450007468,"up_down_width"
10,1.4,3,0.5,0.4,"initial",8,3,1.93257039994933,0.25,0.7,0.4,0.55,4.70235240005422,"up_down_width"
10,2.1,3,1,0.1,"match",9,3,1.97741979989223,0.25,1,0.05,0.9,3.84711019997485,"up_down_width"
10,1.25,3,0.5,0.25,"initial",10,3,1.91987230000086,0.15,0.8,0.25,0.5,3.34619999991264,"up_down_width"
10,3.7,3,1.8,0.1,"match",11,3,1.56645479996223,0.4,1.2,0.1,1.35,3.55163260002155,"up_down_width"
10,2.2,5,0.525,0.1,"match",12,5,1.25809669995215,0.3,0.4,0.1,0.7,2.62806149991229,"up_down_width"
10,3.85,3,1.8,0.25,"match",13,2,1.84606769995298,0.1,1.6,0.35,2,4.18472589994781,"up_down_width"
10,2.35,5,0.525,0.25,"match",14,5,4.51273860002402,0.4,0.5,0.25,0.8,2.88875579996966,"up_down_width"
10,2.4,5,0.5,0.4,"initial",15,5,1.49194450001232,0.1,0.7,0.4,0.55,4.16731350007467,"up_down_width"
10,3.2,3,1.475,0.25,"match",16,3,1.87512889993377,0.35,0.4,0.3,1.1,6.6001139000291,"up_down_width"
10,2.4,3,1,0.4,"match",17,2,1.61781369999517,0.3,1.6,0.5,1.6,1.75796980003361,"up_down_width"
10,2.9,5,0.7,0.1,"initial",18,5,1.06651160004549,0.15,0.3,0.25,0.5,4.5598879000172,"up_down_width"
10,2.5,5,0.525,0.4,"match",19,5,2.64917109999806,0.25,1.1,0.15,0.65,10.415159999975,"up_down_width"
10,2.9,3,1.4,0.1,"match",20,2,1.78247770003509,0.4,1.6,0.1,2.3,2.95637529995292,"up_down_width"
10,3.05,5,0.7,0.25,"initial",21,5,1.69668419996742,0.4,1.2,0.15,0.95,8.57145789999049,"up_down_width"
10,3.7,5,0.9,0.1,"initial",22,5,1.55315910000354,0.45,0.6,0.1,0.9,3.51737529993989,"up_down_width"
10,1.5,3,0.7,0.1,"initial",23,3,1.74207980011124,0.45,0.7,0.2,0.65,5.36849580006674,"up_down_width"
10,3.2,5,0.7,0.4,"initial",24,5,1.07368879998103,0.25,0.7,0.45,0.7,2.30966799997259,"up_down_width"
10,2.5,4,0.7,0.4,"initial",25,4,1.06750630005263,0.2,0.6,0.3,0.6,1.96855490002781,"up_down_width"
10,2.25,5,0.5,0.25,"initial",26,5,1.25784370000474,0.1,1,0.3,0.55,3.95654390007257,"up_down_width"
10,2.8,4,0.9,0.1,"initial",27,4,2.21611530007794,0.2,0.7,0.1,0.6,3.03859439992812,"up_down_width"
10,1.9,4,0.6,0.1,"match",28,4,0.940479399985634,0.15,1.1,0.1,0.9,2.66090110002551,"up_down_width"
10,1.9,5,0.4125,0.25,"match",29,4,0.971854700008407,0.25,0.8,0.2,0.4,2.48557189991698,"up_down_width"
10,2.8,5,0.675,0.1,"match",30,5,1.13339650002308,0.3,0.4,0.1,0.5,4.38126950000878,"up_down_width"
10,2.95,5,0.675,0.25,"match",31,5,1.14261739992071,0.25,0.9,0.15,0.7,2.15626550000161,"up_down_width"
10,1.75,4,0.5,0.25,"initial",32,4,0.946761699975468,0.3,0.4,0.15,0.7,1.85386659996584,"up_down_width"
10,1.1,3,0.5,0.1,"initial",33,4,1.48233200004324,0.4,0.8,0.1,0.4,5.53501820005476,"up_down_width"
10,1.65,4,0.466666666666667,0.25,"match",34,4,1.38591189996805,0.2,0.7,0.15,0.4,2.4318956999341,"up_down_width"
10,1.9,3,0.9,0.1,"initial",35,3,1.77655650000088,0.45,0.8,0.1,0.6,8.18221559992526,"up_down_width"
10,2.2,4,0.6,0.4,"match",36,4,1.11859840003308,0.1,0.5,0.35,0.7,5.50417290010955,"up_down_width"
10,1.6,4,0.5,0.1,"initial",37,4,0.950503199943341,0.45,1,0.15,0.7,3.04003599996213,"up_down_width"
10,2.25,3,1,0.25,"match",38,3,1.58246599999256,0.15,1.3,0.4,1.3,1.66303910000715,"up_down_width"
10,4,3,1.8,0.4,"match",39,3,1.49282990000211,0.25,0.9,0.45,0.95,3.35281750001013,"up_down_width"
10,3.05,3,1.4,0.25,"match",40,3,1.14072649995796,0.1,1.3,0.4,1.35,6.58244579995517,"up_down_width"
10,2.95,4,0.9,0.25,"initial",41,4,1.17943759995978,0.25,1.3,0.3,0.9,3.00424729997758,"up_down_width"
10,2.05,3,0.9,0.25,"initial",42,3,1.66403570002876,0.2,0.7,0.4,1.05,3.82092199998442,"up_down_width"
10,2.2,4,0.7,0.1,"initial",43,4,1.41848479991313,0.3,1.3,0.1,1,3.71379229996819,"up_down_width"
10,1.25,4,0.333333333333333,0.25,"match",44,4,1.11862449999899,0.2,1.2,0.2,0.4,3.51883209997322,"up_down_width"
10,1.65,3,0.7,0.25,"initial",45,3,1.30264200002421,0.35,1,0.25,0.65,4.8019278999418,"up_down_width"
10,3.1,4,0.9,0.4,"initial",46,4,1.11789879994467,0.25,1,0.45,0.7,3.6654692000011,"up_down_width"
10,2.1,5,0.5,0.1,"initial",47,5,1.4127479000017,0.3,0.5,0.15,0.5,2.445635400014,"up_down_width"
10,1.4,4,0.383333333333333,0.25,"match",48,4,1.48806360003073,0.4,0.9,0.35,0.6,3.50705240003299,"up_down_width"
10,1.9,4,0.5,0.4,"initial",49,4,0.915568999946117,0.1,0.5,0.4,0.6,4.46210909995716,"up_down_width"
10,3.1,5,0.675,0.4,"match",50,4,1.23588220006786,0.15,0.3,0.55,0.7,4.6411360000493,"up_down_width"
10,1.8,3,0.7,0.4,"initial",51,3,1.55632460000925,0.45,1.1,0.45,0.7,3.47757799993269,"up_down_width"
10,1.8,4,0.466666666666667,0.4,"match",52,3,1.66405640006997,0.35,1.3,0.35,0.45,5.42191199993249,"up_down_width"
10,2.35,4,0.7,0.25,"initial",53,4,1.0504303999478,0.25,1.2,0.45,0.7,4.49658389994875,"up_down_width"
10,3.85,3,1.8,0.25,"match",0,3,2.51338669995312,0.25,1,0.15,1.5,4.98642460000701,"up_down_width"
10,3.2,3,1.475,0.25,"match",1,3,1.30929820006713,0.35,0.8,0.15,1.15,3.00009659992065,"up_down_width"
10,1.5,4,0.466666666666667,0.1,"match",2,4,1.04676539998036,0.15,0.6,0.15,0.6,1.82070870010648,"up_down_width"
10,1.1,3,0.5,0.1,"initial",3,3,1.32185149996076,0.25,0.6,0.1,0.6,1.82709149993025,"up_down_width"
10,1.1,4,0.333333333333333,0.1,"match",4,4,1.02741929993499,0.15,0.5,0.1,0.5,2.69859279994853,"up_down_width"
10,2.2,3,0.9,0.4,"initial",5,3,1.42815940000582,0.25,0.9,0.3,0.8,3.98925719992258,"up_down_width"
10,2.9,5,0.7,0.1,"initial",6,5,1.03734449995682,0.4,0.5,0.1,0.75,4.14616409991868,"up_down_width"
10,2.2,4,0.6,0.4,"match",7,4,2.4091110000154,0.25,1.1,0.2,0.6,4.0538116999669,"up_down_width"
10,4,5,0.9,0.4,"initial",8,6,1.98599029995967,0.15,0.4,0.3,0.6,5.58643799996935,"up_down_width"
10,3.7,5,0.9,0.1,"initial",9,6,1.71471900003962,0.25,1.3,0.15,0.6,3.7736119000474,"up_down_width"
10,2.35,5,0.525,0.25,"match",10,5,1.21851430006791,0.45,1.1,0.2,0.8,3.55039789993316,"up_down_width"
10,2.9,3,1.4,0.1,"match",11,3,1.70177939999849,0.1,0.6,0.3,0.7,3.48981489997823,"up_down_width"
10,1.25,4,0.333333333333333,0.25,"match",12,4,1.53139949997421,0.15,0.4,0.15,0.6,1.80641900002956,"up_down_width"
10,1.9,5,0.4125,0.25,"match",13,5,1.3887914000079,0.3,0.4,0.3,0.55,1.64186350000091,"up_down_width"
10,2.5,4,0.7,0.4,"initial",14,4,1.83358760003466,0.4,0.6,0.3,0.6,3.71200699999463,"up_down_width"
10,2.1,5,0.5,0.1,"initial",15,5,1.15669270011131,0.2,0.7,0.1,0.7,3.09401479992084,"up_down_width"
10,1.9,3,0.9,0.1,"initial",16,3,1.80179339996539,0.4,0.9,0.0500000000000001,0.95,3.90270510001574,"up_down_width"
10,2.8,4,0.9,0.1,"initial",17,4,0.969958700006828,0.35,1.3,0.1,0.9,5.54433960001916,"up_down_width"
10,2.95,5,0.675,0.25,"match",18,4,2.19922529999167,0.35,0.8,0.25,0.6,3.06745900004171,"up_down_width"
10,3.1,5,0.675,0.4,"match",19,5,1.15673010004684,0.1,1,0.3,0.75,4.40643339999951,"up_down_width"
10,2.5,5,0.525,0.4,"match",20,5,1.09520500001963,0.1,0.6,0.35,0.6,3.22626759996638,"up_down_width"
10,2.8,5,0.675,0.1,"match",21,5,1.11457119998522,0.15,0.4,0.3,0.5,3.82363380002789,"up_down_width"
10,2.05,4,0.6,0.25,"match",22,4,1.15860339999199,0.1,0.6,0.3,0.7,1.8801162999589,"up_down_width"
10,4,3,1.8,0.4,"match",23,3,1.84279789996799,0.4,0.7,0.35,1.2,4.20000229997095,"up_down_width"
10,1.65,3,0.7,0.25,"initial",24,3,1.77250780002214,0.1,1.1,0.35,1.1,2.1021488000406,"up_down_width"
10,1.8,4,0.466666666666667,0.4,"match",25,3,1.44347880000714,0.4,0.7,0.4,0.55,2.20082539995201,"up_down_width"
10,1.4,4,0.383333333333333,0.25,"match",26,1,1.47335800004657,0.25,NA,0.25,NA,2.05376919999253,"up_down_width"
10,1.65,4,0.466666666666667,0.25,"match",27,4,1.14822149998508,0.3,0.9,0.3,0.4,2.13704579998739,"up_down_width"
10,1.75,5,0.375,0.25,"match",28,5,1.05658710002899,0.25,0.9,0.25,0.35,3.34916550002526,"up_down_width"
10,2.1,3,1,0.1,"match",29,2,1.72814210003708,0.45,1.6,0.0500000000000001,1.5,5.31799939996563,"up_down_width"
10,1.4,3,0.5,0.4,"initial",30,2,1.6872286000289,0.15,1.6,0.4,0.5,6.88292840006761,"up_down_width"
10,2.95,4,0.9,0.25,"initial",31,4,2.45003790000919,0.25,0.5,0.35,0.7,3.74362620001193,"up_down_width"
10,2.2,4,0.7,0.1,"initial",32,4,1.61797299992759,0.2,0.9,0.15,0.6,3.35995419998653,"up_down_width"
10,2.2,5,0.525,0.1,"match",33,5,1.45277919992805,0.15,0.9,0.1,0.6,2.17861770000309,"up_down_width"
10,1.6,4,0.5,0.1,"initial",34,4,1.35087109997403,0.35,0.8,0.1,0.8,2.48090800002683,"up_down_width"
10,2.25,5,0.5,0.25,"initial",35,5,1.36932369996794,0.35,1,0.15,0.6,2.53032120002899,"up_down_width"
10,1.8,3,0.7,0.4,"initial",36,3,1.43296690005809,0.15,1.3,0.35,0.8,3.72764439997263,"up_down_width"
10,3.05,5,0.7,0.25,"initial",37,4,1.32835600001272,0.35,0.6,0.45,0.7,2.26719390007202,"up_down_width"
10,2.35,4,0.7,0.25,"initial",38,4,1.20008189999498,0.15,0.8,0.4,0.8,3.20043570001144,"up_down_width"
10,3.85,5,0.9,0.25,"initial",39,5,1.49428450001869,0.2,0.6,0.35,0.75,2.50598650006577,"up_down_width"
10,1.75,4,0.5,0.25,"initial",40,4,1.13336480001453,0.35,0.4,0.25,0.8,3.15420680004172,"up_down_width"
10,2.4,5,0.5,0.4,"initial",41,4,0.937852800008841,0.35,1.3,0.45,0.6,4.07053599995561,"up_down_width"
10,3.05,3,1.4,0.25,"match",42,2,2.24110990006011,0.4,1.6,0.4,1.6,1.28609809989575,"up_down_width"
10,1.25,3,0.5,0.25,"initial",43,2,1.92482920002658,0.3,1.6,0.45,0.6,4.26182439993136,"up_down_width"
10,1.9,4,0.5,0.4,"initial",44,3,1.70071920007467,0.35,0.8,0.55,0.7,3.45363249990623,"up_down_width"
10,1.9,4,0.6,0.1,"match",45,3,1.36833299999125,0.25,0.8,0.1,0.75,2.33906550006941,"up_down_width"
10,2.4,3,1,0.4,"match",46,2,1.35321390000172,0.45,1.6,0.45,0.6,3.15469060000032,"up_down_width"
10,3.2,5,0.7,0.4,"initial",47,4,1.8826953000389,0.2,0.5,0.4,0.6,6.40193719998933,"up_down_width"
10,3.1,4,0.9,0.4,"initial",48,4,2.29348990006838,0.2,0.7,0.45,0.7,1.84742150001694,"up_down_width"
10,1.5,3,0.7,0.1,"initial",49,2,1.22350940003525,0.15,1.6,0.1,1.4,4.31034660001751,"up_down_width"
10,2.25,3,1,0.25,"match",50,3,1.28520589997061,0.35,0.5,0.2,0.8,5.14040939998813,"up_down_width"
10,3.7,3,1.8,0.1,"match",51,2,1.10999169992283,0.4,1.6,0.1,2.2,6.37714370002504,"up_down_width"
10,1.6,5,0.375,0.1,"match",52,4,1.62196030002087,0.1,1.1,0.1,0.5,4.72604999993928,"up_down_width"
10,2.05,3,0.9,0.25,"initial",53,3,1.51130829995964,0.25,0.6,0.15,0.9,4.79497950000223,"up_down_width"
10,1.65,3,0.7,0.25,"initial",0,3,1.59783430001698,0.45,0.8,0.3,0.55,4.20463559997734,"up_down_width"
10,1.9,5,0.4125,0.25,"match",1,5,2.56141480000224,0.35,1.3,0.2,0.55,3.38601320004091,"up_down_width"
10,2.9,3,1.4,0.1,"match",2,2,1.37945959996432,0.4,1.6,0.15,1.5,2.06078509998042,"up_down_width"
10,1.65,4,0.466666666666667,0.25,"match",3,4,1.92956319998484,0.45,0.8,0.3,0.6,5.50139160000253,"up_down_width"
10,2.25,5,0.5,0.25,"initial",4,4,1.22374409995973,0.25,1,0.25,0.5,1.63404699997045,"up_down_width"
10,1.1,4,0.333333333333333,0.1,"match",5,4,1.83731720002834,0.35,0.4,0.1,0.4,2.48406130005606,"up_down_width"
10,1.75,5,0.375,0.25,"match",6,5,1.5381447999971,0.4,1.1,0.3,0.55,17.3475890998961,"up_down_width"
10,3.85,5,0.9,0.25,"initial",7,5,1.36994669993874,0.35,1,0.3,0.75,6.48403880000114,"up_down_width"
10,1.6,4,0.5,0.1,"initial",8,4,1.71746209997218,0.1,0.5,0.25,0.7,3.61721449997276,"up_down_width"
10,1.5,3,0.7,0.1,"initial",9,3,1.31742400000803,0.45,1.1,0.15,0.95,2.68752649996895,"up_down_width"
10,1.4,3,0.5,0.4,"initial",10,3,1.10859369998798,0.25,1.2,0.35,0.45,6.5519436999457,"up_down_width"
10,3.05,3,1.4,0.25,"match",11,3,1.48597630008589,0.2,0.9,0.4,0.95,2.95002740004566,"up_down_width"
10,3.7,5,0.9,0.1,"initial",12,4,1.17002109996974,0.15,0.7,0.4,0.7,2.96236240002327,"up_down_width"
10,1.25,3,0.5,0.25,"initial",13,3,1.22805539995898,0.2,0.6,0.4,0.6,1.69029179995414,"up_down_width"
10,1.5,4,0.466666666666667,0.1,"match",14,4,1.40124729997478,0.45,0.6,0.2,0.8,3.11773579998408,"up_down_width"
10,2.1,5,0.5,0.1,"initial",15,5,1.13016549998429,0.1,0.6,0.2,0.7,2.17317089997232,"up_down_width"
10,1.6,5,0.375,0.1,"match",16,3,1.16388470004313,0.45,0.5,0.1,0.3,4.92513190000318,"up_down_width"
10,2.05,4,0.6,0.25,"match",17,4,1.28345909994096,0.45,0.5,0.15,0.5,4.25546979997307,"up_down_width"
10,2.25,3,1,0.25,"match",18,4,1.95739240001421,0.15,0.8,0.55,0.7,3.57485309999902,"up_down_width"
10,1.25,4,0.333333333333333,0.25,"match",19,3,1.32599190005567,0.3,0.8,0.3,0.45,2.32748070009984,"up_down_width"
10,2.2,4,0.6,0.4,"match",20,3,2.52881970000453,0.25,0.3,0.75,0.9,8.84405289997812,"up_down_width"
10,4,5,0.9,0.4,"initial",21,2,1.28177380003035,0.45,1.6,0.45,0.6,4.97459560004063,"up_down_width"
10,2.8,4,0.9,0.1,"initial",22,4,1.04860400001053,0.3,0.4,0.1,0.8,3.13301799993496,"up_down_width"
10,2.35,4,0.7,0.25,"initial",23,1,0.817805200000294,0.1,NA,0.1,NA,1.8854012999218,"up_down_width"
10,2.05,3,0.9,0.25,"initial",24,3,1.63774050003849,0.2,0.6,0.1,0.85,2.19461290002801,"up_down_width"
10,3.7,3,1.8,0.1,"match",25,3,1.21931110008154,0.15,1.1,0.1,1.3,2.65611819992773,"up_down_width"
10,2.5,5,0.525,0.4,"match",26,4,1.02180849993601,0.35,0.8,0.25,1.1,2.5953474000562,"up_down_width"
10,2.4,3,1,0.4,"match",27,3,1.62396370002534,0.45,0.5,0.15,0.95,3.33549229998607,"up_down_width"
10,2.2,5,0.525,0.1,"match",28,4,1.05971499998122,0.2,0.9,0.05,1.1,1.55998230003752,"up_down_width"
10,2.2,4,0.7,0.1,"initial",29,4,1.596259099897,0.25,1.3,0.1,0.9,3.00264039996546,"up_down_width"
10,2.1,3,1,0.1,"match",30,3,1.16872429999057,0.35,0.6,0.1,1.05,3.68198170000687,"up_down_width"
10,1.8,4,0.466666666666667,0.4,"match",31,3,1.36594279995188,0.3,1.2,0.5,0.65,4.39878769998904,"up_down_width"
10,1.4,4,0.383333333333333,0.25,"match",32,4,0.927522499929182,0.35,0.5,0.25,0.4,2.77757339994423,"up_down_width"
10,3.1,4,0.9,0.4,"initial",33,4,1.15270559990313,0.2,0.3,0.7,0.9,6.29354629991576,"up_down_width"
10,3.2,3,1.475,0.25,"match",34,3,1.79417700006161,0.1,1.3,0.7,1.3,2.86093220009934,"up_down_width"
10,2.4,5,0.5,0.4,"initial",35,4,1.11342399998102,0.4,0.6,0.5,0.9,3.08485460001975,"up_down_width"
10,3.85,3,1.8,0.25,"match",36,3,1.3056439999491,0.1,0.8,0.5,1.05,3.41199469997082,"up_down_width"
10,2.95,4,0.9,0.25,"initial",37,4,1.00015570002142,0.45,1.1,0.3,1.1,1.85562080005184,"up_down_width"
10,3.2,5,0.7,0.4,"initial",38,4,1.14964040007908,0.25,1.2,0.4,1.2,1.75970489997417,"up_down_width"
10,1.8,3,0.7,0.4,"initial",39,4,1.22675020003226,0.1,0.3,0.5,0.8,2.95347830001265,"up_down_width"
10,1.9,3,0.9,0.1,"initial",40,4,2.5116423999425,0.45,1.1,0.15,0.8,4.05766280007083,"up_down_width"
10,1.1,3,0.5,0.1,"initial",41,3,1.36484390008263,0.15,1.1,0.15,0.9,1.80640040000435,"up_down_width"
10,4,3,1.8,0.4,"match",42,3,1.61752780003008,0.45,1.3,0.45,1.55,2.12406579998787,"up_down_width"
10,3.05,5,0.7,0.25,"initial",43,4,1.14898419997189,0.35,0.7,0.25,1,1.70913830003701,"up_down_width"
10,2.9,5,0.7,0.1,"initial",44,2,1.09471710002981,0.25,1.6,0.25,1.6,1.70666430005804,"up_down_width"
10,2.5,4,0.7,0.4,"initial",45,4,1.06239350000396,0.1,1.3,0.4,0.9,2.46076719998382,"up_down_width"
10,1.75,4,0.5,0.25,"initial",46,4,1.20095929992385,0.4,1.3,0.3,0.6,2.87907929997891,"up_down_width"
10,2.35,5,0.525,0.25,"match",47,5,1.90815569995902,0.1,1.1,0.4,0.65,3.04618689999916,"up_down_width"
10,1.9,4,0.6,0.1,"match",48,4,1.0694974999642,0.3,1.1,0.15,0.8,4.24225679994561,"up_down_width"
10,2.8,5,0.675,0.1,"match",49,5,1.08190710004419,0.1,0.5,0.15,0.75,2.57257139997091,"up_down_width"
10,2.2,3,0.9,0.4,"initial",50,4,1.75943430000916,0.1,1.1,0.45,1.1,2.02432209998369,"up_down_width"
10,3.1,5,0.675,0.4,"match",51,4,1.28951179992873,0.45,1.1,0.45,0.7,3.04417240002658,"up_down_width"
10,2.95,5,0.675,0.25,"match",52,5,0.95124730002135,0.2,0.4,0.45,0.75,2.40127529995516,"up_down_width"
10,1.9,4,0.5,0.4,"initial",53,4,0.944505700026639,0.25,0.3,0.7,0.8,4.77781090000644,"up_down_width"
11,3.7,3,1.8,0.1,"match",0,4,1.20636810001452,0.35,1.1,0.15,1.6,6.9001839000266,"left_right_width"
11,1.9,5,0.4125,0.25,"match",1,5,1.32979790004902,0.2,0.3,0.2,0.45,3.43473410001025,"left_right_width"
11,3.85,3,1.8,0.25,"match",2,4,1.91518130002078,0.3,1,0.25,1.8,5.55091280001216,"left_right_width"
11,1.65,3,0.7,0.25,"initial",3,4,1.70820780005306,0.1,0.6,0.25,0.8,3.68450450000819,"left_right_width"
11,3.7,5,0.9,0.1,"initial",4,7,2.54440350004006,0.45,0.5,0.15,0.9,5.75301969994325,"left_right_width"
11,2.25,5,0.5,0.25,"initial",5,7,5.08465189998969,0.2,0.5,0.2,0.6,1.75813460000791,"left_right_width"
11,3.1,4,0.9,0.4,"initial",6,6,2.90764160000253,0.25,0.8,0.25,0.7,2.3904448999092,"left_right_width"
11,1.75,5,0.375,0.25,"match",7,8,1.43709709995892,0.2,0.3,0.25,0.5,5.12036519998219,"left_right_width"
11,3.2,5,0.7,0.4,"initial",8,7,1.30771740002092,0.45,0.9,0.3,0.75,4.67604160006158,"left_right_width"
11,1.5,3,0.7,0.1,"initial",9,4,1.44766870001331,0.25,0.7,0.1,0.7,2.63515260000713,"left_right_width"
11,2.9,3,1.4,0.1,"match",10,5,2.18045650003478,0.3,0.6,0.1,0.6,2.56659279996529,"left_right_width"
11,2.35,5,0.525,0.25,"match",11,6,1.91059590002988,0.1,0.9,0.2,0.8,2.47324149997439,"left_right_width"
11,1.6,5,0.375,0.1,"match",12,8,1.35649519995786,0.3,0.4,0.15,0.5,3.33470479992684,"left_right_width"
11,2.2,4,0.7,0.1,"initial",13,5,1.52860489999875,0.25,0.9,0.2,0.85,1.97533030004706,"left_right_width"
11,2.4,3,1,0.4,"match",14,4,1.04772580007557,0.25,1,0.3,1,2.1419110998977,"left_right_width"
11,1.8,3,0.7,0.4,"initial",15,4,1.24580000003334,0.3,0.8,0.3,0.8,1.76765930000693,"left_right_width"
11,2.5,4,0.7,0.4,"initial",16,6,1.68654250004329,0.2,1.2,0.3,0.9,5.29512310004793,"left_right_width"
11,1.9,4,0.5,0.4,"initial",17,4,1.76778280001599,0.2,1.2,0.3,1,6.52709610003512,"left_right_width"
11,2.05,3,0.9,0.25,"initial",18,5,2.41183510003611,0.25,0.6,0.15,0.75,3.93049950001296,"left_right_width"
11,1.6,4,0.5,0.1,"initial",19,6,2.10982909996528,0.45,0.9,0.2,0.8,3.30493680003565,"left_right_width"
11,2.95,4,0.9,0.25,"initial",20,7,2.8592489999719,0.3,0.4,0.2,0.6,3.89589020004496,"left_right_width"
11,1.1,3,0.5,0.1,"initial",21,4,3.02839809993748,0.15,0.3,0.1,0.8,4.74330490001012,"left_right_width"
11,4,5,0.9,0.4,"initial",22,7,3.28490149998106,0.45,0.6,0.25,0.6,3.1828754999442,"left_right_width"
11,2.8,4,0.9,0.1,"initial",23,6,3.22583100001793,0.4,1.1,0.15,0.9,8.34418860008009,"left_right_width"
11,1.1,4,0.333333333333333,0.1,"match",24,6,3.36981499998365,0.25,0.9,0.15,0.6,3.7142417000141,"left_right_width"
11,2.9,5,0.7,0.1,"initial",25,8,1.429145699949,0.4,0.7,0.15,0.5,2.33018149994314,"left_right_width"
11,2.1,5,0.5,0.1,"initial",26,7,1.204367899918,0.45,0.9,0.1,0.6,3.66652129997965,"left_right_width"
11,1.5,4,0.466666666666667,0.1,"match",27,5,1.24896960007027,0.1,0.9,0.1,0.8,6.51111890003085,"left_right_width"
11,2.5,5,0.525,0.4,"match",28,7,1.54845580004621,0.1,1.2,0.2,0.8,5.50242790009361,"left_right_width"
11,4,3,1.8,0.4,"match",29,4,1.30029240006115,0.15,0.9,0.3,1.3,2.33363450004254,"left_right_width"
11,1.25,4,0.333333333333333,0.25,"match",30,5,3.15705040004104,0.35,0.8,0.25,0.65,3.84310749999713,"left_right_width"
11,1.75,4,0.5,0.25,"initial",31,6,1.86825429997407,0.35,0.6,0.2,0.5,2.56098830001429,"left_right_width"
11,3.85,5,0.9,0.25,"initial",32,9,1.49519070005044,0.25,0.6,0.15,0.55,3.11462179990485,"left_right_width"
11,3.05,5,0.7,0.25,"initial",33,7,1.53050999995321,0.3,0.3,0.2,0.65,9.21011310000904,"left_right_width"
11,2.35,4,0.7,0.25,"initial",34,6,1.75247410009615,0.45,1.1,0.15,0.9,3.47202250000555,"left_right_width"
11,2.2,3,0.9,0.4,"initial",35,4,1.05247819994111,0.25,0.5,0.25,1,2.25742509996053,"left_right_width"
11,2.95,5,0.675,0.25,"match",36,8,2.69104329997208,0.25,0.5,0.2,0.6,4.47001690010075,"left_right_width"
11,1.65,4,0.466666666666667,0.25,"match",37,6,1.74045000004116,0.1,0.8,0.25,0.6,4.98098389990628,"left_right_width"
11,1.8,4,0.466666666666667,0.4,"match",38,7,3.47291470004711,0.25,0.5,0.25,0.45,1.57427840004675,"left_right_width"
11,1.4,4,0.383333333333333,0.25,"match",39,5,1.05865999998059,0.35,0.7,0.2,0.6,2.1165429999819,"left_right_width"
11,3.2,3,1.475,0.25,"match",40,4,0.937034099944867,0.3,1.2,0.2,1.4,2.86730260006152,"left_right_width"
11,3.05,3,1.4,0.25,"match",41,4,1.12237400002778,0.4,1,0.15,1.1,4.77322839992121,"left_right_width"
11,3.1,5,0.675,0.4,"match",42,5,1.65368250000756,0.25,0.3,0.15,0.7,4.6399786999682,"left_right_width"
11,2.05,4,0.6,0.25,"match",43,7,2.5934578999877,0.4,1.1,0.15,0.8,3.01657630002592,"left_right_width"
11,2.25,3,1,0.25,"match",44,5,1.17025840003043,0.2,0.7,0.1,0.65,2.40195149998181,"left_right_width"
11,2.2,4,0.6,0.4,"match",45,5,0.953006700030528,0.1,1.1,0.3,1.1,3.82473009999376,"left_right_width"
11,1.9,4,0.6,0.1,"match",46,6,2.62908340001013,0.2,1.2,0.1,0.9,4.12264680000953,"left_right_width"
11,1.25,3,0.5,0.25,"initial",47,4,1.06820370000787,0.1,1.1,0.3,0.9,4.22646120004356,"left_right_width"
11,2.4,5,0.5,0.4,"initial",48,6,1.06676630000584,0.35,1.3,0.25,1,6.95768960006535,"left_right_width"
11,1.4,3,0.5,0.4,"initial",49,4,1.33735599997453,0.25,0.4,0.25,0.7,2.11441889998969,"left_right_width"
11,2.8,5,0.675,0.1,"match",50,5,2.6404307000339,0.4,1,0.2,0.95,2.46985310001764,"left_right_width"
11,1.9,3,0.9,0.1,"initial",51,4,1.1457857999485,0.2,1.2,0.1,1.3,3.35522050003055,"left_right_width"
11,2.2,5,0.525,0.1,"match",52,6,1.62378370005172,0.3,1.2,0.05,0.9,2.72232409997378,"left_right_width"
11,2.1,3,1,0.1,"match",53,3,1.43297640001401,0.3,1.3,0.1,1.3,1.48517280002125,"left_right_width"
11,2.25,5,0.5,0.25,"initial",0,6,1.60861140000634,0.4,1,0.25,0.8,2.48741509998217,"left_right_width"
11,1.5,3,0.7,0.1,"initial",1,4,1.00851090007927,0.25,1,0.1,1,1.25604639993981,"left_right_width"
11,3.85,3,1.8,0.25,"match",2,5,1.98121040000115,0.2,0.8,0.1,1,1.64446250000037,"left_right_width"
11,1.75,5,0.375,0.25,"match",3,7,1.37388700002339,0.35,0.7,0.25,0.75,4.51833639992401,"left_right_width"
11,2.95,5,0.675,0.25,"match",4,6,2.09391459997278,0.1,0.5,0.2,0.7,3.68690500000957,"left_right_width"
11,1.4,3,0.5,0.4,"initial",5,4,1.211972399964,0.3,0.3,0.25,0.6,5.08050230005756,"left_right_width"
11,1.4,4,0.383333333333333,0.25,"match",6,5,1.35993919998873,0.25,1.2,0.25,0.75,4.47314169991296,"left_right_width"
11,2.2,4,0.6,0.4,"match",7,6,2.06176439998671,0.25,0.8,0.25,0.6,3.27474190003704,"left_right_width"
11,1.8,4,0.466666666666667,0.4,"match",8,7,1.45398049999494,0.2,1.3,0.25,0.75,5.73079659999348,"left_right_width"
11,1.9,4,0.6,0.1,"match",9,5,1.97376379999332,0.1,1.3,0.1,1.2,3.06244660005905,"left_right_width"
11,2.4,3,1,0.4,"match",10,5,1.34825520007871,0.4,0.7,0.2,0.8,2.98967209993862,"left_right_width"
11,2.8,5,0.675,0.1,"match",11,7,1.04166919994168,0.35,1,0.15,1.1,4.74267379997764,"left_right_width"
11,4,5,0.9,0.4,"initial",12,7,1.36592180002481,0.25,0.8,0.25,0.95,1.34172549995128,"left_right_width"
11,1.9,3,0.9,0.1,"initial",13,4,1.59936510003172,0.45,1.2,0.15,1.4,3.05451800010633,"left_right_width"
11,3.7,5,0.9,0.1,"initial",14,8,1.26131750002969,0.25,1,0.15,1,5.40235890005715,"left_right_width"
11,1.8,3,0.7,0.4,"initial",15,4,1.71056859998498,0.35,0.8,0.25,0.9,1.91335110005457,"left_right_width"
11,1.1,4,0.333333333333333,0.1,"match",16,5,1.24537410004996,0.45,1,0.0500000000000001,0.8,4.10633129999042,"left_right_width"
11,2.35,4,0.7,0.25,"initial",17,5,1.07059260003734,0.1,0.6,0.25,0.8,2.30353200004902,"left_right_width"
11,2.9,5,0.7,0.1,"initial",18,7,0.97447579994332,0.4,0.8,0.1,0.85,4.67819530004635,"left_right_width"
11,2.05,3,0.9,0.25,"initial",19,4,1.2680670999689,0.25,1,0.15,1.3,2.39832569996361,"left_right_width"
11,3.7,3,1.8,0.1,"match",20,4,1.27063030004501,0.3,1.3,0.1,1.5,3.63478820002638,"left_right_width"
11,3.2,5,0.7,0.4,"initial",21,7,1.26570039999206,0.35,0.6,0.2,0.7,1.56389150000177,"left_right_width"
11,2.5,4,0.7,0.4,"initial",22,5,0.984486800036393,0.25,0.9,0.25,1,2.75024650001433,"left_right_width"
11,2.8,4,0.9,0.1,"initial",23,6,1.06137470004614,0.1,1.3,0.15,1.1,3.11459050001577,"left_right_width"
11,3.1,5,0.675,0.4,"match",24,6,1.305964600062,0.25,1,0.15,0.9,1.58877360005863,"left_right_width"
11,2.05,4,0.6,0.25,"match",25,5,2.73764850001317,0.45,1,0.2,1.1,2.6749664999079,"left_right_width"
11,1.75,4,0.5,0.25,"initial",26,5,1.56836210004985,0.25,0.8,0.15,0.65,2.68715159990825,"left_right_width"
11,1.25,4,0.333333333333333,0.25,"match",27,6,1.24985240004025,0.2,0.8,0.15,0.5,5.85573260008823,"left_right_width"
11,1.5,4,0.466666666666667,0.1,"match",28,5,1.10591649997514,0.35,1.2,0.05,0.75,4.75850770005491,"left_right_width"
11,3.05,5,0.7,0.25,"initial",29,7,1.96653680002782,0.3,0.5,0.15,0.7,3.24760560004506,"left_right_width"
11,2.95,4,0.9,0.25,"initial",30,6,1.41836550005246,0.35,0.7,0.15,0.8,1.80957609997131,"left_right_width"
11,3.2,3,1.475,0.25,"match",31,4,0.895909499959089,0.15,0.4,0.15,1.2,3.98928440001328,"left_right_width"
11,2.2,5,0.525,0.1,"match",32,7,1.20501619996503,0.45,1,0.1,0.75,2.46529910003301,"left_right_width"
11,2.1,3,1,0.1,"match",33,3,1.41174629994202,0.25,1,0.05,1.1,2.60269119997974,"left_right_width"
11,3.05,3,1.4,0.25,"match",34,4,1.04275199992117,0.4,0.5,0.15,1.3,3.99197500001173,"left_right_width"
11,1.6,4,0.5,0.1,"initial",35,6,1.60453879996203,0.4,0.9,0.1,0.6,2.14245250006206,"left_right_width"
11,2.2,3,0.9,0.4,"initial",36,5,1.8939168000361,0.35,0.5,0.2,0.75,1.81748970004264,"left_right_width"
11,1.9,4,0.5,0.4,"initial",37,5,1.79306349996477,0.15,0.6,0.25,0.85,3.36619979992975,"left_right_width"
11,4,3,1.8,0.4,"match",38,5,1.08095660002436,0.15,0.4,0.25,0.85,2.68306670000311,"left_right_width"
11,2.2,4,0.7,0.1,"initial",39,5,1.05380930006504,0.1,1.1,0.2,1.25,1.84233609994408,"left_right_width"
11,2.25,3,1,0.25,"match",40,4,0.761186499963515,0.3,0.8,0.2,1.1,1.93060059996787,"left_right_width"
11,2.1,5,0.5,0.1,"initial",41,5,1.04546249995474,0.1,1.2,0.2,1.1,1.79966699995566,"left_right_width"
11,1.6,5,0.375,0.1,"match",42,6,0.955163900041953,0.4,1.2,0.1,0.8,4.00317000003997,"left_right_width"
11,1.65,3,0.7,0.25,"initial",43,4,1.33498130005319,0.35,1.2,0.2,1,1.69458610005677,"left_right_width"
11,1.25,3,0.5,0.25,"initial",44,3,1.02293600002304,0.1,0.3,0.25,0.6,2.24277799995616,"left_right_width"
11,2.35,5,0.525,0.25,"match",45,6,1.78927870001644,0.3,0.9,0.2,0.6,3.01169119996484,"left_right_width"
11,2.9,3,1.4,0.1,"match",46,4,0.910721500054933,0.25,1.1,0.1,1.5,4.55341580009554,"left_right_width"
11,2.5,5,0.525,0.4,"match",47,5,1.05177269992419,0.25,0.7,0.35,0.8,1.76168640004471,"left_right_width"
11,3.85,5,0.9,0.25,"initial",48,6,1.11440969991963,0.15,1.1,0.2,0.8,1.95049289998133,"left_right_width"
11,2.4,5,0.5,0.4,"initial",49,7,1.19596429995727,0.1,0.7,0.3,0.8,1.73860969999805,"left_right_width"
11,1.9,5,0.4125,0.25,"match",50,7,1.54180969996378,0.25,1,0.25,0.8,1.95713360002264,"left_right_width"
11,1.1,3,0.5,0.1,"initial",51,3,0.863274800009094,0.2,0.9,0.1,0.8,2.04489070002455,"left_right_width"
11,3.1,4,0.9,0.4,"initial",52,6,0.812633400084451,0.2,0.7,0.3,1,1.84897410008125,"left_right_width"
11,1.65,4,0.466666666666667,0.25,"match",53,5,1.20184709993191,0.15,0.8,0.25,0.75,1.79139209992718,"left_right_width"
11,1.8,3,0.7,0.4,"initial",0,3,0.769820500048809,0.25,0.5,0.35,0.9,2.83149200002663,"left_right_width"
11,2.2,5,0.525,0.1,"match",1,5,0.873271299991757,0.1,1,0.15,1.05,2.19626869994681,"left_right_width"
11,2.5,4,0.7,0.4,"initial",2,5,0.835778600070626,0.1,0.9,0.25,0.9,1.23492279998027,"left_right_width"
11,2.4,5,0.5,0.4,"initial",3,7,1.23857970000245,0.35,0.6,0.35,0.6,1.02724980004132,"left_right_width"
11,2.9,3,1.4,0.1,"match",4,4,0.865089499973692,0.25,0.9,0.1,1.3,2.41492390003987,"left_right_width"
11,2.4,3,1,0.4,"match",5,5,0.862015199963935,0.1,1,0.25,1,1.43431899999268,"left_right_width"
11,2.8,5,0.675,0.1,"match",6,8,1.118077000021,0.25,0.3,0.05,0.7,2.28602130000945,"left_right_width"
11,2.05,3,0.9,0.25,"initial",7,3,0.725031399982981,0.35,0.8,0.3,1.25,2.08646759996191,"left_right_width"
11,2.8,4,0.9,0.1,"initial",8,6,1.19033819995821,0.15,0.3,0.05,0.8,1.46154970000498,"left_right_width"
11,1.25,3,0.5,0.25,"initial",9,3,0.791879800031893,0.1,1.1,0.25,1.1,1.9097920000786,"left_right_width"
11,3.1,4,0.9,0.4,"initial",10,8,0.971190299955197,0.2,0.9,0.25,0.7,2.57721369992942,"left_right_width"
11,4,3,1.8,0.4,"match",11,4,1.02045450010337,0.45,0.9,0.3,1.4,2.16461609990802,"left_right_width"
11,2.25,3,1,0.25,"match",12,5,0.764498400036246,0.15,0.5,0.1,0.7,2.33101069997065,"left_right_width"
11,2.35,4,0.7,0.25,"initial",13,5,1.29640240001027,0.1,0.5,0.25,0.7,2.31717719999142,"left_right_width"
11,2.2,4,0.7,0.1,"initial",14,5,1.03203249990474,0.45,1.3,0.1,1.05,12.8287146999501,"left_right_width"
11,2.05,4,0.6,0.25,"match",15,5,1.24141949997284,0.1,0.3,0.25,0.7,2.18054870003834,"left_right_width"
11,3.7,5,0.9,0.1,"initial",16,7,1.29185509996023,0.35,0.5,0.05,0.65,3.86429499997757,"left_right_width"
11,2.2,3,0.9,0.4,"initial",17,4,1.08096659998409,0.4,1.1,0.25,0.8,1.36023360001855,"left_right_width"
11,2.35,5,0.525,0.25,"match",18,8,1.53308309998829,0.1,1.1,0.25,0.6,2.44520610000473,"left_right_width"
11,1.9,4,0.6,0.1,"match",19,7,1.17204039997887,0.45,1,0.15,0.75,2.85138480004389,"left_right_width"
11,1.65,4,0.466666666666667,0.25,"match",20,6,1.24982050003018,0.3,0.5,0.2,0.6,2.42909089999739,"left_right_width"
11,2.2,4,0.6,0.4,"match",21,5,1.16271669999696,0.35,0.8,0.25,0.65,1.84882740001194,"left_right_width"
11,3.85,5,0.9,0.25,"initial",22,7,1.45803530002013,0.2,1.2,0.3,1.1,7.94229759997688,"left_right_width"
11,3.7,3,1.8,0.1,"match",23,3,0.949247300042771,0.15,0.4,0.15,1.8,8.09411730000284,"left_right_width"
11,2.9,5,0.7,0.1,"initial",24,6,1.23320380004589,0.25,1.3,0.1,1,2.22374030004721,"left_right_width"
11,3.2,3,1.475,0.25,"match",25,4,0.872979399980977,0.45,1.2,0.25,1.2,3.77949259988964,"left_right_width"
11,3.1,5,0.675,0.4,"match",26,7,1.23607049998827,0.15,0.6,0.3,0.7,1.63190569996368,"left_right_width"
11,2.25,5,0.5,0.25,"initial",27,8,0.994261299958453,0.2,1.1,0.3,0.7,2.29225269996095,"left_right_width"
11,1.9,3,0.9,0.1,"initial",28,3,0.74727100005839,0.2,0.7,0.2,1.2,2.95678269991186,"left_right_width"
11,3.85,3,1.8,0.25,"match",29,4,0.760652299970388,0.15,0.7,0.25,1.2,1.96174739999697,"left_right_width"
11,1.25,4,0.333333333333333,0.25,"match",30,5,1.01928529993165,0.35,0.5,0.15,0.45,1.9226442000363,"left_right_width"
11,1.5,4,0.466666666666667,0.1,"match",31,4,1.07739239989314,0.35,1,0.15,0.5,2.82411729998421,"left_right_width"
11,2.95,4,0.9,0.25,"initial",32,6,0.848566200002097,0.4,1,0.2,0.6,1.56369199999608,"left_right_width"
11,1.9,4,0.5,0.4,"initial",33,5,0.764067300013267,0.4,1,0.25,0.65,2.71725939994212,"left_right_width"
11,1.75,5,0.375,0.25,"match",34,8,0.876880399999209,0.25,0.7,0.2,0.4,2.28112599998713,"left_right_width"
11,1.1,4,0.333333333333333,0.1,"match",35,5,0.969682900002226,0.45,0.8,0.25,0.5,2.97670619993005,"left_right_width"
11,2.1,5,0.5,0.1,"initial",36,5,0.817407299997285,0.35,0.7,0.15,0.6,3.23057240003254,"left_right_width"
11,1.6,4,0.5,0.1,"initial",37,5,1.45171669998672,0.15,1.3,0.15,0.75,3.4698840000201,"left_right_width"
11,1.75,4,0.5,0.25,"initial",38,6,1.21332870004699,0.35,1.2,0.15,0.6,2.66923250001855,"left_right_width"
11,2.1,3,1,0.1,"match",39,4,0.739896100014448,0.35,0.5,0.1,1.1,2.91737779998221,"left_right_width"
11,1.9,5,0.4125,0.25,"match",40,8,0.902598800021224,0.3,0.5,0.15,0.5,2.85992320009973,"left_right_width"
11,1.4,3,0.5,0.4,"initial",41,3,0.770574799971655,0.25,0.9,0.25,0.6,2.7068411000073,"left_right_width"
11,3.2,5,0.7,0.4,"initial",42,8,1.35058450000361,0.25,0.4,0.2,0.7,1.31260389997624,"left_right_width"
11,2.95,5,0.675,0.25,"match",43,7,0.883885900024325,0.35,0.4,0.2,0.65,2.22402740002144,"left_right_width"
11,3.05,5,0.7,0.25,"initial",44,6,1.36711349990219,0.35,0.7,0.2,0.6,2.60794979997445,"left_right_width"
11,1.65,3,0.7,0.25,"initial",45,3,0.841871700016782,0.45,0.5,0.25,0.95,3.55948809999973,"left_right_width"
11,1.4,4,0.383333333333333,0.25,"match",46,6,1.17737160006072,0.3,0.5,0.15,0.5,2.88955739990342,"left_right_width"
11,3.05,3,1.4,0.25,"match",47,3,0.913943899911828,0.35,0.4,0.2,0.75,8.55709970009048,"left_right_width"
11,1.8,4,0.466666666666667,0.4,"match",48,6,1.11261700000614,0.35,1,0.2,0.6,3.54657450004015,"left_right_width"
11,4,5,0.9,0.4,"initial",49,7,1.19409150001593,0.3,0.6,0.3,0.55,2.69534269999713,"left_right_width"
11,1.6,5,0.375,0.1,"match",50,5,0.905983599950559,0.35,0.6,0.1,0.5,2.00352400005795,"left_right_width"
11,2.5,5,0.525,0.4,"match",51,6,0.999115799902938,0.4,1.2,0.25,0.6,2.0446100999834,"left_right_width"
11,1.5,3,0.7,0.1,"initial",52,4,0.819118799990974,0.15,1.1,0.15,0.7,1.88782379997429,"left_right_width"
11,1.1,3,0.5,0.1,"initial",53,2,0.812051999964751,0.45,1.6,0.15,0.8,3.35045020002872,"left_right_width"
11,2.2,5,0.525,0.1,"match",0,5,0.782621399965137,0.1,1.1,0.15,0.95,1.77258610003628,"left_right_width"
11,3.05,5,0.7,0.25,"initial",1,6,0.848100200062618,0.1,0.6,0.2,0.9,1.80608300003223,"left_right_width"
11,1.9,4,0.6,0.1,"match",2,5,0.909264700021595,0.2,1,0.1,0.85,2.61402149999049,"left_right_width"
11,2.1,3,1,0.1,"match",3,3,0.80590979999397,0.25,1.2,0.1,1.25,3.28617660002783,"left_right_width"
11,3.2,5,0.7,0.4,"initial",4,6,0.909974599955603,0.3,0.7,0.3,0.8,1.41576080000959,"left_right_width"
11,2.8,4,0.9,0.1,"initial",5,5,0.904561900068074,0.15,0.6,0.1,0.85,1.89104460005183,"left_right_width"
11,3.85,5,0.9,0.25,"initial",6,6,1.39997240004595,0.1,1,0.15,0.8,2.42950450000353,"left_right_width"
11,1.1,4,0.333333333333333,0.1,"match",7,4,1.09242159989662,0.35,1.3,0.1,0.8,2.3411202999996,"left_right_width"
11,2.2,4,0.7,0.1,"initial",8,5,0.882495300029404,0.15,1.1,0.15,0.85,5.16403640003409,"left_right_width"
11,1.65,3,0.7,0.25,"initial",9,4,1.34670630004257,0.25,1.1,0.2,1,2.10768400004599,"left_right_width"
11,3.7,5,0.9,0.1,"initial",10,5,1.19989899999928,0.45,1.3,0.15,1.2,2.46322749997489,"left_right_width"
11,1.6,5,0.375,0.1,"match",11,6,1.0811305999523,0.15,0.4,0.1,0.4,1.34089300001506,"left_right_width"
11,2.9,3,1.4,0.1,"match",12,3,0.895930900005624,0.4,1.3,0.1,1.55,3.1772375999717,"left_right_width"
11,2.25,3,1,0.25,"match",13,3,0.732577499933541,0.4,0.7,0.2,1.35,3.95012330007739,"left_right_width"
11,1.8,3,0.7,0.4,"initial",14,3,0.8672998000402,0.1,1.3,0.4,1,2.79786990000866,"left_right_width"
11,1.6,4,0.5,0.1,"initial",15,5,0.879971300018951,0.2,0.9,0.1,0.65,2.21843600005377,"left_right_width"
11,2.5,4,0.7,0.4,"initial",16,4,1.42382390005514,0.1,0.5,0.3,0.9,4.93386680004187,"left_right_width"
11,1.8,4,0.466666666666667,0.4,"match",17,5,1.24140439997427,0.2,0.4,0.5,0.6,5.79637840006035,"left_right_width"
11,1.9,5,0.4125,0.25,"match",18,4,1.02538830006961,0.35,1,0.35,0.5,2.37593350000679,"left_right_width"
11,2.4,3,1,0.4,"match",19,3,1.20468049996998,0.35,0.6,0.35,0.95,1.79364459996577,"left_right_width"
11,3.85,3,1.8,0.25,"match",20,4,1.35805149993394,0.2,0.3,0.25,1.4,3.52416409994476,"left_right_width"
11,3.05,3,1.4,0.25,"match",21,3,0.762167100096121,0.4,0.8,0.35,1.4,3.1783116000006,"left_right_width"
11,2.05,3,0.9,0.25,"initial",22,4,1.28436680010054,0.25,1.3,0.3,1.2,1.40840580000076,"left_right_width"
11,2.1,5,0.5,0.1,"initial",23,6,1.07591070001945,0.4,0.5,0.25,0.8,3.27258049999364,"left_right_width"
11,2.25,5,0.5,0.25,"initial",24,7,1.36745700007305,0.1,1,0.25,0.6,2.17582630005199,"left_right_width"
11,3.2,3,1.475,0.25,"match",25,4,0.985241499962285,0.25,1,0.25,1.7,1.90569219994359,"left_right_width"
11,1.75,5,0.375,0.25,"match",26,6,1.34538040007465,0.25,1.2,0.25,0.5,2.64965579996351,"left_right_width"
11,1.4,3,0.5,0.4,"initial",27,3,0.845403200015426,0.35,0.8,0.35,0.7,1.37003819993697,"left_right_width"
11,1.5,3,0.7,0.1,"initial",28,4,0.892696600058116,0.1,1.2,0.1,0.9,1.80029729998205,"left_right_width"
11,2.2,4,0.6,0.4,"match",29,5,0.754656800068915,0.25,0.7,0.3,0.75,1.97161839995533,"left_right_width"
11,2.35,5,0.525,0.25,"match",30,8,0.871266599977389,0.15,1,0.25,0.5,2.11305779998656,"left_right_width"
11,1.5,4,0.466666666666667,0.1,"match",31,5,0.785047900048085,0.45,1,0.2,0.65,2.43054370000027,"left_right_width"
11,2.95,4,0.9,0.25,"initial",32,5,1.29675500001758,0.2,0.6,0.35,0.8,2.04344859998673,"left_right_width"
11,2.5,5,0.525,0.4,"match",33,6,0.88246250001248,0.2,0.7,0.35,0.6,1.82478300004732,"left_right_width"
11,2.2,3,0.9,0.4,"initial",34,4,1.41577379999217,0.25,0.7,0.35,0.8,2.04804969998077,"left_right_width"
11,1.75,4,0.5,0.25,"initial",35,5,0.997283200034872,0.2,1.3,0.2,0.6,2.87726199999452,"left_right_width"
11,2.4,5,0.5,0.4,"initial",36,6,0.905952600063756,0.2,1.1,0.35,0.5,3.52365799993277,"left_right_width"
11,1.1,3,0.5,0.1,"initial",37,2,0.735765199991874,0.4,1.6,0.25,0.7,3.15442799997982,"left_right_width"
11,1.25,4,0.333333333333333,0.25,"match",38,4,1.01980820007157,0.2,0.4,0.3,0.7,1.55405339994468,"left_right_width"
11,2.95,5,0.675,0.25,"match",39,5,0.710798399988562,0.45,1.1,0.2,0.8,2.39379490003921,"left_right_width"
11,1.65,4,0.466666666666667,0.25,"match",40,5,0.965973500045948,0.1,0.4,0.2,0.5,2.01296349999029,"left_right_width"
11,4,3,1.8,0.4,"match",41,4,1.06262920005247,0.2,0.3,0.25,1.4,4.15354670002125,"left_right_width"
11,3.1,4,0.9,0.4,"initial",42,5,0.759238200029358,0.15,1,0.3,1.05,1.57550340006128,"left_right_width"
11,1.25,3,0.5,0.25,"initial",43,3,1.15184619999491,0.25,0.4,0.25,0.85,1.85542879998684,"left_right_width"
11,1.9,4,0.5,0.4,"initial",44,4,0.866591800004244,0.1,0.5,0.25,0.7,1.83936709992122,"left_right_width"
11,1.9,3,0.9,0.1,"initial",45,4,1.03197010001168,0.25,0.9,0.05,0.7,1.71101660002023,"left_right_width"
11,2.35,4,0.7,0.25,"initial",46,5,0.955946700065397,0.1,1,0.25,0.85,1.53959770000074,"left_right_width"
11,1.4,4,0.383333333333333,0.25,"match",47,5,0.825380800059065,0.4,0.6,0.25,0.5,2.10361470002681,"left_right_width"
11,2.9,5,0.7,0.1,"initial",48,6,1.35627270000987,0.1,1,0.1,0.8,1.95727570005693,"left_right_width"
11,2.8,5,0.675,0.1,"match",49,7,1.15076779993251,0.3,1,0.1,0.8,2.67182799999136,"left_right_width"
11,3.1,5,0.675,0.4,"match",50,5,0.85531140002422,0.35,0.5,0.25,0.85,3.47525699995458,"left_right_width"
11,3.7,3,1.8,0.1,"match",51,5,0.795332000008784,0.15,1,0.1,1.05,1.54515739995986,"left_right_width"
11,4,5,0.9,0.4,"initial",52,7,1.03969410003629,0.2,0.5,0.3,0.8,2.2141130999662,"left_right_width"
11,2.05,4,0.6,0.25,"match",53,5,0.76463969994802,0.4,1.3,0.2,1.05,1.88587779994123,"left_right_width"
11,1.75,5,0.375,0.25,"match",0,7,1.05617110000458,0.4,0.7,0.25,0.5,1.41108470002655,"left_right_width"
11,2.9,5,0.7,0.1,"initial",1,5,0.73866250005085,0.2,1.3,0.2,1.05,1.68468930001836,"left_right_width"
11,2.5,5,0.525,0.4,"match",2,8,1.2233926000772,0.2,1.1,0.25,0.6,2.16330270003527,"left_right_width"
11,1.5,3,0.7,0.1,"initial",3,3,0.753221599967219,0.35,0.7,0.1,0.9,4.06431950000115,"left_right_width"
11,1.9,4,0.6,0.1,"match",4,4,1.06789219996426,0.4,0.6,0.15,1,3.19880090001971,"left_right_width"
11,1.25,3,0.5,0.25,"initial",5,3,0.72727039991878,0.25,1.3,0.15,0.7,3.13020530005451,"left_right_width"
11,2.35,5,0.525,0.25,"match",6,8,0.852744800038636,0.3,0.7,0.2,0.5,2.32004150003195,"left_right_width"
11,2.05,4,0.6,0.25,"match",7,6,1.50108050007839,0.35,1.1,0.2,0.6,1.99987980001606,"left_right_width"
11,2.95,5,0.675,0.25,"match",8,9,0.771217900095508,0.45,0.5,0.15,0.55,1.92200959997717,"left_right_width"
11,2.2,3,0.9,0.4,"initial",9,3,1.08646729995962,0.2,0.6,0.35,0.85,2.21062339993659,"left_right_width"
11,3.7,3,1.8,0.1,"match",10,3,0.689870600006543,0.35,0.7,0.15,1.5,5.66987059998792,"left_right_width"
11,3.7,5,0.9,0.1,"initial",11,6,1.58334579993971,0.3,1.2,0.15,0.9,4.07923230004963,"left_right_width"
11,2.4,5,0.5,0.4,"initial",12,5,0.888563300017267,0.25,0.4,0.35,0.7,2.99418599996716,"left_right_width"
11,3.85,5,0.9,0.25,"initial",13,6,1.11288100003731,0.25,1.2,0.2,0.9,1.65973479999229,"left_right_width"
11,3.85,3,1.8,0.25,"match",14,4,0.826054999954067,0.1,0.9,0.25,1.5,3.47790529998019,"left_right_width"
11,2.8,4,0.9,0.1,"initial",15,5,0.857290699961595,0.35,1.2,0.1,1.2,2.85050260007847,"left_right_width"
11,3.1,5,0.675,0.4,"match",16,5,0.980811399989761,0.25,0.6,0.2,1,5.39097209996544,"left_right_width"
11,4,5,0.9,0.4,"initial",17,7,1.58933569991495,0.3,1.1,0.25,0.85,2.75658029993065,"left_right_width"
11,3.2,5,0.7,0.4,"initial",18,6,0.920602999976836,0.2,0.8,0.3,0.8,2.06662080006208,"left_right_width"
11,3.05,3,1.4,0.25,"match",19,3,0.742595500079915,0.45,1.3,0.2,1.45,2.00866110005882,"left_right_width"
11,2.05,3,0.9,0.25,"initial",20,4,0.896038300008513,0.3,1.1,0.25,0.9,1.21090119995642,"left_right_width"
11,1.65,4,0.466666666666667,0.25,"match",21,5,0.913426600047387,0.2,1.1,0.2,0.6,2.97382330009714,"left_right_width"
11,2.25,3,1,0.25,"match",22,4,0.893448200076818,0.2,0.4,0.25,1,2.72723880002741,"left_right_width"
11,1.65,3,0.7,0.25,"initial",23,3,0.67384080006741,0.1,1,0.25,0.9,2.02274609997403,"left_right_width"
11,4,3,1.8,0.4,"match",24,4,0.765292900032364,0.15,0.8,0.25,1.2,1.50181980000343,"left_right_width"
11,2.35,4,0.7,0.25,"initial",25,5,0.730814700014889,0.25,1.1,0.2,0.8,3.14986040000804,"left_right_width"
11,1.25,4,0.333333333333333,0.25,"match",26,5,0.785176399978809,0.15,0.8,0.2,0.55,2.46505540004,"left_right_width"
11,1.1,4,0.333333333333333,0.1,"match",27,6,2.70853569998872,0.15,0.8,0.15,0.5,3.00030789989978,"left_right_width"
11,2.8,5,0.675,0.1,"match",28,6,0.945884199929424,0.3,0.7,0.1,0.7,1.97915409994312,"left_right_width"
11,2.2,5,0.525,0.1,"match",29,7,1.04273499990813,0.2,0.9,0.1,0.55,4.63346160005312,"left_right_width"
11,1.6,4,0.5,0.1,"initial",30,5,0.885159700061195,0.1,1.1,0.15,0.75,4.59754039999098,"left_right_width"
11,1.9,3,0.9,0.1,"initial",31,3,0.705245999968611,0.3,0.7,0.1,1.35,5.63537160004489,"left_right_width"
11,1.75,4,0.5,0.25,"initial",32,5,0.955372800002806,0.25,1.1,0.15,0.8,1.55392930004746,"left_right_width"
11,2.9,3,1.4,0.1,"match",33,4,1.16593670006841,0.3,1.1,0.1,1.2,2.46352540003136,"left_right_width"
11,3.05,5,0.7,0.25,"initial",34,8,1.34271600004286,0.25,1.2,0.15,0.7,3.3527454000432,"left_right_width"
11,1.9,4,0.5,0.4,"initial",35,5,0.894981499994174,0.3,0.9,0.3,0.7,2.96999769995455,"left_right_width"
11,2.4,3,1,0.4,"match",36,4,1.2760755000636,0.15,1.2,0.25,0.9,1.83233759994619,"left_right_width"
11,2.2,4,0.7,0.1,"initial",37,4,0.895428000018001,0.4,0.8,0.1,1,3.05047400004696,"left_right_width"
11,2.5,4,0.7,0.4,"initial",38,5,0.787474500015378,0.1,1,0.3,0.95,1.85733440006152,"left_right_width"
11,3.2,3,1.475,0.25,"match",39,4,0.77274510008283,0.35,1,0.2,1.4,2.94783870002721,"left_right_width"
11,1.4,3,0.5,0.4,"initial",40,3,0.783236599992961,0.2,0.6,0.3,0.75,1.82354609994218,"left_right_width"
11,1.9,5,0.4125,0.25,"match",41,6,0.838641899987124,0.4,1.2,0.25,0.7,3.44397010002285,"left_right_width"
11,1.8,4,0.466666666666667,0.4,"match",42,5,0.716750200022943,0.15,1.2,0.25,0.85,7.26364460005425,"left_right_width"
11,1.4,4,0.383333333333333,0.25,"match",43,5,0.883215399924666,0.15,0.4,0.25,0.6,1.82049980002921,"left_right_width"
11,1.5,4,0.466666666666667,0.1,"match",44,4,0.828783999895677,0.25,0.9,0.1,0.6,2.25073200010229,"left_right_width"
11,1.8,3,0.7,0.4,"initial",45,3,0.77559990005102,0.1,0.5,0.4,0.9,2.74509149999358,"left_right_width"
11,2.2,4,0.6,0.4,"match",46,5,0.748080599936657,0.3,1.3,0.25,0.85,2.49334330006968,"left_right_width"
11,3.1,4,0.9,0.4,"initial",47,5,0.815905399969779,0.15,0.7,0.35,1,2.49432920000982,"left_right_width"
11,1.1,3,0.5,0.1,"initial",48,3,0.75514879997354,0.2,1,0.05,0.7,1.60354789998382,"left_right_width"
11,1.6,5,0.375,0.1,"match",49,4,1.26475640002172,0.45,1.2,0.0500000000000001,0.7,2.65401150006801,"left_right_width"
11,2.1,5,0.5,0.1,"initial",50,6,0.77402480004821,0.45,1,0.0500000000000001,0.6,2.10260590002872,"left_right_width"
11,2.1,3,1,0.1,"match",51,3,0.718737700022757,0.35,1.3,0.05,1.2,2.04681520001031,"left_right_width"
11,2.95,4,0.9,0.25,"initial",52,5,0.833287000074051,0.2,1,0.2,1.05,1.87070929992478,"left_right_width"
11,2.25,5,0.5,0.25,"initial",53,7,1.08328649995383,0.35,0.5,0.15,0.65,2.39918840001337,"left_right_width"
11,2.25,5,0.5,0.25,"initial",0,4,214.527713900083,0.4,0.8,0.2,0.9,4.17083870002534,"left_right_width"
11,2.9,3,1.4,0.1,"match",1,4,1.41931649995968,0.4,1,0.15,1.3,2.9783586000558,"left_right_width"
11,2.95,5,0.675,0.25,"match",2,6,0.810867300024256,0.25,1.3,0.25,1,1.93025780003518,"left_right_width"
11,1.9,4,0.5,0.4,"initial",3,5,0.792735499911942,0.3,0.4,0.3,0.6,1.72901839995757,"left_right_width"
11,2.95,4,0.9,0.25,"initial",4,5,0.682455700007267,0.3,1.2,0.25,1.05,1.39022950001527,"left_right_width"
11,2.35,5,0.525,0.25,"match",5,6,0.727565300068818,0.2,0.9,0.25,0.6,2.05567939998582,"left_right_width"
11,1.9,4,0.6,0.1,"match",6,4,0.706623699981719,0.4,1.1,0.1,0.9,2.69279240001924,"left_right_width"
11,2.1,3,1,0.1,"match",7,3,0.752426399965771,0.25,0.7,0.15,1.25,3.68037729989737,"left_right_width"
11,2.4,3,1,0.4,"match",8,4,0.734407399897464,0.1,0.4,0.2,1,2.19253939995542,"left_right_width"
11,1.75,5,0.375,0.25,"match",9,8,0.843566299998201,0.1,1.1,0.15,0.6,2.85761840001214,"left_right_width"
11,2.2,3,0.9,0.4,"initial",10,3,0.770647399942391,0.45,1.3,0.3,1.05,2.05180739995558,"left_right_width"
11,3.7,3,1.8,0.1,"match",11,4,1.40545630000997,0.2,0.8,0.2,1.2,3.78125300002284,"left_right_width"
11,2.05,3,0.9,0.25,"initial",12,4,0.995558599941432,0.3,1.1,0.2,0.9,1.29410379996989,"left_right_width"
11,2.5,5,0.525,0.4,"match",13,6,0.895550000015646,0.1,1.2,0.3,0.7,3.61392959998921,"left_right_width"
11,1.6,4,0.5,0.1,"initial",14,5,0.818956600036472,0.1,0.9,0.15,0.7,2.76808579999488,"left_right_width"
11,2.1,5,0.5,0.1,"initial",15,6,0.819498900091276,0.4,0.7,0.1,0.6,2.68812459998298,"left_right_width"
11,3.2,5,0.7,0.4,"initial",16,6,0.94993370003067,0.35,0.5,0.2,0.8,3.72755030007102,"left_right_width"
11,3.85,5,0.9,0.25,"initial",17,7,0.828823199961334,0.4,1.3,0.2,0.85,3.67440920008812,"left_right_width"
11,1.1,3,0.5,0.1,"initial",18,3,0.717996299965307,0.45,1,0.15,0.8,2.13803469995037,"left_right_width"
11,1.1,4,0.333333333333333,0.1,"match",19,4,0.801858799997717,0.35,0.6,0.1,0.3,2.03345360001549,"left_right_width"
11,1.65,3,0.7,0.25,"initial",20,3,1.83017090009525,0.3,0.5,0.15,0.55,2.02846900001168,"left_right_width"
11,2.2,4,0.7,0.1,"initial",21,5,0.749375200015493,0.1,0.9,0.15,0.8,2.67176299996208,"left_right_width"
11,1.6,5,0.375,0.1,"match",22,8,0.778800199972466,0.25,1.2,0.15,0.5,2.77938179997727,"left_right_width"
11,1.5,4,0.466666666666667,0.1,"match",23,5,0.808035399997607,0.2,1.2,0.1,0.55,3.73496240004897,"left_right_width"
11,2.8,4,0.9,0.1,"initial",24,5,0.851992799900472,0.35,0.9,0.1,1,2.91393580008298,"left_right_width"
11,3.85,3,1.8,0.25,"match",25,4,0.936565899988636,0.1,0.3,0.25,1.3,3.6019819000503,"left_right_width"
11,1.8,3,0.7,0.4,"initial",26,4,1.09280450001825,0.4,0.5,0.25,0.9,2.1350034000352,"left_right_width"
11,3.2,3,1.475,0.25,"match",27,5,0.843522200011648,0.15,1.1,0.15,0.85,5.44905499997549,"left_right_width"
11,3.05,5,0.7,0.25,"initial",28,6,0.767556500039063,0.1,1.1,0.25,0.7,2.76734159991611,"left_right_width"
11,1.65,4,0.466666666666667,0.25,"match",29,5,0.744890599977225,0.15,0.8,0.15,0.5,1.9606466999976,"left_right_width"
11,2.5,4,0.7,0.4,"initial",30,6,1.12813709990587,0.35,1.3,0.3,0.8,1.54621370008681,"left_right_width"
11,4,3,1.8,0.4,"match",31,4,0.738476100028493,0.4,0.6,0.2,1.1,2.48595130001195,"left_right_width"
11,2.2,4,0.6,0.4,"match",32,4,0.961508000036702,0.35,0.5,0.3,1,2.07387279998511,"left_right_width"
11,2.8,5,0.675,0.1,"match",33,5,0.8894804000156,0.3,0.9,0.15,0.95,2.11541969992686,"left_right_width"
11,1.4,4,0.383333333333333,0.25,"match",34,5,0.998556500067934,0.15,0.4,0.3,0.55,1.85226159996819,"left_right_width"
11,1.9,5,0.4125,0.25,"match",35,6,0.756999999983236,0.25,0.6,0.25,0.6,1.26850379991811,"left_right_width"
11,3.7,5,0.9,0.1,"initial",36,7,1.89934510004241,0.2,0.7,0.1,0.65,2.1561565999873,"left_right_width"
11,4,5,0.9,0.4,"initial",37,5,0.74677490000613,0.2,1.1,0.25,0.9,2.58960589999333,"left_right_width"
11,1.25,3,0.5,0.25,"initial",38,3,0.789340200019069,0.3,1.1,0.2,0.85,2.61479689995758,"left_right_width"
11,2.9,5,0.7,0.1,"initial",39,6,1.1448306000093,0.35,1.3,0.2,0.9,2.20244330004789,"left_right_width"
11,1.25,4,0.333333333333333,0.25,"match",40,5,0.814981699921191,0.45,1.3,0.15,0.55,3.86899750004523,"left_right_width"
11,1.75,4,0.5,0.25,"initial",41,5,0.895377499982715,0.25,0.4,0.15,0.35,1.37030449998565,"left_right_width"
11,2.4,5,0.5,0.4,"initial",42,6,0.956807199981995,0.3,1.3,0.2,0.6,3.79828650003765,"left_right_width"
11,2.2,5,0.525,0.1,"match",43,5,0.788286299910396,0.1,0.4,0.2,0.65,1.92433850001544,"left_right_width"
11,1.4,3,0.5,0.4,"initial",44,5,1.29350789997261,0.35,0.7,0.25,0.5,1.35308880009688,"left_right_width"
11,3.05,3,1.4,0.25,"match",45,3,0.837428099941462,0.35,1,0.3,1.95,6.06546960002743,"left_right_width"
11,1.9,3,0.9,0.1,"initial",46,4,1.36855680006556,0.25,1.1,0.1,1,1.78153510007542,"left_right_width"
11,3.1,4,0.9,0.4,"initial",47,5,0.923989899922162,0.1,1.3,0.3,1.05,2.50115869997535,"left_right_width"
11,1.5,3,0.7,0.1,"initial",48,4,0.842916999943554,0.35,1,0.1,0.9,1.68845010001678,"left_right_width"
11,1.8,4,0.466666666666667,0.4,"match",49,5,0.817590899998322,0.2,0.9,0.3,0.7,2.68631570006255,"left_right_width"
11,2.05,4,0.6,0.25,"match",50,6,0.810916599933989,0.35,1.1,0.2,0.7,3.06341560010333,"left_right_width"
11,2.35,4,0.7,0.25,"initial",51,5,0.767484199954197,0.35,0.6,0.25,0.9,3.1341760000214,"left_right_width"
11,2.25,3,1,0.25,"match",52,4,0.938549400074407,0.15,1.3,0.25,1.3,1.38019389996771,"left_right_width"
11,3.1,5,0.675,0.4,"match",53,6,1.02156389993615,0.15,1,0.2,0.6,1.82810210005846,"left_right_width"
12,2.9,5,0.7,0.1,"initial",0,4,1.54157050000504,0.15,0.4,0.1,0.7,4.91794360009953,"up_down_width"
12,2.8,4,0.9,0.1,"initial",1,4,1.71788370003924,0.35,1,0.1,0.9,9.18110020004679,"up_down_width"
12,3.7,3,1.8,0.1,"match",2,3,1.87365790002514,0.45,1.1,0.1,1.25,5.66868169989903,"up_down_width"
12,2.2,4,0.6,0.4,"match",3,4,3.18974019994494,0.2,0.3,0.25,0.6,4.62877860001754,"up_down_width"
