amount_p,posx1_p,posx2_p,posx3_p,posx4_p,posx5_p,center_to_center_p,edge_to_edge_p,w_p,stim_lengt_p,eccentricity_p,line1_p,line2_p,line3_p,line4_p,line5_p,amount,posx1,posx2,posx3,posx4,posx5,center_to_center,edge_to_edge,w,stim_length,eccentricity,trial_type,deg_to_pix_index,posx1_in_pix,posx2_in_pix,posx3_in_pix,posx4_in_pix,posx5_in_pix,line1,line2,line3,line4,line5,posx,setsize_cobdi,trials.thisRepN,trials.thisTrialN,trials.thisN,trials.thisIndex,blocks.thisRepN,blocks.thisTrialN,blocks.thisN,blocks.thisIndex,loop.thisRepN,loop.thisTrialN,loop.thisN,loop.thisIndex,first.thisRepN,first.thisTrialN,first.thisN,first.thisIndex,second.thisRepN,second.thisTrialN,second.thisN,second.thisIndex,key_resp_3.started,key_resp_3.keys,key_resp_3.rt,key_resp.keys,key_resp.rt,response,starting_width_deg,starting_space_deg,response_width_degree,response_spacing_degree,response_width_pixel,response_spacing_pixel,next_5.keys,next_5.rt,key_resp_4.keys,key_resp_4.rt,text_3.started,text_4.started,key_resp_2.started,text_2.started,key_resp_2.keys,key_resp_2.rt,adjusting.started,next.keys,next.rt,text_control2.started,key_resp.started,key_resp.corr,text_bye.started,text_bye.stopped,participant,age,gender,resp_group,date,expName,psychopyVersion,frameRate,
,,,,,,,,,,,,,,,,,,,,,,,,,,,,,,,,,,,,,,,,,,,,,,,,,,,,,,,,,,,,,316.5107522000035,c,129.00381399999605,,,,,,,,,,,,,,,,,,,,,,,,,,,,730,25,male,up_down_width,2024-08-29_10h34.03.935,exp1,2023.1.0,60.15927770487157,
5,9,9.5,10,10.5,11,0.5,0.09999999999999998,0.4,2.4,10,9,9,9,9,9,,,,,,,,,,,,,,,,,,,,,,,,,,0,0,0,8,,,,,,,,,,,,,,,,,,,,num_3,3.7161642000137363,num_3,0.35,1.2,0.35,0.6,13.37193,22.9233,return,11.641819499986013,,,,,,,,,,,,,,,,,730,25,male,up_down_width,2024-08-29_10h34.03.935,exp1,2023.1.0,60.15927770487157,
3,8.2,10,11.8,0,0,1.7999999999999998,1.4,0.4,4,10,9,9,9,0,0,,,,,,,,,,,,,,,,,,,,,,,,,,0,1,1,2,,,,,,,,,,,,,,,,,,,,num_3,2.661396399984369,num_3,0.4,1.2,0.20000000000000007,1.3,7.6411,49.66716,return,6.026316900009988,,,,,,,,,,,,,,,,,730,25,male,up_down_width,2024-08-29_10h34.03.935,exp1,2023.1.0,60.15927770487157,
3,9.5,10,10.5,0,0,0.5,0.4,0.1,1.1,10,9,9,9,0,0,,,,,,,,,,,,,,,,,,,,,,,,,,0,2,2,0,,,,,,,,,,,,,,,,,,,,num_3,2.1605924999748822,num_3,0.35,1.1,0.10000000000000002,0.95,3.82055,36.29523,return,8.872080799977994,,,,,,,,,,,,,,,,,730,25,male,up_down_width,2024-08-29_10h34.03.935,exp1,2023.1.0,60.15927770487157,
5,9.25,9.625,10,10.375,10.75,0.375,0.125,0.25,1.75,10,9,9,9,9,9,,,,,,,,,,,,,,,,,,,,,,,,,,0,3,3,6,,,,,,,,,,,,,,,,,,,,num_3,1.5806496999866795,num_3,0.55,0.8,0.20000000000000007,0.5,7.6411,19.10275,return,8.276861899998039,,,,,,,,,,,,,,,,,730,25,male,up_down_width,2024-08-29_10h34.03.935,exp1,2023.1.0,60.15927770487157,
3,9,10,11,0,0,1,0.9,0.1,2.1,10,9,9,9,0,0,,,,,,,,,,,,,,,,,,,,,,,,,,0,4,4,1,,,,,,,,,,,,,,,,,,,,num_3,1.650697000004584,num_3,0.3,1.2,0.15000000000000002,0.9,5.73083,34.38495,return,11.341157499991823,,,,,,,,,,,,,,,,,730,25,male,up_down_width,2024-08-29_10h34.03.935,exp1,2023.1.0,60.15927770487157,
4,9.5,9.833333333333334,10.166666666666666,10.5,0,0.33333333333333337,0.23333333333333336,0.1,1.1,10,9,9,9,9,0,,,,,,,,,,,,,,,,,,,,,,,,,,0,5,5,3,,,,,,,,,,,,,,,,,,,,num_3,2.957633400015766,num_3,0.25,0.4,0.15000000000000002,0.75,5.73083,28.65413,return,11.519823099981295,,,,,,,,,,,,,,,,,730,25,male,up_down_width,2024-08-29_10h34.03.935,exp1,2023.1.0,60.15927770487157,
4,9.25,9.75,10.25,10.75,0,0.5,0.25,0.25,1.75,10,9,9,9,9,0,,,,,,,,,,,,,,,,,,,,,,,,,,0,6,6,4,,,,,,,,,,,,,,,,,,,,num_3,1.9580302000103984,num_3,0.55,0.8,0.20000000000000007,0.5,7.6411,19.10275,return,6.4824053999909665,,,,,,,,,,,,,,,,,730,25,male,up_down_width,2024-08-29_10h34.03.935,exp1,2023.1.0,60.15927770487157,
5,8.6,9.3,10,10.7,11.4,0.7,0.29999999999999993,0.4,3.1999999999999997,10,9,9,9,9,9,,,,,,,,,,,,,,,,,,,,,,,,,,0,7,7,7,,,,,,,,,,,,,,,,,,,,num_4,1.8880988000018988,num_4,0.5,0.7,0.20000000000000007,0.5,7.6411,19.10275,return,7.330599300010363,,,,,,,,,,,,,,,,,730,25,male,up_down_width,2024-08-29_10h34.03.935,exp1,2023.1.0,60.15927770487157,
4,8.65,9.55,10.45,11.35,0,0.9,0.5,0.4,3.1,10,9,9,9,9,0,,,,,,,,,,,,,,,,,,,,,,,,,,0,8,8,5,,,,,,,,,,,,,,,,,,,,num_4,1.5535630999947898,num_4,0.3,0.9,0.25,0.8,9.55138,30.5644,return,4.301486800017301,,,,,,,,,,,,,,,,,730,25,male,up_down_width,2024-08-29_10h34.03.935,exp1,2023.1.0,60.15927770487157,
,,,,,,,,,,,,,,,,,,,,,,,,,,,,,,,,,,,,,,,,,,,,,,,,,,,,,,,,,,,,,,,,,,,,,,,,,,,c,85.10824479997973,,,,,,,,,,,,,,,730,25,male,up_down_width,2024-08-29_10h34.03.935,exp1,2023.1.0,60.15927770487157,
,,,,,,,,,,,,,,,,3,8.6,10,11.4,0,0,1.4,0.85,0.55,3.35,10,match,36.05,310,361,411,0,0,9,9,9,0,0,,,,,,,0,0,0,0,0,0,0,41,,,,,,,,,,,,num_3,2.7685808000096586,num_3,0.35,1.2,0.25,0.75,9.55138,28.65413,return,8.89834349998273,,,,,,,,,,,,,,,,,730,25,male,up_down_width,2024-08-29_10h34.03.935,exp1,2023.1.0,60.15927770487157,
,,,,,,,,,,,,,,,,5,8.65,9.325,10,10.675,11.35,0.675,0.42500000000000004,0.25,2.95,10,match,36.05,312,336,361,385,409,9,9,9,9,9,,,,,,,0,0,0,0,0,1,1,31,,,,,,,,,,,,num_4,1.7871999999915715,num_4,0.25,0.3,0.2,0.5,7.6411,19.10275,return,8.52894849999575,,,,,,,,,,,,,,,,,730,25,male,up_down_width,2024-08-29_10h34.03.935,exp1,2023.1.0,60.15927770487157,
,,,,,,,,,,,,,,,,4,8.65,9.55,10.45,11.35,0,0.9,0.65,0.25,2.95,10,initial,36.05,312,344,377,409,0,9,9,9,9,0,,,,,,,0,0,0,0,0,2,2,30,,,,,,,,,,,,num_4,2.416018799995072,num_4,0.25,1.1,0.2,0.8,7.6411,30.5644,return,7.688165400002617,,,,,,,,,,,,,,,,,730,25,male,up_down_width,2024-08-29_10h34.03.935,exp1,2023.1.0,60.15927770487157,
,,,,,,,,,,,,,,,,4,8.9,9.633333333333333,10.366666666666667,11.1,0,0.7333333333333334,0.4833333333333334,0.25,2.45,10,match,36.05,321,347,374,400,0,9,9,9,9,0,,,,,,,0,0,0,0,0,3,3,3,,,,,,,,,,,,num_4,3.901616399991326,num_4,0.2,0.7,0.2,0.7,7.6411,26.74385,return,1.1611934000102337,,,,,,,,,,,,,,,,,730,25,male,up_down_width,2024-08-29_10h34.03.935,exp1,2023.1.0,60.15927770487157,
,,,,,,,,,,,,,,,,4,8.65,9.55,10.45,11.35,0,0.9,0.35,0.55,3.25,10,initial,36.05,312,344,377,409,0,9,9,9,9,0,,,,,,,0,0,0,0,0,4,4,28,,,,,,,,,,,,num_4,1.1642756000219379,num_4,0.4,1.0,0.4,1.0,15.2822,38.2055,return,1.543338199990103,,,,,,,,,,,,,,,,,730,25,male,up_down_width,2024-08-29_10h34.03.935,exp1,2023.1.0,60.15927770487157,
,,,,,,,,,,,,,,,,3,8.9,10,11.1,0,0,1.1,0.55,0.55,2.75,10,initial,36.05,321,361,400,0,0,9,9,9,0,0,,,,,,,0,0,0,0,0,5,5,0,,,,,,,,,,,,num_3,1.2118875999876764,num_3,0.2,0.3,0.3,0.55,11.46165,21.01303,return,7.689971899992088,,,,,,,,,,,,,,,,,730,25,male,up_down_width,2024-08-29_10h34.03.935,exp1,2023.1.0,60.15927770487157,
,,,,,,,,,,,,,,,,4,8.35,9.45,10.55,11.65,0,1.1,0.55,0.55,3.8500000000000005,10,initial,36.05,301,341,380,420,0,9,9,9,9,0,,,,,,,0,0,0,0,0,6,6,17,,,,,,,,,,,,num_4,1.15524930000538,num_4,0.3,1.2,0.3,1.1,11.46165,42.02605,return,2.2714886000030674,,,,,,,,,,,,,,,,,730,25,male,up_down_width,2024-08-29_10h34.03.935,exp1,2023.1.0,60.15927770487157,
,,,,,,,,,,,,,,,,4,8.65,9.55,10.45,11.35,0,0.9,0.5,0.4,3.1,10,initial,36.05,312,344,377,409,0,9,9,9,9,0,,,,,,,0,0,0,0,0,7,7,32,,,,,,,,,,,,num_4,1.1101908000127878,num_4,0.3,1.3,0.3,0.8,11.46165,30.5644,return,2.595506200013915,,,,,,,,,,,,,,,,,730,25,male,up_down_width,2024-08-29_10h34.03.935,exp1,2023.1.0,60.15927770487157,
,,,,,,,,,,,,,,,,3,7.8,10,12.2,0,0,2.2,1.9500000000000002,0.25,4.65,10,match,36.05,281,361,440,0,0,9,9,9,0,0,,,,,,,0,0,0,0,0,8,8,37,,,,,,,,,,,,num_3,1.538931200018851,num_3,0.35,0.8,0.25,2.05,9.55138,78.32128,return,6.978582699986873,,,,,,,,,,,,,,,,,730,25,male,up_down_width,2024-08-29_10h34.03.935,exp1,2023.1.0,60.15927770487157,
,,,,,,,,,,,,,,,,3,9.3,10,10.7,0,0,0.7,0.29999999999999993,0.4,1.8,10,initial,36.05,335,361,386,0,0,9,9,9,0,0,,,,,,,0,0,0,0,0,9,9,9,,,,,,,,,,,,num_3,1.0973354000016116,num_3,0.45,1.2,0.20000000000000007,0.65,7.6411,24.83358,return,5.976734299998498,,,,,,,,,,,,,,,,,730,25,male,up_down_width,2024-08-29_10h34.03.935,exp1,2023.1.0,60.15927770487157,
,,,,,,,,,,,,,,,,5,8.2,9.1,10,10.9,11.8,0.9,0.35,0.55,4.15,10,initial,36.05,296,328,361,393,425,9,9,9,9,9,,,,,,,0,0,0,0,0,10,10,46,,,,,,,,,,,,num_4,1.1216204999946058,num_4,0.55,1.3,0.25000000000000006,1.0,9.55138,38.2055,return,5.8237573000078555,,,,,,,,,,,,,,,,,730,25,male,up_down_width,2024-08-29_10h34.03.935,exp1,2023.1.0,60.15927770487157,
,,,,,,,,,,,,,,,,3,9.3,10,10.7,0,0,0.7,0.44999999999999996,0.25,1.65,10,initial,36.05,335,361,386,0,0,9,9,9,0,0,,,,,,,0,0,0,0,0,11,11,7,,,,,,,,,,,,num_3,1.155425600009039,num_3,0.25,0.7,0.2,0.85,7.6411,32.47468,return,4.418816099991091,,,,,,,,,,,,,,,,,730,25,male,up_down_width,2024-08-29_10h34.03.935,exp1,2023.1.0,60.15927770487157,
,,,,,,,,,,,,,,,,4,8.95,9.65,10.35,11.05,0,0.7,0.1499999999999999,0.55,2.65,10,initial,36.05,323,348,373,398,0,9,9,9,9,0,,,,,,,0,0,0,0,0,12,12,23,,,,,,,,,,,,num_3,1.52477099999669,num_3,0.35,0.6,0.3,0.9,11.46165,34.38495,return,6.3377099000208545,,,,,,,,,,,,,,,,,730,25,male,up_down_width,2024-08-29_10h34.03.935,exp1,2023.1.0,60.15927770487157,
,,,,,,,,,,,,,,,,5,8.35,9.175,10,10.825,11.65,0.825,0.575,0.25,3.55,10,match,36.05,301,331,361,390,420,9,9,9,9,9,,,,,,,0,0,0,0,0,13,13,20,,,,,,,,,,,,num_4,0.917623299988918,num_4,0.45,1.1,0.15000000000000008,0.9,5.73083,34.38495,return,3.5283790999965277,,,,,,,,,,,,,,,,,730,25,male,up_down_width,2024-08-29_10h34.03.935,exp1,2023.1.0,60.15927770487157,
,,,,,,,,,,,,,,,,3,9.1,10,10.9,0,0,0.9,0.65,0.25,2.05,10,initial,36.05,328,361,393,0,0,9,9,9,0,0,,,,,,,0,0,0,0,0,14,14,13,,,,,,,,,,,,num_3,1.1708358000032604,num_3,0.55,0.6,0.15000000000000008,0.95,5.73083,36.29523,return,4.7156327000120655,,,,,,,,,,,,,,,,,730,25,male,up_down_width,2024-08-29_10h34.03.935,exp1,2023.1.0,60.15927770487157,
,,,,,,,,,,,,,,,,4,8.95,9.65,10.35,11.05,0,0.7,0.29999999999999993,0.4,2.5,10,initial,36.05,323,348,373,398,0,9,9,9,9,0,,,,,,,0,0,0,0,0,15,15,26,,,,,,,,,,,,num_4,1.545992400002433,num_4,0.3,0.3,0.2,0.8,7.6411,30.5644,return,4.854883799998788,,,,,,,,,,,,,,,,,730,25,male,up_down_width,2024-08-29_10h34.03.935,exp1,2023.1.0,60.15927770487157,
,,,,,,,,,,,,,,,,3,8.6,10,11.4,0,0,1.4,1.15,0.25,3.05,10,match,36.05,310,361,411,0,0,9,9,9,0,0,,,,,,,0,0,0,0,0,16,16,43,,,,,,,,,,,,num_3,4.805361699982313,num_3,0.45,1.3,0.20000000000000007,1.2,7.6411,45.8466,return,2.8785953000187874,,,,,,,,,,,,,,,,,730,25,male,up_down_width,2024-08-29_10h34.03.935,exp1,2023.1.0,60.15927770487157,
,,,,,,,,,,,,,,,,5,8.6,9.3,10,10.7,11.4,0.7,0.1499999999999999,0.55,3.3499999999999996,10,initial,36.05,310,335,361,386,411,9,9,9,9,9,,,,,,,0,0,0,0,0,17,17,40,,,,,,,,,,,,num_4,1.2619403999997303,num_4,0.2,1.1,0.3,0.5,11.46165,19.10275,return,4.346884300000966,,,,,,,,,,,,,,,,,730,25,male,up_down_width,2024-08-29_10h34.03.935,exp1,2023.1.0,60.15927770487157,
,,,,,,,,,,,,,,,,3,9.1,10,10.9,0,0,0.9,0.35,0.55,2.35,10,initial,36.05,328,361,393,0,0,9,9,9,0,0,,,,,,,0,0,0,0,0,18,18,11,,,,,,,,,,,,num_3,0.9855039000103716,num_3,0.4,0.8,0.4,0.8,15.2822,30.5644,return,1.1823824000020977,,,,,,,,,,,,,,,,,730,25,male,up_down_width,2024-08-29_10h34.03.935,exp1,2023.1.0,60.15927770487157,
,,,,,,,,,,,,,,,,4,9.1,9.7,10.3,10.9,0,0.5999999999999999,0.3499999999999999,0.25,2.05,10,match,36.05,328,350,371,393,0,9,9,9,9,0,,,,,,,0,0,0,0,0,19,19,14,,,,,,,,,,,,num_4,0.9918098000052851,num_4,0.5,1.1,0.30000000000000004,0.7,11.46165,26.74385,return,5.217814999981783,,,,,,,,,,,,,,,,,730,25,male,up_down_width,2024-08-29_10h34.03.935,exp1,2023.1.0,60.15927770487157,
,,,,,,,,,,,,,,,,4,9.1,9.7,10.3,10.9,0,0.6000000000000001,0.20000000000000004,0.4,2.2,10,match,36.05,328,350,371,393,0,9,9,9,9,0,,,,,,,0,0,0,0,0,20,20,16,,,,,,,,,,,,num_4,1.1133425000007264,num_4,0.25,0.3,0.25,0.6,9.55138,22.9233,return,1.6513225999951828,,,,,,,,,,,,,,,,,730,25,male,up_down_width,2024-08-29_10h34.03.935,exp1,2023.1.0,60.15927770487157,
,,,,,,,,,,,,,,,,5,7.8,8.9,10,11.1,12.2,1.1,0.8500000000000001,0.25,4.65,10,initial,36.05,281,321,361,400,440,9,9,9,9,9,,,,,,,0,0,0,0,0,21,21,36,,,,,,,,,,,,num_4,1.4844064000062644,num_4,0.5,0.6,0.25000000000000006,1.1,9.55138,42.02605,return,6.8579050000116695,,,,,,,,,,,,,,,,,730,25,male,up_down_width,2024-08-29_10h34.03.935,exp1,2023.1.0,60.15927770487157,
,,,,,,,,,,,,,,,,4,8.35,9.45,10.55,11.65,0,1.1,0.8500000000000001,0.25,3.5500000000000003,10,initial,36.05,301,341,380,420,0,9,9,9,9,0,,,,,,,0,0,0,0,0,22,22,19,,,,,,,,,,,,num_4,1.552117899991572,num_4,0.55,0.9,0.25000000000000006,1.1,9.55138,42.02605,return,5.897913599997992,,,,,,,,,,,,,,,,,730,25,male,up_down_width,2024-08-29_10h34.03.935,exp1,2023.1.0,60.15927770487157,
,,,,,,,,,,,,,,,,4,9.1,9.7,10.3,10.9,0,0.6,0.04999999999999997,0.55,2.35,10,match,36.05,328,350,371,393,0,9,9,9,9,0,,,,,,,0,0,0,0,0,23,23,12,,,,,,,,,,,,num_4,1.7974823000258766,num_4,0.4,1.3,0.4,0.5,15.2822,19.10275,return,4.204072199994698,,,,,,,,,,,,,,,,,730,25,male,up_down_width,2024-08-29_10h34.03.935,exp1,2023.1.0,60.15927770487157,
,,,,,,,,,,,,,,,,3,7.800000000000001,10,12.2,0,0,2.1999999999999997,1.7999999999999998,0.4,4.8,10,match,36.05,281,361,440,0,0,9,9,9,0,0,,,,,,,0,0,0,0,0,24,24,39,,,,,,,,,,,,num_3,1.116555700020399,num_3,0.45,1,0.20000000000000007,1.9,7.6411,72.59046,return,6.879327800008468,,,,,,,,,,,,,,,,,730,25,male,up_down_width,2024-08-29_10h34.03.935,exp1,2023.1.0,60.15927770487157,
,,,,,,,,,,,,,,,,4,8.95,9.65,10.35,11.05,0,0.7,0.44999999999999996,0.25,2.3499999999999996,10,initial,36.05,323,348,373,398,0,9,9,9,9,0,,,,,,,0,0,0,0,0,25,25,24,,,,,,,,,,,,num_4,0.9767570999974851,num_4,0.2,0.5,0.2,0.9,7.6411,34.38495,return,2.6760707999928854,,,,,,,,,,,,,,,,,730,25,male,up_down_width,2024-08-29_10h34.03.935,exp1,2023.1.0,60.15927770487157,
,,,,,,,,,,,,,,,,5,8.2,9.1,10,10.9,11.8,0.9,0.5,0.4,4,10,initial,36.05,296,328,361,393,425,9,9,9,9,9,,,,,,,0,0,0,0,0,26,26,50,,,,,,,,,,,,num_4,0.9605093999998644,num_4,0.4,0.5,0.20000000000000007,0.6,7.6411,22.9233,return,8.504614500008756,,,,,,,,,,,,,,,,,730,25,male,up_down_width,2024-08-29_10h34.03.935,exp1,2023.1.0,60.15927770487157,
,,,,,,,,,,,,,,,,5,8.65,9.325,10,10.675,11.35,0.675,0.125,0.55,3.25,10,match,36.05,312,336,361,385,409,9,9,9,9,9,,,,,,,0,0,0,0,0,27,27,29,,,,,,,,,,,,num_4,1.182181700016372,num_4,0.4,0.8,0.4,0.5,15.2822,19.10275,return,3.324995700008003,,,,,,,,,,,,,,,,,730,25,male,up_down_width,2024-08-29_10h34.03.935,exp1,2023.1.0,60.15927770487157,
,,,,,,,,,,,,,,,,5,7.8,8.9,10,11.1,12.2,1.1,0.7000000000000001,0.4,4.800000000000001,10,initial,36.05,281,321,361,400,440,9,9,9,9,9,,,,,,,0,0,0,0,0,28,28,38,,,,,,,,,,,,num_4,1.1144732999964617,num_4,0.25,0.6,0.25,1.0,9.55138,38.2055,return,2.4428344999905676,,,,,,,,,,,,,,,,,730,25,male,up_down_width,2024-08-29_10h34.03.935,exp1,2023.1.0,60.15927770487157,
,,,,,,,,,,,,,,,,4,8.825,9.608333333333333,10.391666666666667,11.175,0,0.7833333333333333,0.5333333333333333,0.25,2.6,10,match,36.05,318,346,375,403,0,9,9,9,9,0,,,,,,,0,0,0,0,0,29,29,5,,,,,,,,,,,,num_4,1.0017388999985997,num_4,0.5,0.8,0.20000000000000007,1.2,7.6411,45.8466,return,4.704051700013224,,,,,,,,,,,,,,,,,730,25,male,up_down_width,2024-08-29_10h34.03.935,exp1,2023.1.0,60.15927770487157,
,,,,,,,,,,,,,,,,4,9.3,9.766666666666667,10.233333333333333,10.7,0,0.4666666666666667,0.06666666666666665,0.4,1.8,10,match,36.05,335,352,369,386,0,9,9,9,9,0,,,,,,,0,0,0,0,0,30,30,10,,,,,,,,,,,,num_4,0.9387886000040453,num_4,0.45,0.9,0.45,0.6,17.19248,22.9233,return,2.332857299974421,,,,,,,,,,,,,,,,,730,25,male,up_down_width,2024-08-29_10h34.03.935,exp1,2023.1.0,60.15927770487157,
,,,,,,,,,,,,,,,,3,8.2,10,11.8,0,0,1.8,1.25,0.55,4.15,10,match,36.05,296,361,425,0,0,9,9,9,0,0,,,,,,,0,0,0,0,0,31,31,47,,,,,,,,,,,,num_3,1.0076629999966826,num_3,0.2,0.9,0.65,1.05,24.83358,40.11578,return,6.4522780000115745,,,,,,,,,,,,,,,,,730,25,male,up_down_width,2024-08-29_10h34.03.935,exp1,2023.1.0,60.15927770487157,
,,,,,,,,,,,,,,,,5,8.6,9.3,10,10.7,11.4,0.7,0.29999999999999993,0.4,3.1999999999999997,10,initial,36.05,310,335,361,386,411,9,9,9,9,9,,,,,,,0,0,0,0,0,32,32,44,,,,,,,,,,,,num_4,0.9350292000162881,num_4,0.55,0.7,0.30000000000000004,0.4,11.46165,15.2822,return,2.912737600010587,,,,,,,,,,,,,,,,,730,25,male,up_down_width,2024-08-29_10h34.03.935,exp1,2023.1.0,60.15927770487157,
,,,,,,,,,,,,,,,,3,7.8,10,12.2,0,0,2.2,1.65,0.55,4.95,10,match,36.05,281,361,440,0,0,9,9,9,0,0,,,,,,,0,0,0,0,0,33,33,35,,,,,,,,,,,,num_3,1.4439254000026267,num_3,0.4,1.2,0.4,1.35,15.2822,51.57743,return,1.8119736000080593,,,,,,,,,,,,,,,,,730,25,male,up_down_width,2024-08-29_10h34.03.935,exp1,2023.1.0,60.15927770487157,
,,,,,,,,,,,,,,,,3,9.3,10,10.7,0,0,0.7,0.1499999999999999,0.55,1.95,10,initial,36.05,335,361,386,0,0,9,9,9,0,0,,,,,,,0,0,0,0,0,34,34,6,,,,,,,,,,,,num_3,1.0009892999951262,num_3,0.45,1.2,0.45,0.65,17.19248,24.83358,return,5.081695600005332,,,,,,,,,,,,,,,,,730,25,male,up_down_width,2024-08-29_10h34.03.935,exp1,2023.1.0,60.15927770487157,
,,,,,,,,,,,,,,,,5,8.95,9.475,10,10.525,11.05,0.525,0.125,0.4,2.5,10,match,36.05,323,342,361,379,398,9,9,9,9,9,,,,,,,0,0,0,0,0,35,35,27,,,,,,,,,,,,num_4,0.9240010000066832,num_4,0.3,1.2,0.3,0.5,11.46165,19.10275,return,3.9840662000060547,,,,,,,,,,,,,,,,,730,25,male,up_down_width,2024-08-29_10h34.03.935,exp1,2023.1.0,60.15927770487157,
,,,,,,,,,,,,,,,,4,8.9,9.633333333333333,10.366666666666667,11.1,0,0.7333333333333333,0.18333333333333326,0.55,2.75,10,match,36.05,321,347,374,400,0,9,9,9,9,0,,,,,,,0,0,0,0,0,36,36,1,,,,,,,,,,,,num_4,0.7862374999967869,num_4,0.55,1.3,0.55,0.7,21.01303,26.74385,return,2.560719599976437,,,,,,,,,,,,,,,,,730,25,male,up_down_width,2024-08-29_10h34.03.935,exp1,2023.1.0,60.15927770487157,
,,,,,,,,,,,,,,,,5,8.95,9.475,10,10.525,11.05,0.525,0.275,0.25,2.35,10,match,36.05,323,342,361,379,398,9,9,9,9,9,,,,,,,0,0,0,0,0,37,37,25,,,,,,,,,,,,num_5,0.9521340999926906,num_5,0.2,1.1,0.2,0.4,7.6411,15.2822,return,4.137527899991255,,,,,,,,,,,,,,,,,730,25,male,up_down_width,2024-08-29_10h34.03.935,exp1,2023.1.0,60.15927770487157,
,,,,,,,,,,,,,,,,5,8.65,9.325,10,10.675,11.35,0.675,0.275,0.4,3.1,10,match,36.05,312,336,361,385,409,9,9,9,9,9,,,,,,,0,0,0,0,0,38,38,33,,,,,,,,,,,,num_4,0.8924204999930225,num_4,0.35,0.9,0.35,0.5,13.37193,19.10275,return,2.4026966000092216,,,,,,,,,,,,,,,,,730,25,male,up_down_width,2024-08-29_10h34.03.935,exp1,2023.1.0,60.15927770487157,
,,,,,,,,,,,,,,,,5,7.8,8.9,10,11.1,12.2,1.1,0.55,0.55,4.95,10,initial,36.05,281,321,361,400,440,9,9,9,9,9,,,,,,,0,0,0,0,0,39,39,34,,,,,,,,,,,,num_4,1.1923880999966059,num_4,0.45,1.1,0.45,0.6,17.19248,22.9233,return,1.6385382000007667,,,,,,,,,,,,,,,,,730,25,male,up_down_width,2024-08-29_10h34.03.935,exp1,2023.1.0,60.15927770487157,
,,,,,,,,,,,,,,,,3,8.2,10,11.8,0,0,1.8,1.55,0.25,3.85,10,match,36.05,296,361,425,0,0,9,9,9,0,0,,,,,,,0,0,0,0,0,40,40,49,,,,,,,,,,,,num_3,0.9659116999828257,num_3,0.35,1,0.35,0.6,13.37193,22.9233,return,3.2632530000119004,,,,,,,,,,,,,,,,,730,25,male,up_down_width,2024-08-29_10h34.03.935,exp1,2023.1.0,60.15927770487157,
,,,,,,,,,,,,,,,,5,8.35,9.175,10,10.825,11.65,0.8250000000000001,0.275,0.55,3.85,10,match,36.05,301,331,361,390,420,9,9,9,9,9,,,,,,,0,0,0,0,0,41,41,18,,,,,,,,,,,,num_4,1.0493108999799006,num_4,0.5,1.0,0.5,0.6,19.10275,22.9233,return,1.549022099992726,,,,,,,,,,,,,,,,,730,25,male,up_down_width,2024-08-29_10h34.03.935,exp1,2023.1.0,60.15927770487157,
,,,,,,,,,,,,,,,,3,8.525,10,11.475,0,0,1.475,1.225,0.25,3.2,10,match,36.05,307,361,414,0,0,9,9,9,0,0,,,,,,,0,0,0,0,0,42,42,45,,,,,,,,,,,,num_3,0.8212254000245593,num_3,0.55,0.7,0.20000000000000007,0.65,7.6411,24.83358,return,5.309554099978413,,,,,,,,,,,,,,,,,730,25,male,up_down_width,2024-08-29_10h34.03.935,exp1,2023.1.0,60.15927770487157,
,,,,,,,,,,,,,,,,4,9.3,9.766666666666667,10.233333333333333,10.7,0,0.4666666666666667,0.21666666666666665,0.25,1.65,10,match,36.05,335,352,369,386,0,9,9,9,9,0,,,,,,,0,0,0,0,0,43,43,8,,,,,,,,,,,,num_4,0.8717564000107814,num_4,0.4,0.7,0.20000000000000007,0.4,7.6411,15.2822,return,4.49695800000336,,,,,,,,,,,,,,,,,730,25,male,up_down_width,2024-08-29_10h34.03.935,exp1,2023.1.0,60.15927770487157,
,,,,,,,,,,,,,,,,3,9.1,10,10.9,0,0,0.9,0.5,0.4,2.2,10,initial,36.05,328,361,393,0,0,9,9,9,0,0,,,,,,,0,0,0,0,0,44,44,15,,,,,,,,,,,,num_3,0.9631311000266578,num_3,0.5,0.6,0.20000000000000007,0.5,7.6411,19.10275,return,3.2866001999937,,,,,,,,,,,,,,,,,730,25,male,up_down_width,2024-08-29_10h34.03.935,exp1,2023.1.0,60.15927770487157,
,,,,,,,,,,,,,,,,5,8.275,9.1375,10,10.8625,11.725,0.8625,0.6125,0.25,3.7,10,match,36.05,298,329,361,392,423,9,9,9,9,9,,,,,,,0,0,0,0,0,45,45,22,,,,,,,,,,,,num_4,1.0348675999848638,num_4,0.35,0.7,0.2,0.5,7.6411,19.10275,return,2.1442161000159103,,,,,,,,,,,,,,,,,730,25,male,up_down_width,2024-08-29_10h34.03.935,exp1,2023.1.0,60.15927770487157,
,,,,,,,,,,,,,,,,3,8.9,10,11.1,0,0,1.1,0.7000000000000001,0.4,2.6000000000000005,10,initial,36.05,321,361,400,0,0,9,9,9,0,0,,,,,,,0,0,0,0,0,46,46,4,,,,,,,,,,,,num_3,0.9780987999984063,num_3,0.3,1.2,0.2,0.65,7.6411,24.83358,return,3.460794100014027,,,,,,,,,,,,,,,,,730,25,male,up_down_width,2024-08-29_10h34.03.935,exp1,2023.1.0,60.15927770487157,
,,,,,,,,,,,,,,,,3,8.2,10,11.8,0,0,1.7999999999999998,1.4,0.4,4,10,match,36.05,296,361,425,0,0,9,9,9,0,0,,,,,,,0,0,0,0,0,47,47,51,,,,,,,,,,,,num_3,1.6490303999744356,num_3,0.2,0.6,0.35,0.75,13.37193,28.65413,return,3.036684899998363,,,,,,,,,,,,,,,,,730,25,male,up_down_width,2024-08-29_10h34.03.935,exp1,2023.1.0,60.15927770487157,
,,,,,,,,,,,,,,,,5,8.2,9.1,10,10.9,11.8,0.9,0.65,0.25,3.85,10,initial,36.05,296,328,361,393,425,9,9,9,9,9,,,,,,,0,0,0,0,0,48,48,48,,,,,,,,,,,,num_4,1.207647100003669,num_4,0.5,1.3,0.15000000000000008,1.3,5.73083,49.66716,return,3.2382132000057027,,,,,,,,,,,,,,,,,730,25,male,up_down_width,2024-08-29_10h34.03.935,exp1,2023.1.0,60.15927770487157,
,,,,,,,,,,,,,,,,5,8.6,9.3,10,10.7,11.4,0.7,0.44999999999999996,0.25,3.05,10,initial,36.05,310,335,361,386,411,9,9,9,9,9,,,,,,,0,0,0,0,0,49,49,42,,,,,,,,,,,,num_4,0.9516184000240173,num_4,0.4,0.5,0.10000000000000007,0.4,3.82055,15.2822,return,2.607607600017218,,,,,,,,,,,,,,,,,730,25,male,up_down_width,2024-08-29_10h34.03.935,exp1,2023.1.0,60.15927770487157,
,,,,,,,,,,,,,,,,4,8.35,9.45,10.55,11.65,0,1.1,0.7000000000000001,0.4,3.7,10,initial,36.05,301,341,380,420,0,9,9,9,9,0,,,,,,,0,0,0,0,0,50,50,21,,,,,,,,,,,,num_4,0.9746695999929216,num_4,0.2,0.9,0.2,0.9,7.6411,34.38495,return,1.188756799994735,,,,,,,,,,,,,,,,,730,25,male,up_down_width,2024-08-29_10h34.03.935,exp1,2023.1.0,60.15927770487157,
,,,,,,,,,,,,,,,,3,8.9,10,11.1,0,0,1.1,0.8500000000000001,0.25,2.45,10,initial,36.05,321,361,400,0,0,9,9,9,0,0,,,,,,,0,0,0,0,0,51,51,2,,,,,,,,,,,,num_3,0.9442275999754202,num_3,0.25,0.4,0.15000000000000002,0.85,5.73083,32.47468,return,4.596783800021512,,,,,,,,,,,,,,,,,730,25,male,up_down_width,2024-08-29_10h34.03.935,exp1,2023.1.0,60.15927770487157,
,,,,,,,,,,,,,,,,,,,,,,,,,,,,,,,,,,,,,,,,,,,,,0,0,0,0,,,,,,,,,,,,,,,,,,,,,,,,,,,,,1017.2571647999866,1017.2571647999866,1017.2571647999866,,,,,,,,,,,,730,25,male,up_down_width,2024-08-29_10h34.03.935,exp1,2023.1.0,60.15927770487157,
,,,,,,,,,,,,,,,,3,9.3,10,10.7,0,0,0.7,0.29999999999999993,0.4,1.8,10,initial,36.05,335,361,386,0,0,9,9,9,0,0,,,,,,,1,0,1,0,0,0,0,9,,,,,,,,,,,,num_3,1.2320376000134274,num_3,0.55,0.8,0.4,0.75,15.2822,28.65413,return,2.632443099981174,,,,,,,,,,,,,,,,,730,25,male,up_down_width,2024-08-29_10h34.03.935,exp1,2023.1.0,60.15927770487157,
,,,,,,,,,,,,,,,,3,7.8,10,12.2,0,0,2.2,1.65,0.55,4.95,10,match,36.05,281,361,440,0,0,9,9,9,0,0,,,,,,,1,0,1,0,0,1,1,35,,,,,,,,,,,,num_3,0.9683579999837093,num_3,0.25,1.2,0.35,1.35,13.37193,51.57743,return,3.227320800011512,,,,,,,,,,,,,,,,,730,25,male,up_down_width,2024-08-29_10h34.03.935,exp1,2023.1.0,60.15927770487157,
,,,,,,,,,,,,,,,,4,8.95,9.65,10.35,11.05,0,0.7,0.44999999999999996,0.25,2.3499999999999996,10,initial,36.05,323,348,373,398,0,9,9,9,9,0,,,,,,,1,0,1,0,0,2,2,24,,,,,,,,,,,,num_3,1.0190422000014223,num_3,0.35,0.7,0.2,0.7,7.6411,26.74385,return,2.2565362000023015,,,,,,,,,,,,,,,,,730,25,male,up_down_width,2024-08-29_10h34.03.935,exp1,2023.1.0,60.15927770487157,
,,,,,,,,,,,,,,,,5,8.65,9.325,10,10.675,11.35,0.675,0.275,0.4,3.1,10,match,36.05,312,336,361,385,409,9,9,9,9,9,,,,,,,1,0,1,0,0,3,3,33,,,,,,,,,,,,num_4,0.782515400002012,num_4,0.2,0.4,0.3,0.5,11.46165,19.10275,return,2.7154041999892797,,,,,,,,,,,,,,,,,730,25,male,up_down_width,2024-08-29_10h34.03.935,exp1,2023.1.0,60.15927770487157,
,,,,,,,,,,,,,,,,3,8.9,10,11.1,0,0,1.1,0.7000000000000001,0.4,2.6000000000000005,10,initial,36.05,321,361,400,0,0,9,9,9,0,0,,,,,,,1,0,1,0,0,4,4,4,,,,,,,,,,,,num_3,0.9594846999971196,num_3,0.2,0.6,0.3,0.7,11.46165,26.74385,return,3.8639593000116292,,,,,,,,,,,,,,,,,730,25,male,up_down_width,2024-08-29_10h34.03.935,exp1,2023.1.0,60.15927770487157,
,,,,,,,,,,,,,,,,5,8.95,9.475,10,10.525,11.05,0.525,0.125,0.4,2.5,10,match,36.05,323,342,361,379,398,9,9,9,9,9,,,,,,,1,0,1,0,0,5,5,27,,,,,,,,,,,,num_4,0.9448803999985103,num_4,0.4,0.9,0.4,0.6,15.2822,22.9233,return,1.7138560999883339,,,,,,,,,,,,,,,,,730,25,male,up_down_width,2024-08-29_10h34.03.935,exp1,2023.1.0,60.15927770487157,
,,,,,,,,,,,,,,,,5,7.8,8.9,10,11.1,12.2,1.1,0.7000000000000001,0.4,4.800000000000001,10,initial,36.05,281,321,361,400,440,9,9,9,9,9,,,,,,,1,0,1,0,0,6,6,38,,,,,,,,,,,,num_5,1.3260748999891803,num_5,0.2,0.3,0.2,0.5,7.6411,19.10275,return,2.0562995999935083,,,,,,,,,,,,,,,,,730,25,male,up_down_width,2024-08-29_10h34.03.935,exp1,2023.1.0,60.15927770487157,
,,,,,,,,,,,,,,,,5,8.35,9.175,10,10.825,11.65,0.8250000000000001,0.275,0.55,3.85,10,match,36.05,301,331,361,390,420,9,9,9,9,9,,,,,,,1,0,1,0,0,7,7,18,,,,,,,,,,,,num_5,0.8540284000046086,num_5,0.35,0.6,0.35,0.6,13.37193,22.9233,return,0.8478866999794263,,,,,,,,,,,,,,,,,730,25,male,up_down_width,2024-08-29_10h34.03.935,exp1,2023.1.0,60.15927770487157,
,,,,,,,,,,,,,,,,5,8.35,9.175,10,10.825,11.65,0.825,0.575,0.25,3.55,10,match,36.05,301,331,361,390,420,9,9,9,9,9,,,,,,,1,0,1,0,0,8,8,20,,,,,,,,,,,,num_5,0.977917600015644,num_5,0.3,0.6,0.3,0.6,11.46165,22.9233,return,1.2680877999810036,,,,,,,,,,,,,,,,,730,25,male,up_down_width,2024-08-29_10h34.03.935,exp1,2023.1.0,60.15927770487157,
,,,,,,,,,,,,,,,,4,8.65,9.55,10.45,11.35,0,0.9,0.5,0.4,3.1,10,initial,36.05,312,344,377,409,0,9,9,9,9,0,,,,,,,1,0,1,0,0,9,9,32,,,,,,,,,,,,num_4,1.1920066000020597,num_4,0.5,0.7,0.30000000000000004,0.5,11.46165,19.10275,return,2.1635492999921553,,,,,,,,,,,,,,,,,730,25,male,up_down_width,2024-08-29_10h34.03.935,exp1,2023.1.0,60.15927770487157,
,,,,,,,,,,,,,,,,4,8.95,9.65,10.35,11.05,0,0.7,0.29999999999999993,0.4,2.5,10,initial,36.05,323,348,373,398,0,9,9,9,9,0,,,,,,,1,0,1,0,0,10,10,26,,,,,,,,,,,,num_4,0.8555479999922682,num_4,0.2,1.3,0.3,0.6,11.46165,22.9233,return,5.228893099993002,,,,,,,,,,,,,,,,,730,25,male,up_down_width,2024-08-29_10h34.03.935,exp1,2023.1.0,60.15927770487157,
,,,,,,,,,,,,,,,,5,7.8,8.9,10,11.1,12.2,1.1,0.55,0.55,4.95,10,initial,36.05,281,321,361,400,440,9,9,9,9,9,,,,,,,1,0,1,0,0,11,11,34,,,,,,,,,,,,num_4,0.9121726000157651,num_4,0.2,1.3,0.3,0.6,11.46165,22.9233,return,5.095300099987071,,,,,,,,,,,,,,,,,730,25,male,up_down_width,2024-08-29_10h34.03.935,exp1,2023.1.0,60.15927770487157,
,,,,,,,,,,,,,,,,3,9.3,10,10.7,0,0,0.7,0.44999999999999996,0.25,1.65,10,initial,36.05,335,361,386,0,0,9,9,9,0,0,,,,,,,1,0,1,0,0,12,12,7,,,,,,,,,,,,num_3,0.8973734999890439,num_3,0.5,0.6,0.20000000000000007,0.45,7.6411,17.19248,return,4.2209153000148945,,,,,,,,,,,,,,,,,730,25,male,up_down_width,2024-08-29_10h34.03.935,exp1,2023.1.0,60.15927770487157,
,,,,,,,,,,,,,,,,3,8.2,10,11.8,0,0,1.8,1.55,0.25,3.85,10,match,36.05,296,361,425,0,0,9,9,9,0,0,,,,,,,1,0,1,0,0,13,13,49,,,,,,,,,,,,num_3,0.908125599991763,num_3,0.2,0.6,0.2,1.35,7.6411,51.57743,return,4.4185035999980755,,,,,,,,,,,,,,,,,730,25,male,up_down_width,2024-08-29_10h34.03.935,exp1,2023.1.0,60.15927770487157,
,,,,,,,,,,,,,,,,4,8.65,9.55,10.45,11.35,0,0.9,0.65,0.25,2.95,10,initial,36.05,312,344,377,409,0,9,9,9,9,0,,,,,,,1,0,1,0,0,14,14,30,,,,,,,,,,,,num_3,1.0854564000037499,num_3,0.45,1.2,0.15000000000000008,1.2,5.73083,45.8466,return,2.842780800012406,,,,,,,,,,,,,,,,,730,25,male,up_down_width,2024-08-29_10h34.03.935,exp1,2023.1.0,60.15927770487157,
,,,,,,,,,,,,,,,,3,8.525,10,11.475,0,0,1.475,1.225,0.25,3.2,10,match,36.05,307,361,414,0,0,9,9,9,0,0,,,,,,,1,0,1,0,0,15,15,45,,,,,,,,,,,,num_3,1.4092993999947794,num_3,0.3,0.5,0.10000000000000002,1.1,3.82055,42.02605,return,5.121833099983633,,,,,,,,,,,,,,,,,730,25,male,up_down_width,2024-08-29_10h34.03.935,exp1,2023.1.0,60.15927770487157,
,,,,,,,,,,,,,,,,5,8.275,9.1375,10,10.8625,11.725,0.8625,0.6125,0.25,3.7,10,match,36.05,298,329,361,392,423,9,9,9,9,9,,,,,,,1,0,1,0,0,16,16,22,,,,,,,,,,,,num_4,4.7916131999809295,num_4,0.2,0.4,0.2,0.8,7.6411,30.5644,return,1.957946999988053,,,,,,,,,,,,,,,,,730,25,male,up_down_width,2024-08-29_10h34.03.935,exp1,2023.1.0,60.15927770487157,
,,,,,,,,,,,,,,,,4,8.9,9.633333333333333,10.366666666666667,11.1,0,0.7333333333333333,0.18333333333333326,0.55,2.75,10,match,36.05,321,347,374,400,0,9,9,9,9,0,,,,,,,1,0,1,0,0,17,17,1,,,,,,,,,,,,num_4,1.2260420999955386,num_4,0.3,0.4,0.3,0.6,11.46165,22.9233,return,1.5856982999830507,,,,,,,,,,,,,,,,,730,25,male,up_down_width,2024-08-29_10h34.03.935,exp1,2023.1.0,60.15927770487157,
,,,,,,,,,,,,,,,,3,8.2,10,11.8,0,0,1.8,1.25,0.55,4.15,10,match,36.05,296,361,425,0,0,9,9,9,0,0,,,,,,,1,0,1,0,0,18,18,47,,,,,,,,,,,,num_3,0.8947197000088636,num_3,0.2,1.2,0.49999999999999994,1.2,19.10275,45.8466,return,3.0618742000078782,,,,,,,,,,,,,,,,,730,25,male,up_down_width,2024-08-29_10h34.03.935,exp1,2023.1.0,60.15927770487157,
,,,,,,,,,,,,,,,,4,9.1,9.7,10.3,10.9,0,0.5999999999999999,0.3499999999999999,0.25,2.05,10,match,36.05,328,350,371,393,0,9,9,9,9,0,,,,,,,1,0,1,0,0,19,19,14,,,,,,,,,,,,num_4,0.972108100017067,num_4,0.25,0.4,0.25,0.6,9.55138,22.9233,return,1.6827238000114448,,,,,,,,,,,,,,,,,730,25,male,up_down_width,2024-08-29_10h34.03.935,exp1,2023.1.0,60.15927770487157,
,,,,,,,,,,,,,,,,3,8.2,10,11.8,0,0,1.7999999999999998,1.4,0.4,4,10,match,36.05,296,361,425,0,0,9,9,9,0,0,,,,,,,1,0,1,0,0,20,20,51,,,,,,,,,,,,num_3,0.8676008000038564,num_3,0.45,0.6,0.35000000000000003,1.1,13.37193,42.02605,return,3.4701058999926317,,,,,,,,,,,,,,,,,730,25,male,up_down_width,2024-08-29_10h34.03.935,exp1,2023.1.0,60.15927770487157,
,,,,,,,,,,,,,,,,3,8.9,10,11.1,0,0,1.1,0.55,0.55,2.75,10,initial,36.05,321,361,400,0,0,9,9,9,0,0,,,,,,,1,0,1,0,0,21,21,0,,,,,,,,,,,,num_3,1.6972806999983732,num_3,0.55,1.1,0.55,1.1,21.01303,42.02605,return,1.3022963000112213,,,,,,,,,,,,,,,,,730,25,male,up_down_width,2024-08-29_10h34.03.935,exp1,2023.1.0,60.15927770487157,
,,,,,,,,,,,,,,,,5,8.2,9.1,10,10.9,11.8,0.9,0.35,0.55,4.15,10,initial,36.05,296,328,361,393,425,9,9,9,9,9,,,,,,,1,0,1,0,0,22,22,46,,,,,,,,,,,,num_4,1.0571711999946274,num_4,0.35,0.7,0.35,0.9,13.37193,34.38495,return,1.5702837999851909,,,,,,,,,,,,,,,,,730,25,male,up_down_width,2024-08-29_10h34.03.935,exp1,2023.1.0,60.15927770487157,
,,,,,,,,,,,,,,,,4,9.1,9.7,10.3,10.9,0,0.6,0.04999999999999997,0.55,2.35,10,match,36.05,328,350,371,393,0,9,9,9,9,0,,,,,,,1,0,1,0,0,23,23,12,,,,,,,,,,,,num_4,1.2898885000031441,num_4,0.2,0.5,0.39999999999999997,0.5,15.2822,19.10275,return,2.191930400003912,,,,,,,,,,,,,,,,,730,25,male,up_down_width,2024-08-29_10h34.03.935,exp1,2023.1.0,60.15927770487157,
,,,,,,,,,,,,,,,,5,8.6,9.3,10,10.7,11.4,0.7,0.29999999999999993,0.4,3.1999999999999997,10,initial,36.05,310,335,361,386,411,9,9,9,9,9,,,,,,,1,0,1,0,0,24,24,44,,,,,,,,,,,,num_4,1.4407258999999613,num_4,0.2,0.9,0.3,0.5,11.46165,19.10275,return,2.8488283999904525,,,,,,,,,,,,,,,,,730,25,male,up_down_width,2024-08-29_10h34.03.935,exp1,2023.1.0,60.15927770487157,
,,,,,,,,,,,,,,,,4,8.35,9.45,10.55,11.65,0,1.1,0.55,0.55,3.8500000000000005,10,initial,36.05,301,341,380,420,0,9,9,9,9,0,,,,,,,1,0,1,0,0,25,25,17,,,,,,,,,,,,num_4,1.712995799985947,num_4,0.25,0.7,0.49999999999999994,0.7,19.10275,26.74385,return,2.427029499987839,,,,,,,,,,,,,,,,,730,25,male,up_down_width,2024-08-29_10h34.03.935,exp1,2023.1.0,60.15927770487157,
,,,,,,,,,,,,,,,,3,8.6,10,11.4,0,0,1.4,1.15,0.25,3.05,10,match,36.05,310,361,411,0,0,9,9,9,0,0,,,,,,,1,0,1,0,0,26,26,43,,,,,,,,,,,,num_3,1.064041100005852,num_3,0.3,0.5,0.3,1.1,11.46165,42.02605,return,2.886569899972528,,,,,,,,,,,,,,,,,730,25,male,up_down_width,2024-08-29_10h34.03.935,exp1,2023.1.0,60.15927770487157,
,,,,,,,,,,,,,,,,3,8.6,10,11.4,0,0,1.4,0.85,0.55,3.35,10,match,36.05,310,361,411,0,0,9,9,9,0,0,,,,,,,1,0,1,0,0,27,27,41,,,,,,,,,,,,num_3,1.1507794000208378,num_3,0.55,1.2,0.55,1.4,21.01303,53.48771,return,1.7234343999880366,,,,,,,,,,,,,,,,,730,25,male,up_down_width,2024-08-29_10h34.03.935,exp1,2023.1.0,60.15927770487157,
,,,,,,,,,,,,,,,,3,9.3,10,10.7,0,0,0.7,0.1499999999999999,0.55,1.95,10,initial,36.05,335,361,386,0,0,9,9,9,0,0,,,,,,,1,0,1,0,0,28,28,6,,,,,,,,,,,,num_3,0.9625016000063624,num_3,0.3,0.4,0.39999999999999997,0.5,15.2822,19.10275,return,2.618349899974419,,,,,,,,,,,,,,,,,730,25,male,up_down_width,2024-08-29_10h34.03.935,exp1,2023.1.0,60.15927770487157,
,,,,,,,,,,,,,,,,5,8.6,9.3,10,10.7,11.4,0.7,0.1499999999999999,0.55,3.3499999999999996,10,initial,36.05,310,335,361,386,411,9,9,9,9,9,,,,,,,1,0,1,0,0,29,29,40,,,,,,,,,,,,num_4,4.9819705999980215,num_4,0.25,1.2,0.35,0.5,13.37193,19.10275,return,8.295753100013826,,,,,,,,,,,,,,,,,730,25,male,up_down_width,2024-08-29_10h34.03.935,exp1,2023.1.0,60.15927770487157,
,,,,,,,,,,,,,,,,4,9.3,9.766666666666667,10.233333333333333,10.7,0,0.4666666666666667,0.21666666666666665,0.25,1.65,10,match,36.05,335,352,369,386,0,9,9,9,9,0,,,,,,,1,0,1,0,0,30,30,8,,,,,,,,,,,,num_4,1.0987132000154816,num_4,0.35,1.2,0.25,0.4,9.55138,15.2822,return,4.190042700007325,,,,,,,,,,,,,,,,,730,25,male,up_down_width,2024-08-29_10h34.03.935,exp1,2023.1.0,60.15927770487157,
,,,,,,,,,,,,,,,,3,9.1,10,10.9,0,0,0.9,0.5,0.4,2.2,10,initial,36.05,328,361,393,0,0,9,9,9,0,0,,,,,,,1,0,1,0,0,31,31,15,,,,,,,,,,,,num_3,5.587436400004663,num_3,0.2,1,0.15000000000000002,0.6,5.73083,22.9233,return,2.879456599999685,,,,,,,,,,,,,,,,,730,25,male,up_down_width,2024-08-29_10h34.03.935,exp1,2023.1.0,60.15927770487157,
,,,,,,,,,,,,,,,,3,9.1,10,10.9,0,0,0.9,0.65,0.25,2.05,10,initial,36.05,328,361,393,0,0,9,9,9,0,0,,,,,,,1,0,1,0,0,32,32,13,,,,,,,,,,,,num_3,1.0160193000047002,num_3,0.55,1.1,0.20000000000000007,0.55,7.6411,21.01303,return,6.842929200007347,,,,,,,,,,,,,,,,,730,25,male,up_down_width,2024-08-29_10h34.03.935,exp1,2023.1.0,60.15927770487157,
,,,,,,,,,,,,,,,,4,9.3,9.766666666666667,10.233333333333333,10.7,0,0.4666666666666667,0.06666666666666665,0.4,1.8,10,match,36.05,335,352,369,386,0,9,9,9,9,0,,,,,,,1,0,1,0,0,33,33,10,,,,,,,,,,,,num_4,1.7749523999809753,num_4,0.5,0.6,0.35000000000000003,0.5,13.37193,19.10275,return,3.4744818000181112,,,,,,,,,,,,,,,,,730,25,male,up_down_width,2024-08-29_10h34.03.935,exp1,2023.1.0,60.15927770487157,
,,,,,,,,,,,,,,,,5,8.65,9.325,10,10.675,11.35,0.675,0.42500000000000004,0.25,2.95,10,match,36.05,312,336,361,385,409,9,9,9,9,9,,,,,,,1,0,1,0,0,34,34,31,,,,,,,,,,,,num_4,0.9589736000052653,num_4,0.2,0.5,0.2,0.9,7.6411,34.38495,return,1.7480955999926664,,,,,,,,,,,,,,,,,730,25,male,up_down_width,2024-08-29_10h34.03.935,exp1,2023.1.0,60.15927770487157,
,,,,,,,,,,,,,,,,4,8.9,9.633333333333333,10.366666666666667,11.1,0,0.7333333333333334,0.4833333333333334,0.25,2.45,10,match,36.05,321,347,374,400,0,9,9,9,9,0,,,,,,,1,0,1,0,0,35,35,3,,,,,,,,,,,,num_4,2.435936199995922,num_4,0.4,1.2,0.25000000000000006,0.6,9.55138,22.9233,return,2.754316900012782,,,,,,,,,,,,,,,,,730,25,male,up_down_width,2024-08-29_10h34.03.935,exp1,2023.1.0,60.15927770487157,
,,,,,,,,,,,,,,,,5,7.8,8.9,10,11.1,12.2,1.1,0.8500000000000001,0.25,4.65,10,initial,36.05,281,321,361,400,440,9,9,9,9,9,,,,,,,1,0,1,0,0,36,36,36,,,,,,,,,,,,num_4,0.8841543000016827,num_4,0.25,1.1,0.2,1.5,7.6411,57.30826,return,3.291758100007428,,,,,,,,,,,,,,,,,730,25,male,up_down_width,2024-08-29_10h34.03.935,exp1,2023.1.0,60.15927770487157,
,,,,,,,,,,,,,,,,5,8.95,9.475,10,10.525,11.05,0.525,0.275,0.25,2.35,10,match,36.05,323,342,361,379,398,9,9,9,9,9,,,,,,,1,0,1,0,0,37,37,25,,,,,,,,,,,,num_4,1.4718377999961376,num_4,0.35,1.3,0.2,0.5,7.6411,19.10275,return,3.567408200004138,,,,,,,,,,,,,,,,,730,25,male,up_down_width,2024-08-29_10h34.03.935,exp1,2023.1.0,60.15927770487157,
,,,,,,,,,,,,,,,,5,8.6,9.3,10,10.7,11.4,0.7,0.44999999999999996,0.25,3.05,10,initial,36.05,310,335,361,386,411,9,9,9,9,9,,,,,,,1,0,1,0,0,38,38,42,,,,,,,,,,,,num_4,3.3349277999950573,num_4,0.25,0.5,0.2,0.8,7.6411,30.5644,return,2.8010384000081103,,,,,,,,,,,,,,,,,730,25,male,up_down_width,2024-08-29_10h34.03.935,exp1,2023.1.0,60.15927770487157,
,,,,,,,,,,,,,,,,4,8.35,9.45,10.55,11.65,0,1.1,0.8500000000000001,0.25,3.5500000000000003,10,initial,36.05,301,341,380,420,0,9,9,9,9,0,,,,,,,1,0,1,0,0,39,39,19,,,,,,,,,,,,num_4,2.424555799982045,num_4,0.4,1.2,0.20000000000000007,0.5,7.6411,19.10275,return,3.7176881000050344,,,,,,,,,,,,,,,,,730,25,male,up_down_width,2024-08-29_10h34.03.935,exp1,2023.1.0,60.15927770487157,
,,,,,,,,,,,,,,,,5,8.2,9.1,10,10.9,11.8,0.9,0.65,0.25,3.85,10,initial,36.05,296,328,361,393,425,9,9,9,9,9,,,,,,,1,0,1,0,0,40,40,48,,,,,,,,,,,,num_4,3.1397236000047997,num_4,0.2,1.2,0.2,1.0,7.6411,38.2055,return,2.189955900015775,,,,,,,,,,,,,,,,,730,25,male,up_down_width,2024-08-29_10h34.03.935,exp1,2023.1.0,60.15927770487157,
,,,,,,,,,,,,,,,,3,9.1,10,10.9,0,0,0.9,0.35,0.55,2.35,10,initial,36.05,328,361,393,0,0,9,9,9,0,0,,,,,,,1,0,1,0,0,41,41,11,,,,,,,,,,,,num_3,2.5018366999865975,num_3,0.2,1.1,0.35,0.65,13.37193,24.83358,return,3.3398400000005495,,,,,,,,,,,,,,,,,730,25,male,up_down_width,2024-08-29_10h34.03.935,exp1,2023.1.0,60.15927770487157,
,,,,,,,,,,,,,,,,3,7.800000000000001,10,12.2,0,0,2.1999999999999997,1.7999999999999998,0.4,4.8,10,match,36.05,281,361,440,0,0,9,9,9,0,0,,,,,,,1,0,1,0,0,42,42,39,,,,,,,,,,,,num_3,1.2615315000002738,num_3,0.35,0.6,0.35,2.0,13.37193,76.41101,return,5.653761200024746,,,,,,,,,,,,,,,,,730,25,male,up_down_width,2024-08-29_10h34.03.935,exp1,2023.1.0,60.15927770487157,
,,,,,,,,,,,,,,,,3,7.8,10,12.2,0,0,2.2,1.9500000000000002,0.25,4.65,10,match,36.05,281,361,440,0,0,9,9,9,0,0,,,,,,,1,0,1,0,0,43,43,37,,,,,,,,,,,,num_3,0.9593116999894846,num_3,0.5,0.9,0.25000000000000006,2.2,9.55138,84.05211,return,5.811143800005084,,,,,,,,,,,,,,,,,730,25,male,up_down_width,2024-08-29_10h34.03.935,exp1,2023.1.0,60.15927770487157,
,,,,,,,,,,,,,,,,5,8.65,9.325,10,10.675,11.35,0.675,0.125,0.55,3.25,10,match,36.05,312,336,361,385,409,9,9,9,9,9,,,,,,,1,0,1,0,0,44,44,29,,,,,,,,,,,,num_4,0.9147382999944966,num_4,0.2,0.5,0.65,0.8,24.83358,30.5644,return,8.230667600000743,,,,,,,,,,,,,,,,,730,25,male,up_down_width,2024-08-29_10h34.03.935,exp1,2023.1.0,60.15927770487157,
,,,,,,,,,,,,,,,,3,8.9,10,11.1,0,0,1.1,0.8500000000000001,0.25,2.45,10,initial,36.05,321,361,400,0,0,9,9,9,0,0,,,,,,,1,0,1,0,0,45,45,2,,,,,,,,,,,,num_3,1.9580610999837518,num_3,0.25,1.2,0.25,0.8,9.55138,30.5644,return,2.371797100000549,,,,,,,,,,,,,,,,,730,25,male,up_down_width,2024-08-29_10h34.03.935,exp1,2023.1.0,60.15927770487157,
,,,,,,,,,,,,,,,,4,8.65,9.55,10.45,11.35,0,0.9,0.35,0.55,3.25,10,initial,36.05,312,344,377,409,0,9,9,9,9,0,,,,,,,1,0,1,0,0,46,46,28,,,,,,,,,,,,num_4,2.2778353999892715,num_4,0.25,0.3,0.35,0.5,13.37193,19.10275,return,4.740704499970889,,,,,,,,,,,,,,,,,730,25,male,up_down_width,2024-08-29_10h34.03.935,exp1,2023.1.0,60.15927770487157,
,,,,,,,,,,,,,,,,4,9.1,9.7,10.3,10.9,0,0.6000000000000001,0.20000000000000004,0.4,2.2,10,match,36.05,328,350,371,393,0,9,9,9,9,0,,,,,,,1,0,1,0,0,47,47,16,,,,,,,,,,,,num_4,2.3088017999834847,num_4,0.25,1.3,0.25,0.4,9.55138,15.2822,return,2.83840720000444,,,,,,,,,,,,,,,,,730,25,male,up_down_width,2024-08-29_10h34.03.935,exp1,2023.1.0,60.15927770487157,
,,,,,,,,,,,,,,,,4,8.825,9.608333333333333,10.391666666666667,11.175,0,0.7833333333333333,0.5333333333333333,0.25,2.6,10,match,36.05,318,346,375,403,0,9,9,9,9,0,,,,,,,1,0,1,0,0,48,48,5,,,,,,,,,,,,num_4,2.067871199978981,num_4,0.25,0.6,0.25,0.4,9.55138,15.2822,return,2.1566093000001274,,,,,,,,,,,,,,,,,730,25,male,up_down_width,2024-08-29_10h34.03.935,exp1,2023.1.0,60.15927770487157,
,,,,,,,,,,,,,,,,5,8.2,9.1,10,10.9,11.8,0.9,0.5,0.4,4,10,initial,36.05,296,328,361,393,425,9,9,9,9,9,,,,,,,1,0,1,0,0,49,49,50,,,,,,,,,,,,num_4,1.7850713999941945,num_4,0.3,0.8,0.2,0.4,7.6411,15.2822,return,2.093758400005754,,,,,,,,,,,,,,,,,730,25,male,up_down_width,2024-08-29_10h34.03.935,exp1,2023.1.0,60.15927770487157,
,,,,,,,,,,,,,,,,4,8.95,9.65,10.35,11.05,0,0.7,0.1499999999999999,0.55,2.65,10,initial,36.05,323,348,373,398,0,9,9,9,9,0,,,,,,,1,0,1,0,0,50,50,23,,,,,,,,,,,,num_4,1.1103860999864992,num_4,0.25,0.4,0.39999999999999997,0.6,15.2822,22.9233,return,3.0083116999885533,,,,,,,,,,,,,,,,,730,25,male,up_down_width,2024-08-29_10h34.03.935,exp1,2023.1.0,60.15927770487157,
,,,,,,,,,,,,,,,,4,8.35,9.45,10.55,11.65,0,1.1,0.7000000000000001,0.4,3.7,10,initial,36.05,301,341,380,420,0,9,9,9,9,0,,,,,,,1,0,1,0,0,51,51,21,,,,,,,,,,,,num_4,3.36738709997735,num_4,0.5,1.1,0.35000000000000003,0.5,13.37193,19.10275,return,3.391325800010236,,,,,,,,,,,,,,,,,730,25,male,up_down_width,2024-08-29_10h34.03.935,exp1,2023.1.0,60.15927770487157,
,,,,,,,,,,,,,,,,,,,,,,,,,,,,,,,,,,,,,,,,,,,,,1,0,1,0,,,,,,,,,,,,,,,,,,,,,,,,,,,,,1412.3071601999982,1412.3071601999982,1412.3071601999982,,,,,,,,,,,,730,25,male,up_down_width,2024-08-29_10h34.03.935,exp1,2023.1.0,60.15927770487157,
,,,,,,,,,,,,,,,,3,9.3,10,10.7,0,0,0.7,0.44999999999999996,0.25,1.65,10,initial,36.05,335,361,386,0,0,9,9,9,0,0,,,,,,,2,0,2,0,0,0,0,7,,,,,,,,,,,,num_3,1.0187864000035916,num_3,0.2,1.2,0.2,0.6,7.6411,22.9233,return,3.0402322000009008,,,,,,,,,,,,,,,,,730,25,male,up_down_width,2024-08-29_10h34.03.935,exp1,2023.1.0,60.15927770487157,
,,,,,,,,,,,,,,,,5,8.95,9.475,10,10.525,11.05,0.525,0.125,0.4,2.5,10,match,36.05,323,342,361,379,398,9,9,9,9,9,,,,,,,2,0,2,0,0,1,1,27,,,,,,,,,,,,num_4,1.1925094999896828,num_4,0.45,0.9,0.25000000000000006,0.4,9.55138,15.2822,return,3.043095800006995,,,,,,,,,,,,,,,,,730,25,male,up_down_width,2024-08-29_10h34.03.935,exp1,2023.1.0,60.15927770487157,
,,,,,,,,,,,,,,,,3,8.2,10,11.8,0,0,1.7999999999999998,1.4,0.4,4,10,match,36.05,296,361,425,0,0,9,9,9,0,0,,,,,,,2,0,2,0,0,2,2,51,,,,,,,,,,,,num_3,0.9772657999710646,num_3,0.45,1,0.25000000000000006,1.65,9.55138,63.03908,return,3.8165446000057273,,,,,,,,,,,,,,,,,730,25,male,up_down_width,2024-08-29_10h34.03.935,exp1,2023.1.0,60.15927770487157,
,,,,,,,,,,,,,,,,3,9.1,10,10.9,0,0,0.9,0.5,0.4,2.2,10,initial,36.05,328,361,393,0,0,9,9,9,0,0,,,,,,,2,0,2,0,0,3,3,15,,,,,,,,,,,,num_3,1.0696090999990702,num_3,0.3,0.4,0.3,1.0,11.46165,38.2055,return,2.796860500006005,,,,,,,,,,,,,,,,,730,25,male,up_down_width,2024-08-29_10h34.03.935,exp1,2023.1.0,60.15927770487157,
,,,,,,,,,,,,,,,,5,8.65,9.325,10,10.675,11.35,0.675,0.125,0.55,3.25,10,match,36.05,312,336,361,385,409,9,9,9,9,9,,,,,,,2,0,2,0,0,4,4,29,,,,,,,,,,,,num_3,3.6690751999849454,num_3,0.35,0.5,0.35,0.9,13.37193,34.38495,return,2.768411400000332,,,,,,,,,,,,,,,,,730,25,male,up_down_width,2024-08-29_10h34.03.935,exp1,2023.1.0,60.15927770487157,
,,,,,,,,,,,,,,,,3,8.9,10,11.1,0,0,1.1,0.55,0.55,2.75,10,initial,36.05,321,361,400,0,0,9,9,9,0,0,,,,,,,2,0,2,0,0,5,5,0,,,,,,,,,,,,num_3,1.6278032999834977,num_3,0.25,1.3,0.39999999999999997,0.75,15.2822,28.65413,return,3.685002499987604,,,,,,,,,,,,,,,,,730,25,male,up_down_width,2024-08-29_10h34.03.935,exp1,2023.1.0,60.15927770487157,
,,,,,,,,,,,,,,,,4,8.35,9.45,10.55,11.65,0,1.1,0.55,0.55,3.8500000000000005,10,initial,36.05,301,341,380,420,0,9,9,9,9,0,,,,,,,2,0,2,0,0,6,6,17,,,,,,,,,,,,num_4,0.8312194999889471,num_4,0.45,1.0,0.35000000000000003,0.8,13.37193,30.5644,return,2.7102524999936577,,,,,,,,,,,,,,,,,730,25,male,up_down_width,2024-08-29_10h34.03.935,exp1,2023.1.0,60.15927770487157,
,,,,,,,,,,,,,,,,5,7.8,8.9,10,11.1,12.2,1.1,0.8500000000000001,0.25,4.65,10,initial,36.05,281,321,361,400,440,9,9,9,9,9,,,,,,,2,0,2,0,0,7,7,36,,,,,,,,,,,,num_4,0.8828506999998353,num_4,0.5,1.0,0.15000000000000008,1.4,5.73083,53.48771,return,4.249641500005964,,,,,,,,,,,,,,,,,730,25,male,up_down_width,2024-08-29_10h34.03.935,exp1,2023.1.0,60.15927770487157,
,,,,,,,,,,,,,,,,5,8.6,9.3,10,10.7,11.4,0.7,0.1499999999999999,0.55,3.3499999999999996,10,initial,36.05,310,335,361,386,411,9,9,9,9,9,,,,,,,2,0,2,0,0,8,8,40,,,,,,,,,,,,num_4,1.2291599000163842,num_4,0.45,0.8,0.4,0.6,15.2822,22.9233,return,3.865601199999219,,,,,,,,,,,,,,,,,730,25,male,up_down_width,2024-08-29_10h34.03.935,exp1,2023.1.0,60.15927770487157,
,,,,,,,,,,,,,,,,3,8.9,10,11.1,0,0,1.1,0.8500000000000001,0.25,2.45,10,initial,36.05,321,361,400,0,0,9,9,9,0,0,,,,,,,2,0,2,0,0,9,9,2,,,,,,,,,,,,num_3,2.8823097000131384,num_3,0.55,1,0.25000000000000006,0.85,9.55138,32.47468,return,3.870732200011844,,,,,,,,,,,,,,,,,730,25,male,up_down_width,2024-08-29_10h34.03.935,exp1,2023.1.0,60.15927770487157,
,,,,,,,,,,,,,,,,3,9.3,10,10.7,0,0,0.7,0.1499999999999999,0.55,1.95,10,initial,36.05,335,361,386,0,0,9,9,9,0,0,,,,,,,2,0,2,0,0,10,10,6,,,,,,,,,,,,num_3,1.206755899998825,num_3,0.35,1.2,0.35,0.5,13.37193,19.10275,return,3.0301666999876034,,,,,,,,,,,,,,,,,730,25,male,up_down_width,2024-08-29_10h34.03.935,exp1,2023.1.0,60.15927770487157,
,,,,,,,,,,,,,,,,3,8.2,10,11.8,0,0,1.8,1.25,0.55,4.15,10,match,36.05,296,361,425,0,0,9,9,9,0,0,,,,,,,2,0,2,0,0,11,11,47,,,,,,,,,,,,num_3,1.1172774000151549,num_3,0.35,0.9,0.35,1.55,13.37193,59.21853,return,3.0841320999898016,,,,,,,,,,,,,,,,,730,25,male,up_down_width,2024-08-29_10h34.03.935,exp1,2023.1.0,60.15927770487157,
,,,,,,,,,,,,,,,,3,7.8,10,12.2,0,0,2.2,1.65,0.55,4.95,10,match,36.05,281,361,440,0,0,9,9,9,0,0,,,,,,,2,0,2,0,0,12,12,35,,,,,,,,,,,,num_3,1.8825914000044577,num_3,0.35,1.1,0.35,2.0,13.37193,76.41101,return,4.9863034000154585,,,,,,,,,,,,,,,,,730,25,male,up_down_width,2024-08-29_10h34.03.935,exp1,2023.1.0,60.15927770487157,
,,,,,,,,,,,,,,,,3,8.6,10,11.4,0,0,1.4,1.15,0.25,3.05,10,match,36.05,310,361,411,0,0,9,9,9,0,0,,,,,,,2,0,2,0,0,13,13,43,,,,,,,,,,,,num_3,0.9385372000106145,num_3,0.55,0.7,0.10000000000000007,1.95,3.82055,74.50073,return,7.036596999998437,,,,,,,,,,,,,,,,,730,25,male,up_down_width,2024-08-29_10h34.03.935,exp1,2023.1.0,60.15927770487157,
,,,,,,,,,,,,,,,,5,8.2,9.1,10,10.9,11.8,0.9,0.5,0.4,4,10,initial,36.05,296,328,361,393,425,9,9,9,9,9,,,,,,,2,0,2,0,0,14,14,50,,,,,,,,,,,,num_4,0.9610761000076309,num_4,0.3,0.9,0.25,1.2,9.55138,45.8466,return,2.6518049000005703,,,,,,,,,,,,,,,,,730,25,male,up_down_width,2024-08-29_10h34.03.935,exp1,2023.1.0,60.15927770487157,
,,,,,,,,,,,,,,,,5,8.65,9.325,10,10.675,11.35,0.675,0.275,0.4,3.1,10,match,36.05,312,336,361,385,409,9,9,9,9,9,,,,,,,2,0,2,0,0,15,15,33,,,,,,,,,,,,num_4,0.9884940999909304,num_4,0.2,0.5,0.25,0.9,9.55138,34.38495,return,2.992526599991834,,,,,,,,,,,,,,,,,730,25,male,up_down_width,2024-08-29_10h34.03.935,exp1,2023.1.0,60.15927770487157,
,,,,,,,,,,,,,,,,4,8.35,9.45,10.55,11.65,0,1.1,0.7000000000000001,0.4,3.7,10,initial,36.05,301,341,380,420,0,9,9,9,9,0,,,,,,,2,0,2,0,0,16,16,21,,,,,,,,,,,,num_4,1.149602599994978,num_4,0.25,1.0,0.25,0.7,9.55138,26.74385,return,3.1627563000074588,,,,,,,,,,,,,,,,,730,25,male,up_down_width,2024-08-29_10h34.03.935,exp1,2023.1.0,60.15927770487157,
,,,,,,,,,,,,,,,,4,9.3,9.766666666666667,10.233333333333333,10.7,0,0.4666666666666667,0.21666666666666665,0.25,1.65,10,match,36.05,335,352,369,386,0,9,9,9,9,0,,,,,,,2,0,2,0,0,17,17,8,,,,,,,,,,,,num_4,2.7008688999922015,num_4,0.2,0.6,0.2,0.4,7.6411,15.2822,return,1.531138499994995,,,,,,,,,,,,,,,,,730,25,male,up_down_width,2024-08-29_10h34.03.935,exp1,2023.1.0,60.15927770487157,
,,,,,,,,,,,,,,,,3,7.800000000000001,10,12.2,0,0,2.1999999999999997,1.7999999999999998,0.4,4.8,10,match,36.05,281,361,440,0,0,9,9,9,0,0,,,,,,,2,0,2,0,0,18,18,39,,,,,,,,,,,,num_3,2.0744553999975324,num_3,0.2,0.7,0.2,1.4,7.6411,53.48771,return,3.572708599996986,,,,,,,,,,,,,,,,,730,25,male,up_down_width,2024-08-29_10h34.03.935,exp1,2023.1.0,60.15927770487157,
,,,,,,,,,,,,,,,,4,8.65,9.55,10.45,11.35,0,0.9,0.35,0.55,3.25,10,initial,36.05,312,344,377,409,0,9,9,9,9,0,,,,,,,2,0,2,0,0,19,19,28,,,,,,,,,,,,num_3,2.0669240999850444,num_3,0.35,1,0.35,0.7,13.37193,26.74385,return,2.0157593000039924,,,,,,,,,,,,,,,,,730,25,male,up_down_width,2024-08-29_10h34.03.935,exp1,2023.1.0,60.15927770487157,
,,,,,,,,,,,,,,,,5,8.65,9.325,10,10.675,11.35,0.675,0.42500000000000004,0.25,2.95,10,match,36.05,312,336,361,385,409,9,9,9,9,9,,,,,,,2,0,2,0,0,20,20,31,,,,,,,,,,,,num_4,3.3532033000083175,num_4,0.35,0.5,0.2,0.8,7.6411,30.5644,return,2.337490699981572,,,,,,,,,,,,,,,,,730,25,male,up_down_width,2024-08-29_10h34.03.935,exp1,2023.1.0,60.15927770487157,
,,,,,,,,,,,,,,,,4,9.1,9.7,10.3,10.9,0,0.6000000000000001,0.20000000000000004,0.4,2.2,10,match,36.05,328,350,371,393,0,9,9,9,9,0,,,,,,,2,0,2,0,0,21,21,16,,,,,,,,,,,,num_4,1.201109500019811,num_4,0.25,0.7,0.3,0.5,11.46165,19.10275,return,1.2958356000017375,,,,,,,,,,,,,,,,,730,25,male,up_down_width,2024-08-29_10h34.03.935,exp1,2023.1.0,60.15927770487157,
,,,,,,,,,,,,,,,,5,8.2,9.1,10,10.9,11.8,0.9,0.35,0.55,4.15,10,initial,36.05,296,328,361,393,425,9,9,9,9,9,,,,,,,2,0,2,0,0,22,22,46,,,,,,,,,,,,num_5,2.9525524000055157,num_5,0.25,1.1,0.2,0.35,7.6411,13.37193,return,4.62102949997643,,,,,,,,,,,,,,,,,730,25,male,up_down_width,2024-08-29_10h34.03.935,exp1,2023.1.0,60.15927770487157,
,,,,,,,,,,,,,,,,4,8.35,9.45,10.55,11.65,0,1.1,0.8500000000000001,0.25,3.5500000000000003,10,initial,36.05,301,341,380,420,0,9,9,9,9,0,,,,,,,2,0,2,0,0,23,23,19,,,,,,,,,,,,num_4,2.8583185999887064,num_4,0.3,0.7,0.2,0.7,7.6411,26.74385,return,2.863085199991474,,,,,,,,,,,,,,,,,730,25,male,up_down_width,2024-08-29_10h34.03.935,exp1,2023.1.0,60.15927770487157,
,,,,,,,,,,,,,,,,3,9.1,10,10.9,0,0,0.9,0.65,0.25,2.05,10,initial,36.05,328,361,393,0,0,9,9,9,0,0,,,,,,,2,0,2,0,0,24,24,13,,,,,,,,,,,,num_3,1.8409594999975525,num_3,0.35,1.3,0.25,0.6,9.55138,22.9233,return,4.293425299983937,,,,,,,,,,,,,,,,,730,25,male,up_down_width,2024-08-29_10h34.03.935,exp1,2023.1.0,60.15927770487157,
,,,,,,,,,,,,,,,,5,8.6,9.3,10,10.7,11.4,0.7,0.29999999999999993,0.4,3.1999999999999997,10,initial,36.05,310,335,361,386,411,9,9,9,9,9,,,,,,,2,0,2,0,0,25,25,44,,,,,,,,,,,,num_4,1.8695224999974016,num_4,0.5,0.9,0.30000000000000004,0.5,11.46165,19.10275,return,2.4661401999765076,,,,,,,,,,,,,,,,,730,25,male,up_down_width,2024-08-29_10h34.03.935,exp1,2023.1.0,60.15927770487157,
,,,,,,,,,,,,,,,,3,8.525,10,11.475,0,0,1.475,1.225,0.25,3.2,10,match,36.05,307,361,414,0,0,9,9,9,0,0,,,,,,,2,0,2,0,0,26,26,45,,,,,,,,,,,,num_3,1.0426289000024553,num_3,0.35,0.5,0.15000000000000002,0.5,5.73083,19.10275,return,3.6488123000017367,,,,,,,,,,,,,,,,,730,25,male,up_down_width,2024-08-29_10h34.03.935,exp1,2023.1.0,60.15927770487157,
,,,,,,,,,,,,,,,,5,8.35,9.175,10,10.825,11.65,0.8250000000000001,0.275,0.55,3.85,10,match,36.05,301,331,361,390,420,9,9,9,9,9,,,,,,,2,0,2,0,0,27,27,18,,,,,,,,,,,,num_4,2.3603974000143353,num_4,0.3,0.8,0.3,0.4,11.46165,15.2822,return,1.6664634000044316,,,,,,,,,,,,,,,,,730,25,male,up_down_width,2024-08-29_10h34.03.935,exp1,2023.1.0,60.15927770487157,
,,,,,,,,,,,,,,,,4,8.95,9.65,10.35,11.05,0,0.7,0.29999999999999993,0.4,2.5,10,initial,36.05,323,348,373,398,0,9,9,9,9,0,,,,,,,2,0,2,0,0,28,28,26,,,,,,,,,,,,num_4,3.928844400012167,num_4,0.2,1.0,0.25,0.4,9.55138,15.2822,return,3.1756242999981623,,,,,,,,,,,,,,,,,730,25,male,up_down_width,2024-08-29_10h34.03.935,exp1,2023.1.0,60.15927770487157,
,,,,,,,,,,,,,,,,4,8.65,9.55,10.45,11.35,0,0.9,0.5,0.4,3.1,10,initial,36.05,312,344,377,409,0,9,9,9,9,0,,,,,,,2,0,2,0,0,29,29,32,,,,,,,,,,,,num_3,1.8361219000071287,num_3,0.5,0.7,0.35000000000000003,0.55,13.37193,21.01303,return,2.303488000005018,,,,,,,,,,,,,,,,,730,25,male,up_down_width,2024-08-29_10h34.03.935,exp1,2023.1.0,60.15927770487157,
,,,,,,,,,,,,,,,,4,8.9,9.633333333333333,10.366666666666667,11.1,0,0.7333333333333334,0.4833333333333334,0.25,2.45,10,match,36.05,321,347,374,400,0,9,9,9,9,0,,,,,,,2,0,2,0,0,30,30,3,,,,,,,,,,,,num_3,1.0816317000135314,num_3,0.3,0.4,0.2,0.35,7.6411,13.37193,return,3.5308416000043508,,,,,,,,,,,,,,,,,730,25,male,up_down_width,2024-08-29_10h34.03.935,exp1,2023.1.0,60.15927770487157,
,,,,,,,,,,,,,,,,3,7.8,10,12.2,0,0,2.2,1.9500000000000002,0.25,4.65,10,match,36.05,281,361,440,0,0,9,9,9,0,0,,,,,,,2,0,2,0,0,31,31,37,,,,,,,,,,,,num_3,1.1278534999873955,num_3,0.3,0.7,0.2,2.0,7.6411,76.41101,return,7.013031900016358,,,,,,,,,,,,,,,,,730,25,male,up_down_width,2024-08-29_10h34.03.935,exp1,2023.1.0,60.15927770487157,
,,,,,,,,,,,,,,,,4,9.3,9.766666666666667,10.233333333333333,10.7,0,0.4666666666666667,0.06666666666666665,0.4,1.8,10,match,36.05,335,352,369,386,0,9,9,9,9,0,,,,,,,2,0,2,0,0,32,32,10,,,,,,,,,,,,num_4,4.2258078000159,num_4,0.35,1.0,0.35,0.4,13.37193,15.2822,return,3.2000312999880407,,,,,,,,,,,,,,,,,730,25,male,up_down_width,2024-08-29_10h34.03.935,exp1,2023.1.0,60.15927770487157,
,,,,,,,,,,,,,,,,4,8.9,9.633333333333333,10.366666666666667,11.1,0,0.7333333333333333,0.18333333333333326,0.55,2.75,10,match,36.05,321,347,374,400,0,9,9,9,9,0,,,,,,,2,0,2,0,0,33,33,1,,,,,,,,,,,,num_3,1.578994799987413,num_3,0.3,1.3,0.44999999999999996,0.5,17.19248,19.10275,return,4.890206999989459,,,,,,,,,,,,,,,,,730,25,male,up_down_width,2024-08-29_10h34.03.935,exp1,2023.1.0,60.15927770487157,
,,,,,,,,,,,,,,,,5,8.2,9.1,10,10.9,11.8,0.9,0.65,0.25,3.85,10,initial,36.05,296,328,361,393,425,9,9,9,9,9,,,,,,,2,0,2,0,0,34,34,48,,,,,,,,,,,,num_4,1.864147399988724,num_4,0.45,1.0,0.15000000000000008,1.2,5.73083,45.8466,return,3.8151709999947343,,,,,,,,,,,,,,,,,730,25,male,up_down_width,2024-08-29_10h34.03.935,exp1,2023.1.0,60.15927770487157,
,,,,,,,,,,,,,,,,4,8.95,9.65,10.35,11.05,0,0.7,0.44999999999999996,0.25,2.3499999999999996,10,initial,36.05,323,348,373,398,0,9,9,9,9,0,,,,,,,2,0,2,0,0,35,35,24,,,,,,,,,,,,num_4,2.3963512999762315,num_4,0.3,1.0,0.2,0.6,7.6411,22.9233,return,2.3585321999853477,,,,,,,,,,,,,,,,,730,25,male,up_down_width,2024-08-29_10h34.03.935,exp1,2023.1.0,60.15927770487157,
,,,,,,,,,,,,,,,,4,9.1,9.7,10.3,10.9,0,0.6,0.04999999999999997,0.55,2.35,10,match,36.05,328,350,371,393,0,9,9,9,9,0,,,,,,,2,0,2,0,0,36,36,12,,,,,,,,,,,,num_4,2.051965599996038,num_4,0.4,1.3,0.4,0.5,15.2822,19.10275,return,2.4286972999980208,,,,,,,,,,,,,,,,,730,25,male,up_down_width,2024-08-29_10h34.03.935,exp1,2023.1.0,60.15927770487157,
,,,,,,,,,,,,,,,,5,8.95,9.475,10,10.525,11.05,0.525,0.275,0.25,2.35,10,match,36.05,323,342,361,379,398,9,9,9,9,9,,,,,,,2,0,2,0,0,37,37,25,,,,,,,,,,,,num_5,3.6774956999870483,num_5,0.35,1.3,0.25,0.5,9.55138,19.10275,return,3.813075799989747,,,,,,,,,,,,,,,,,730,25,male,up_down_width,2024-08-29_10h34.03.935,exp1,2023.1.0,60.15927770487157,
,,,,,,,,,,,,,,,,3,9.1,10,10.9,0,0,0.9,0.35,0.55,2.35,10,initial,36.05,328,361,393,0,0,9,9,9,0,0,,,,,,,2,0,2,0,0,38,38,11,,,,,,,,,,,,num_3,1.2393003999895882,num_3,0.3,1.2,0.3,0.5,11.46165,19.10275,return,3.1712561000022106,,,,,,,,,,,,,,,,,730,25,male,up_down_width,2024-08-29_10h34.03.935,exp1,2023.1.0,60.15927770487157,
,,,,,,,,,,,,,,,,4,8.825,9.608333333333333,10.391666666666667,11.175,0,0.7833333333333333,0.5333333333333333,0.25,2.6,10,match,36.05,318,346,375,403,0,9,9,9,9,0,,,,,,,2,0,2,0,0,39,39,5,,,,,,,,,,,,num_4,1.0649741000088397,num_4,0.5,1.2,0.25000000000000006,0.7,9.55138,26.74385,return,2.793655999994371,,,,,,,,,,,,,,,,,730,25,male,up_down_width,2024-08-29_10h34.03.935,exp1,2023.1.0,60.15927770487157,
,,,,,,,,,,,,,,,,5,8.6,9.3,10,10.7,11.4,0.7,0.44999999999999996,0.25,3.05,10,initial,36.05,310,335,361,386,411,9,9,9,9,9,,,,,,,2,0,2,0,0,40,40,42,,,,,,,,,,,,num_4,0.943365699989954,num_4,0.55,1.0,0.30000000000000004,0.6,11.46165,22.9233,return,4.471299999975599,,,,,,,,,,,,,,,,,730,25,male,up_down_width,2024-08-29_10h34.03.935,exp1,2023.1.0,60.15927770487157,
,,,,,,,,,,,,,,,,3,8.2,10,11.8,0,0,1.8,1.55,0.25,3.85,10,match,36.05,296,361,425,0,0,9,9,9,0,0,,,,,,,2,0,2,0,0,41,41,49,,,,,,,,,,,,num_3,1.181041500007268,num_3,0.5,0.8,0.15000000000000008,0.65,5.73083,24.83358,return,4.137333499995293,,,,,,,,,,,,,,,,,730,25,male,up_down_width,2024-08-29_10h34.03.935,exp1,2023.1.0,60.15927770487157,
,,,,,,,,,,,,,,,,5,8.35,9.175,10,10.825,11.65,0.825,0.575,0.25,3.55,10,match,36.05,301,331,361,390,420,9,9,9,9,9,,,,,,,2,0,2,0,0,42,42,20,,,,,,,,,,,,num_4,1.0240842000057455,num_4,0.4,0.9,0.20000000000000007,0.7,7.6411,26.74385,return,2.5576452999957837,,,,,,,,,,,,,,,,,730,25,male,up_down_width,2024-08-29_10h34.03.935,exp1,2023.1.0,60.15927770487157,
,,,,,,,,,,,,,,,,3,8.9,10,11.1,0,0,1.1,0.7000000000000001,0.4,2.6000000000000005,10,initial,36.05,321,361,400,0,0,9,9,9,0,0,,,,,,,2,0,2,0,0,43,43,4,,,,,,,,,,,,num_3,1.0748118000046816,num_3,0.5,0.7,0.20000000000000007,0.6,7.6411,22.9233,return,2.4695731999818236,,,,,,,,,,,,,,,,,730,25,male,up_down_width,2024-08-29_10h34.03.935,exp1,2023.1.0,60.15927770487157,
,,,,,,,,,,,,,,,,5,7.8,8.9,10,11.1,12.2,1.1,0.55,0.55,4.95,10,initial,36.05,281,321,361,400,440,9,9,9,9,9,,,,,,,2,0,2,0,0,44,44,34,,,,,,,,,,,,num_5,4.8496456000139005,num_5,0.2,1.3,0.3,1.0,11.46165,38.2055,return,2.9198967999836896,,,,,,,,,,,,,,,,,730,25,male,up_down_width,2024-08-29_10h34.03.935,exp1,2023.1.0,60.15927770487157,
,,,,,,,,,,,,,,,,5,7.8,8.9,10,11.1,12.2,1.1,0.7000000000000001,0.4,4.800000000000001,10,initial,36.05,281,321,361,400,440,9,9,9,9,9,,,,,,,2,0,2,0,0,45,45,38,,,,,,,,,,,,num_5,1.7725457999913488,num_5,0.45,0.6,0.20000000000000007,1.0,7.6411,38.2055,return,7.332253300002776,,,,,,,,,,,,,,,,,730,25,male,up_down_width,2024-08-29_10h34.03.935,exp1,2023.1.0,60.15927770487157,
,,,,,,,,,,,,,,,,3,8.6,10,11.4,0,0,1.4,0.85,0.55,3.35,10,match,36.05,310,361,411,0,0,9,9,9,0,0,,,,,,,2,0,2,0,0,46,46,41,,,,,,,,,,,,num_3,1.0677733000193257,num_3,0.3,1.2,0.5499999999999999,1.2,21.01303,45.8466,return,1.920852199982619,,,,,,,,,,,,,,,,,730,25,male,up_down_width,2024-08-29_10h34.03.935,exp1,2023.1.0,60.15927770487157,
,,,,,,,,,,,,,,,,4,8.65,9.55,10.45,11.35,0,0.9,0.65,0.25,2.95,10,initial,36.05,312,344,377,409,0,9,9,9,9,0,,,,,,,2,0,2,0,0,47,47,30,,,,,,,,,,,,num_3,4.243292099999962,num_3,0.2,0.3,0.2,1.05,7.6411,40.11578,return,3.9745574000116903,,,,,,,,,,,,,,,,,730,25,male,up_down_width,2024-08-29_10h34.03.935,exp1,2023.1.0,60.15927770487157,
,,,,,,,,,,,,,,,,5,8.275,9.1375,10,10.8625,11.725,0.8625,0.6125,0.25,3.7,10,match,36.05,298,329,361,392,423,9,9,9,9,9,,,,,,,2,0,2,0,0,48,48,22,,,,,,,,,,,,num_1,1.486554300005082,num_1,0.45,9999,0.45,9999,17.19248,382016.8345,return,9.136004300002242,,,,,,,,,,,,,,,,,730,25,male,up_down_width,2024-08-29_10h34.03.935,exp1,2023.1.0,60.15927770487157,
,,,,,,,,,,,,,,,,3,9.3,10,10.7,0,0,0.7,0.29999999999999993,0.4,1.8,10,initial,36.05,335,361,386,0,0,9,9,9,0,0,,,,,,,2,0,2,0,0,49,49,9,,,,,,,,,,,,num_3,1.5962132999848109,num_3,0.2,0.8,0.3,0.45,11.46165,17.19248,return,3.612744099984411,,,,,,,,,,,,,,,,,730,25,male,up_down_width,2024-08-29_10h34.03.935,exp1,2023.1.0,60.15927770487157,
,,,,,,,,,,,,,,,,4,9.1,9.7,10.3,10.9,0,0.5999999999999999,0.3499999999999999,0.25,2.05,10,match,36.05,328,350,371,393,0,9,9,9,9,0,,,,,,,2,0,2,0,0,50,50,14,,,,,,,,,,,,num_4,1.566721300012432,num_4,0.45,0.5,0.20000000000000007,0.3,7.6411,11.46165,return,8.762494199996581,,,,,,,,,,,,,,,,,730,25,male,up_down_width,2024-08-29_10h34.03.935,exp1,2023.1.0,60.15927770487157,
,,,,,,,,,,,,,,,,4,8.95,9.65,10.35,11.05,0,0.7,0.1499999999999999,0.55,2.65,10,initial,36.05,323,348,373,398,0,9,9,9,9,0,,,,,,,2,0,2,0,0,51,51,23,,,,,,,,,,,,num_4,2.410555700014811,num_4,0.25,0.3,0.25,0.4,9.55138,15.2822,return,2.5842576999857556,,,,,,,,,,,,,,,,,730,25,male,up_down_width,2024-08-29_10h34.03.935,exp1,2023.1.0,60.15927770487157,
,,,,,,,,,,,,,,,,,,,,,,,,,,,,,,,,,,,,,,,,,,,,,2,0,2,0,,,,,,,,,,,,,,,,,,,,,,,,,,,,,1872.0572317999904,1872.0572317999904,1872.0572317999904,,,,,,,,,,,,730,25,male,up_down_width,2024-08-29_10h34.03.935,exp1,2023.1.0,60.15927770487157,
,,,,,,,,,,,,,,,,4,9.1,9.7,10.3,10.9,0,0.6000000000000001,0.20000000000000004,0.4,2.2,10,match,36.05,328,350,371,393,0,9,9,9,9,0,,,,,,,3,0,3,0,0,0,0,16,,,,,,,,,,,,num_4,1.7508946000016294,num_4,0.5,0.7,0.25000000000000006,0.5,9.55138,19.10275,return,4.9687662000069395,,,,,,,,,,,,,,,,,730,25,male,up_down_width,2024-08-29_10h34.03.935,exp1,2023.1.0,60.15927770487157,
,,,,,,,,,,,,,,,,3,9.3,10,10.7,0,0,0.7,0.44999999999999996,0.25,1.65,10,initial,36.05,335,361,386,0,0,9,9,9,0,0,,,,,,,3,0,3,0,0,1,1,7,,,,,,,,,,,,num_3,0.9562803000153508,num_3,0.3,1.1,0.25,0.65,9.55138,24.83358,return,2.8591983999940567,,,,,,,,,,,,,,,,,730,25,male,up_down_width,2024-08-29_10h34.03.935,exp1,2023.1.0,60.15927770487157,
,,,,,,,,,,,,,,,,4,8.95,9.65,10.35,11.05,0,0.7,0.44999999999999996,0.25,2.3499999999999996,10,initial,36.05,323,348,373,398,0,9,9,9,9,0,,,,,,,3,0,3,0,0,2,2,24,,,,,,,,,,,,num_4,2.1315878000168595,num_4,0.5,0.6,0.20000000000000007,0.4,7.6411,15.2822,return,2.522021799988579,,,,,,,,,,,,,,,,,730,25,male,up_down_width,2024-08-29_10h34.03.935,exp1,2023.1.0,60.15927770487157,
,,,,,,,,,,,,,,,,4,8.825,9.608333333333333,10.391666666666667,11.175,0,0.7833333333333333,0.5333333333333333,0.25,2.6,10,match,36.05,318,346,375,403,0,9,9,9,9,0,,,,,,,3,0,3,0,0,3,3,5,,,,,,,,,,,,num_4,1.0981782000162639,num_4,0.45,0.6,0.20000000000000007,0.9,7.6411,34.38495,return,4.379853699996602,,,,,,,,,,,,,,,,,730,25,male,up_down_width,2024-08-29_10h34.03.935,exp1,2023.1.0,60.15927770487157,
,,,,,,,,,,,,,,,,4,8.35,9.45,10.55,11.65,0,1.1,0.8500000000000001,0.25,3.5500000000000003,10,initial,36.05,301,341,380,420,0,9,9,9,9,0,,,,,,,3,0,3,0,0,4,4,19,,,,,,,,,,,,num_4,1.8110620999941602,num_4,0.5,0.8,0.20000000000000007,0.6,7.6411,22.9233,return,4.261487000010675,,,,,,,,,,,,,,,,,730,25,male,up_down_width,2024-08-29_10h34.03.935,exp1,2023.1.0,60.15927770487157,
,,,,,,,,,,,,,,,,5,8.95,9.475,10,10.525,11.05,0.525,0.275,0.25,2.35,10,match,36.05,323,342,361,379,398,9,9,9,9,9,,,,,,,3,0,3,0,0,5,5,25,,,,,,,,,,,,num_4,0.9654556000023149,num_4,0.3,1.0,0.2,0.5,7.6411,19.10275,return,2.7829709999787156,,,,,,,,,,,,,,,,,730,25,male,up_down_width,2024-08-29_10h34.03.935,exp1,2023.1.0,60.15927770487157,
,,,,,,,,,,,,,,,,5,8.2,9.1,10,10.9,11.8,0.9,0.65,0.25,3.85,10,initial,36.05,296,328,361,393,425,9,9,9,9,9,,,,,,,3,0,3,0,0,6,6,48,,,,,,,,,,,,num_4,0.8993507999985013,num_4,0.25,0.3,0.15000000000000002,1.0,5.73083,38.2055,return,3.8821246000006795,,,,,,,,,,,,,,,,,730,25,male,up_down_width,2024-08-29_10h34.03.935,exp1,2023.1.0,60.15927770487157,
,,,,,,,,,,,,,,,,4,8.95,9.65,10.35,11.05,0,0.7,0.29999999999999993,0.4,2.5,10,initial,36.05,323,348,373,398,0,9,9,9,9,0,,,,,,,3,0,3,0,0,7,7,26,,,,,,,,,,,,num_4,1.2316525999922305,num_4,0.55,0.9,0.30000000000000004,0.5,11.46165,19.10275,return,2.825688099983381,,,,,,,,,,,,,,,,,730,25,male,up_down_width,2024-08-29_10h34.03.935,exp1,2023.1.0,60.15927770487157,
,,,,,,,,,,,,,,,,4,8.9,9.633333333333333,10.366666666666667,11.1,0,0.7333333333333334,0.4833333333333334,0.25,2.45,10,match,36.05,321,347,374,400,0,9,9,9,9,0,,,,,,,3,0,3,0,0,8,8,3,,,,,,,,,,,,num_4,1.0179594999935944,num_4,0.2,0.4,0.2,0.5,7.6411,19.10275,return,3.8192530999949668,,,,,,,,,,,,,,,,,730,25,male,up_down_width,2024-08-29_10h34.03.935,exp1,2023.1.0,60.15927770487157,
,,,,,,,,,,,,,,,,3,8.2,10,11.8,0,0,1.8,1.55,0.25,3.85,10,match,36.05,296,361,425,0,0,9,9,9,0,0,,,,,,,3,0,3,0,0,9,9,49,,,,,,,,,,,,num_3,0.9439813999924809,num_3,0.25,1.3,0.15000000000000002,1.95,5.73083,74.50073,return,6.329236699995818,,,,,,,,,,,,,,,,,730,25,male,up_down_width,2024-08-29_10h34.03.935,exp1,2023.1.0,60.15927770487157,
,,,,,,,,,,,,,,,,4,8.65,9.55,10.45,11.35,0,0.9,0.35,0.55,3.25,10,initial,36.05,312,344,377,409,0,9,9,9,9,0,,,,,,,3,0,3,0,0,10,10,28,,,,,,,,,,,,num_3,1.0296899999957532,num_3,0.45,0.9,0.35000000000000003,1.0,13.37193,38.2055,return,4.089047899993602,,,,,,,,,,,,,,,,,730,25,male,up_down_width,2024-08-29_10h34.03.935,exp1,2023.1.0,60.15927770487157,
,,,,,,,,,,,,,,,,3,8.6,10,11.4,0,0,1.4,0.85,0.55,3.35,10,match,36.05,310,361,411,0,0,9,9,9,0,0,,,,,,,3,0,3,0,0,11,11,41,,,,,,,,,,,,num_3,1.0244986999896355,num_3,0.55,0.8,0.45,1.95,17.19248,74.50073,return,6.626124100002926,,,,,,,,,,,,,,,,,730,25,male,up_down_width,2024-08-29_10h34.03.935,exp1,2023.1.0,60.15927770487157,
,,,,,,,,,,,,,,,,5,7.8,8.9,10,11.1,12.2,1.1,0.7000000000000001,0.4,4.800000000000001,10,initial,36.05,281,321,361,400,440,9,9,9,9,9,,,,,,,3,0,3,0,0,12,12,38,,,,,,,,,,,,num_4,0.9163130999950226,num_4,0.35,1.0,0.35,1.8,13.37193,68.76991,return,2.2066211000201292,,,,,,,,,,,,,,,,,730,25,male,up_down_width,2024-08-29_10h34.03.935,exp1,2023.1.0,60.15927770487157,
,,,,,,,,,,,,,,,,5,8.6,9.3,10,10.7,11.4,0.7,0.44999999999999996,0.25,3.05,10,initial,36.05,310,335,361,386,411,9,9,9,9,9,,,,,,,3,0,3,0,0,13,13,42,,,,,,,,,,,,num_4,0.9528029999928549,num_4,0.45,1.2,0.30000000000000004,0.7,11.46165,26.74385,return,2.911034999997355,,,,,,,,,,,,,,,,,730,25,male,up_down_width,2024-08-29_10h34.03.935,exp1,2023.1.0,60.15927770487157,
,,,,,,,,,,,,,,,,3,8.9,10,11.1,0,0,1.1,0.7000000000000001,0.4,2.6000000000000005,10,initial,36.05,321,361,400,0,0,9,9,9,0,0,,,,,,,3,0,3,0,0,14,14,4,,,,,,,,,,,,num_3,0.768478399986634,num_3,0.2,0.5,0.25,0.75,9.55138,28.65413,return,2.5256657999998424,,,,,,,,,,,,,,,,,730,25,male,up_down_width,2024-08-29_10h34.03.935,exp1,2023.1.0,60.15927770487157,
,,,,,,,,,,,,,,,,3,7.800000000000001,10,12.2,0,0,2.1999999999999997,1.7999999999999998,0.4,4.8,10,match,36.05,281,361,440,0,0,9,9,9,0,0,,,,,,,3,0,3,0,0,15,15,39,,,,,,,,,,,,num_3,0.7994995999906678,num_3,0.4,0.5,0.20000000000000007,1.95,7.6411,74.50073,return,9.594493400014471,,,,,,,,,,,,,,,,,730,25,male,up_down_width,2024-08-29_10h34.03.935,exp1,2023.1.0,60.15927770487157,
,,,,,,,,,,,,,,,,5,8.2,9.1,10,10.9,11.8,0.9,0.35,0.55,4.15,10,initial,36.05,296,328,361,393,425,9,9,9,9,9,,,,,,,3,0,3,0,0,16,16,46,,,,,,,,,,,,num_4,3.1950697999855038,num_4,0.45,0.8,0.30000000000000004,0.6,11.46165,22.9233,return,2.071877600013977,,,,,,,,,,,,,,,,,730,25,male,up_down_width,2024-08-29_10h34.03.935,exp1,2023.1.0,60.15927770487157,
,,,,,,,,,,,,,,,,5,8.65,9.325,10,10.675,11.35,0.675,0.125,0.55,3.25,10,match,36.05,312,336,361,385,409,9,9,9,9,9,,,,,,,3,0,3,0,0,17,17,29,,,,,,,,,,,,num_4,0.9973817999998573,num_4,0.55,1.1,0.5,0.6,19.10275,22.9233,return,2.9685101000068244,,,,,,,,,,,,,,,,,730,25,male,up_down_width,2024-08-29_10h34.03.935,exp1,2023.1.0,60.15927770487157,
,,,,,,,,,,,,,,,,3,7.8,10,12.2,0,0,2.2,1.9500000000000002,0.25,4.65,10,match,36.05,281,361,440,0,0,9,9,9,0,0,,,,,,,3,0,3,0,0,18,18,37,,,,,,,,,,,,num_3,0.9750109000015073,num_3,0.55,1.1,0.20000000000000007,0.85,7.6411,32.47468,return,3.328783000004478,,,,,,,,,,,,,,,,,730,25,male,up_down_width,2024-08-29_10h34.03.935,exp1,2023.1.0,60.15927770487157,
,,,,,,,,,,,,,,,,5,8.65,9.325,10,10.675,11.35,0.675,0.42500000000000004,0.25,2.95,10,match,36.05,312,336,361,385,409,9,9,9,9,9,,,,,,,3,0,3,0,0,19,19,31,,,,,,,,,,,,num_4,0.8211362000147346,num_4,0.4,0.7,0.20000000000000007,0.5,7.6411,19.10275,return,4.178739599999972,,,,,,,,,,,,,,,,,730,25,male,up_down_width,2024-08-29_10h34.03.935,exp1,2023.1.0,60.15927770487157,
,,,,,,,,,,,,,,,,3,9.1,10,10.9,0,0,0.9,0.5,0.4,2.2,10,initial,36.05,328,361,393,0,0,9,9,9,0,0,,,,,,,3,0,3,0,0,20,20,15,,,,,,,,,,,,num_3,0.9564177999855019,num_3,0.35,1.3,0.25,0.7,9.55138,26.74385,return,3.34576859997469,,,,,,,,,,,,,,,,,730,25,male,up_down_width,2024-08-29_10h34.03.935,exp1,2023.1.0,60.15927770487157,
,,,,,,,,,,,,,,,,4,9.1,9.7,10.3,10.9,0,0.5999999999999999,0.3499999999999999,0.25,2.05,10,match,36.05,328,350,371,393,0,9,9,9,9,0,,,,,,,3,0,3,0,0,21,21,14,,,,,,,,,,,,num_4,0.8443973000103142,num_4,0.3,0.7,0.2,0.4,7.6411,15.2822,return,1.863319700001739,,,,,,,,,,,,,,,,,730,25,male,up_down_width,2024-08-29_10h34.03.935,exp1,2023.1.0,60.15927770487157,
,,,,,,,,,,,,,,,,3,7.8,10,12.2,0,0,2.2,1.65,0.55,4.95,10,match,36.05,281,361,440,0,0,9,9,9,0,0,,,,,,,3,0,3,0,0,22,22,35,,,,,,,,,,,,num_3,1.1993766000086907,num_3,0.5,0.8,0.35000000000000003,1.65,13.37193,63.03908,return,3.865428700024495,,,,,,,,,,,,,,,,,730,25,male,up_down_width,2024-08-29_10h34.03.935,exp1,2023.1.0,60.15927770487157,
,,,,,,,,,,,,,,,,5,8.2,9.1,10,10.9,11.8,0.9,0.5,0.4,4,10,initial,36.05,296,328,361,393,425,9,9,9,9,9,,,,,,,3,0,3,0,0,23,23,50,,,,,,,,,,,,num_4,0.8527773999958299,num_4,0.4,1.2,0.20000000000000007,0.5,7.6411,19.10275,return,2.5115737000014633,,,,,,,,,,,,,,,,,730,25,male,up_down_width,2024-08-29_10h34.03.935,exp1,2023.1.0,60.15927770487157,
,,,,,,,,,,,,,,,,5,8.35,9.175,10,10.825,11.65,0.825,0.575,0.25,3.55,10,match,36.05,301,331,361,390,420,9,9,9,9,9,,,,,,,3,0,3,0,0,24,24,20,,,,,,,,,,,,num_4,0.7344795000099111,num_4,0.35,1.1,0.15000000000000002,0.5,5.73083,19.10275,return,2.5764389999967534,,,,,,,,,,,,,,,,,730,25,male,up_down_width,2024-08-29_10h34.03.935,exp1,2023.1.0,60.15927770487157,
,,,,,,,,,,,,,,,,3,8.9,10,11.1,0,0,1.1,0.8500000000000001,0.25,2.45,10,initial,36.05,321,361,400,0,0,9,9,9,0,0,,,,,,,3,0,3,0,0,25,25,2,,,,,,,,,,,,num_3,0.7228004999924451,num_3,0.2,0.6,0.2,0.7,7.6411,26.74385,return,1.652134500007378,,,,,,,,,,,,,,,,,730,25,male,up_down_width,2024-08-29_10h34.03.935,exp1,2023.1.0,60.15927770487157,
,,,,,,,,,,,,,,,,4,8.9,9.633333333333333,10.366666666666667,11.1,0,0.7333333333333333,0.18333333333333326,0.55,2.75,10,match,36.05,321,347,374,400,0,9,9,9,9,0,,,,,,,3,0,3,0,0,26,26,1,,,,,,,,,,,,num_3,1.0717071999970358,num_3,0.2,0.6,0.44999999999999996,0.6,17.19248,22.9233,return,5.216731399996206,,,,,,,,,,,,,,,,,730,25,male,up_down_width,2024-08-29_10h34.03.935,exp1,2023.1.0,60.15927770487157,
,,,,,,,,,,,,,,,,5,8.95,9.475,10,10.525,11.05,0.525,0.125,0.4,2.5,10,match,36.05,323,342,361,379,398,9,9,9,9,9,,,,,,,3,0,3,0,0,27,27,27,,,,,,,,,,,,num_4,0.9020503000065219,num_4,0.55,1.3,0.30000000000000004,0.4,11.46165,15.2822,return,3.8495824999990873,,,,,,,,,,,,,,,,,730,25,male,up_down_width,2024-08-29_10h34.03.935,exp1,2023.1.0,60.15927770487157,
,,,,,,,,,,,,,,,,4,9.3,9.766666666666667,10.233333333333333,10.7,0,0.4666666666666667,0.06666666666666665,0.4,1.8,10,match,36.05,335,352,369,386,0,9,9,9,9,0,,,,,,,3,0,3,0,0,28,28,10,,,,,,,,,,,,num_4,1.827986799995415,num_4,0.2,1.2,0.3,0.4,11.46165,15.2822,return,7.571751300012693,,,,,,,,,,,,,,,,,730,25,male,up_down_width,2024-08-29_10h34.03.935,exp1,2023.1.0,60.15927770487157,
,,,,,,,,,,,,,,,,3,8.2,10,11.8,0,0,1.8,1.25,0.55,4.15,10,match,36.05,296,361,425,0,0,9,9,9,0,0,,,,,,,3,0,3,0,0,29,29,47,,,,,,,,,,,,num_3,0.9039169999887235,num_3,0.25,1.3,0.49999999999999994,1.6,19.10275,61.12881,return,4.875434000015957,,,,,,,,,,,,,,,,,730,25,male,up_down_width,2024-08-29_10h34.03.935,exp1,2023.1.0,60.15927770487157,
,,,,,,,,,,,,,,,,3,8.6,10,11.4,0,0,1.4,1.15,0.25,3.05,10,match,36.05,310,361,411,0,0,9,9,9,0,0,,,,,,,3,0,3,0,0,30,30,43,,,,,,,,,,,,num_3,1.9289200000057463,num_3,0.3,1.2,0.3,1.45,11.46165,55.39798,return,1.7660467999812681,,,,,,,,,,,,,,,,,730,25,male,up_down_width,2024-08-29_10h34.03.935,exp1,2023.1.0,60.15927770487157,
,,,,,,,,,,,,,,,,4,9.1,9.7,10.3,10.9,0,0.6,0.04999999999999997,0.55,2.35,10,match,36.05,328,350,371,393,0,9,9,9,9,0,,,,,,,3,0,3,0,0,31,31,12,,,,,,,,,,,,num_3,1.6593527999939397,num_3,0.5,1,0.5,0.55,19.10275,21.01303,return,4.967759399994975,,,,,,,,,,,,,,,,,730,25,male,up_down_width,2024-08-29_10h34.03.935,exp1,2023.1.0,60.15927770487157,
,,,,,,,,,,,,,,,,3,9.1,10,10.9,0,0,0.9,0.65,0.25,2.05,10,initial,36.05,328,361,393,0,0,9,9,9,0,0,,,,,,,3,0,3,0,0,32,32,13,,,,,,,,,,,,num_3,1.9064472000172827,num_3,0.4,1.2,0.30000000000000004,0.8,11.46165,30.5644,return,3.4389446999994107,,,,,,,,,,,,,,,,,730,25,male,up_down_width,2024-08-29_10h34.03.935,exp1,2023.1.0,60.15927770487157,
,,,,,,,,,,,,,,,,3,9.1,10,10.9,0,0,0.9,0.35,0.55,2.35,10,initial,36.05,328,361,393,0,0,9,9,9,0,0,,,,,,,3,0,3,0,0,33,33,11,,,,,,,,,,,,num_3,0.9785783000115771,num_3,0.45,1.3,0.45,0.55,17.19248,21.01303,return,4.132624599995324,,,,,,,,,,,,,,,,,730,25,male,up_down_width,2024-08-29_10h34.03.935,exp1,2023.1.0,60.15927770487157,
,,,,,,,,,,,,,,,,5,7.8,8.9,10,11.1,12.2,1.1,0.8500000000000001,0.25,4.65,10,initial,36.05,281,321,361,400,440,9,9,9,9,9,,,,,,,3,0,3,0,0,34,34,36,,,,,,,,,,,,num_4,1.0738548999943305,num_4,0.35,1.1,0.2,0.5,7.6411,19.10275,return,3.1386888999841176,,,,,,,,,,,,,,,,,730,25,male,up_down_width,2024-08-29_10h34.03.935,exp1,2023.1.0,60.15927770487157,
,,,,,,,,,,,,,,,,4,8.35,9.45,10.55,11.65,0,1.1,0.7000000000000001,0.4,3.7,10,initial,36.05,301,341,380,420,0,9,9,9,9,0,,,,,,,3,0,3,0,0,35,35,21,,,,,,,,,,,,num_4,1.9181368999998085,num_4,0.25,0.6,0.35,0.8,13.37193,30.5644,return,3.1954277000040747,,,,,,,,,,,,,,,,,730,25,male,up_down_width,2024-08-29_10h34.03.935,exp1,2023.1.0,60.15927770487157,
,,,,,,,,,,,,,,,,5,7.8,8.9,10,11.1,12.2,1.1,0.55,0.55,4.95,10,initial,36.05,281,321,361,400,440,9,9,9,9,9,,,,,,,3,0,3,0,0,36,36,34,,,,,,,,,,,,num_4,0.7708197000029031,num_4,0.3,0.3,0.39999999999999997,1.1,15.2822,42.02605,return,4.975142000010237,,,,,,,,,,,,,,,,,730,25,male,up_down_width,2024-08-29_10h34.03.935,exp1,2023.1.0,60.15927770487157,
,,,,,,,,,,,,,,,,3,9.3,10,10.7,0,0,0.7,0.29999999999999993,0.4,1.8,10,initial,36.05,335,361,386,0,0,9,9,9,0,0,,,,,,,3,0,3,0,0,37,37,9,,,,,,,,,,,,num_3,0.8876217999786604,num_3,0.35,0.6,0.35,0.6,13.37193,22.9233,return,1.1026326999999583,,,,,,,,,,,,,,,,,730,25,male,up_down_width,2024-08-29_10h34.03.935,exp1,2023.1.0,60.15927770487157,
,,,,,,,,,,,,,,,,4,8.65,9.55,10.45,11.35,0,0.9,0.65,0.25,2.95,10,initial,36.05,312,344,377,409,0,9,9,9,9,0,,,,,,,3,0,3,0,0,38,38,30,,,,,,,,,,,,num_4,1.4608428999781609,num_4,0.4,0.9,0.25000000000000006,0.6,9.55138,22.9233,return,4.233090299996547,,,,,,,,,,,,,,,,,730,25,male,up_down_width,2024-08-29_10h34.03.935,exp1,2023.1.0,60.15927770487157,
,,,,,,,,,,,,,,,,5,8.35,9.175,10,10.825,11.65,0.8250000000000001,0.275,0.55,3.85,10,match,36.05,301,331,361,390,420,9,9,9,9,9,,,,,,,3,0,3,0,0,39,39,18,,,,,,,,,,,,num_4,0.8934476999856997,num_4,0.25,0.4,0.39999999999999997,0.9,15.2822,34.38495,return,4.133890700002667,,,,,,,,,,,,,,,,,730,25,male,up_down_width,2024-08-29_10h34.03.935,exp1,2023.1.0,60.15927770487157,
,,,,,,,,,,,,,,,,3,8.9,10,11.1,0,0,1.1,0.55,0.55,2.75,10,initial,36.05,321,361,400,0,0,9,9,9,0,0,,,,,,,3,0,3,0,0,40,40,0,,,,,,,,,,,,num_3,1.1944476000207942,num_3,0.45,1,0.45,0.8,17.19248,30.5644,return,1.8916389000078198,,,,,,,,,,,,,,,,,730,25,male,up_down_width,2024-08-29_10h34.03.935,exp1,2023.1.0,60.15927770487157,
,,,,,,,,,,,,,,,,3,9.3,10,10.7,0,0,0.7,0.1499999999999999,0.55,1.95,10,initial,36.05,335,361,386,0,0,9,9,9,0,0,,,,,,,3,0,3,0,0,41,41,6,,,,,,,,,,,,num_3,1.0179546999861486,num_3,0.5,0.7,0.5,0.6,19.10275,22.9233,return,1.1153165999858174,,,,,,,,,,,,,,,,,730,25,male,up_down_width,2024-08-29_10h34.03.935,exp1,2023.1.0,60.15927770487157,
,,,,,,,,,,,,,,,,5,8.6,9.3,10,10.7,11.4,0.7,0.1499999999999999,0.55,3.3499999999999996,10,initial,36.05,310,335,361,386,411,9,9,9,9,9,,,,,,,3,0,3,0,0,42,42,40,,,,,,,,,,,,num_4,0.8752988999767695,num_4,0.4,0.8,0.4,0.5,15.2822,19.10275,return,2.118579400004819,,,,,,,,,,,,,,,,,730,25,male,up_down_width,2024-08-29_10h34.03.935,exp1,2023.1.0,60.15927770487157,
,,,,,,,,,,,,,,,,4,8.65,9.55,10.45,11.35,0,0.9,0.5,0.4,3.1,10,initial,36.05,312,344,377,409,0,9,9,9,9,0,,,,,,,3,0,3,0,0,43,43,32,,,,,,,,,,,,num_4,1.2325746999995317,num_4,0.2,0.9,0.2,0.3,7.6411,11.46165,return,2.4582015999767464,,,,,,,,,,,,,,,,,730,25,male,up_down_width,2024-08-29_10h34.03.935,exp1,2023.1.0,60.15927770487157,
,,,,,,,,,,,,,,,,3,8.2,10,11.8,0,0,1.7999999999999998,1.4,0.4,4,10,match,36.05,296,361,425,0,0,9,9,9,0,0,,,,,,,3,0,3,0,0,44,44,51,,,,,,,,,,,,num_3,0.8203951999894343,num_3,0.5,1.1,0.20000000000000007,1.2,7.6411,45.8466,return,3.8110704999999143,,,,,,,,,,,,,,,,,730,25,male,up_down_width,2024-08-29_10h34.03.935,exp1,2023.1.0,60.15927770487157,
,,,,,,,,,,,,,,,,4,8.35,9.45,10.55,11.65,0,1.1,0.55,0.55,3.8500000000000005,10,initial,36.05,301,341,380,420,0,9,9,9,9,0,,,,,,,3,0,3,0,0,45,45,17,,,,,,,,,,,,num_4,1.8509134000050835,num_4,0.5,0.8,0.25000000000000006,0.6,9.55138,22.9233,return,6.2012030000041705,,,,,,,,,,,,,,,,,730,25,male,up_down_width,2024-08-29_10h34.03.935,exp1,2023.1.0,60.15927770487157,
,,,,,,,,,,,,,,,,4,9.3,9.766666666666667,10.233333333333333,10.7,0,0.4666666666666667,0.21666666666666665,0.25,1.65,10,match,36.05,335,352,369,386,0,9,9,9,9,0,,,,,,,3,0,3,0,0,46,46,8,,,,,,,,,,,,num_4,1.786510999983875,num_4,0.55,1.3,0.20000000000000007,0.4,7.6411,15.2822,return,9.370836899994174,,,,,,,,,,,,,,,,,730,25,male,up_down_width,2024-08-29_10h34.03.935,exp1,2023.1.0,60.15927770487157,
,,,,,,,,,,,,,,,,5,8.275,9.1375,10,10.8625,11.725,0.8625,0.6125,0.25,3.7,10,match,36.05,298,329,361,392,423,9,9,9,9,9,,,,,,,3,0,3,0,0,47,47,22,,,,,,,,,,,,num_4,0.8829199000028893,num_4,0.35,1.0,0.2,0.5,7.6411,19.10275,return,4.2793453999911435,,,,,,,,,,,,,,,,,730,25,male,up_down_width,2024-08-29_10h34.03.935,exp1,2023.1.0,60.15927770487157,
,,,,,,,,,,,,,,,,5,8.65,9.325,10,10.675,11.35,0.675,0.275,0.4,3.1,10,match,36.05,312,336,361,385,409,9,9,9,9,9,,,,,,,3,0,3,0,0,48,48,33,,,,,,,,,,,,num_4,1.8852449999831151,num_4,0.25,0.3,0.25,0.7,9.55138,26.74385,return,1.7881853000144474,,,,,,,,,,,,,,,,,730,25,male,up_down_width,2024-08-29_10h34.03.935,exp1,2023.1.0,60.15927770487157,
,,,,,,,,,,,,,,,,4,8.95,9.65,10.35,11.05,0,0.7,0.1499999999999999,0.55,2.65,10,initial,36.05,323,348,373,398,0,9,9,9,9,0,,,,,,,3,0,3,0,0,49,49,23,,,,,,,,,,,,num_4,0.874275599984685,num_4,0.25,0.4,0.3,0.5,11.46165,19.10275,return,3.670373400003882,,,,,,,,,,,,,,,,,730,25,male,up_down_width,2024-08-29_10h34.03.935,exp1,2023.1.0,60.15927770487157,
,,,,,,,,,,,,,,,,5,8.6,9.3,10,10.7,11.4,0.7,0.29999999999999993,0.4,3.1999999999999997,10,initial,36.05,310,335,361,386,411,9,9,9,9,9,,,,,,,3,0,3,0,0,50,50,44,,,,,,,,,,,,num_5,2.2658931000041775,num_5,0.5,0.7,0.30000000000000004,0.45,11.46165,17.19248,return,3.342195000004722,,,,,,,,,,,,,,,,,730,25,male,up_down_width,2024-08-29_10h34.03.935,exp1,2023.1.0,60.15927770487157,
,,,,,,,,,,,,,,,,3,8.525,10,11.475,0,0,1.475,1.225,0.25,3.2,10,match,36.05,307,361,414,0,0,9,9,9,0,0,,,,,,,3,0,3,0,0,51,51,45,,,,,,,,,,,,num_3,0.853544099983992,num_3,0.35,1.2,0.25,1.35,9.55138,51.57743,return,2.4343238000001293,,,,,,,,,,,,,,,,,730,25,male,up_down_width,2024-08-29_10h34.03.935,exp1,2023.1.0,60.15927770487157,
,,,,,,,,,,,,,,,,,,,,,,,,,,,,,,,,,,,,,,,,,,,,,3,0,3,0,,,,,,,,,,,,,,,,,,,,,,,,,,,,,2283.257162599999,2283.257162599999,2283.257162599999,,,,,,,,,,,,730,25,male,up_down_width,2024-08-29_10h34.03.935,exp1,2023.1.0,60.15927770487157,
,,,,,,,,,,,,,,,,4,8.9,9.633333333333333,10.366666666666667,11.1,0,0.7333333333333334,0.4833333333333334,0.25,2.45,10,match,36.05,321,347,374,400,0,9,9,9,9,0,,,,,,,4,0,4,0,0,0,0,3,,,,,,,,,,,,num_4,1.0382851000176743,num_4,0.4,0.5,0.20000000000000007,0.4,7.6411,15.2822,return,2.766703500004951,,,,,,,,,,,,,,,,,730,25,male,up_down_width,2024-08-29_10h34.03.935,exp1,2023.1.0,60.15927770487157,
,,,,,,,,,,,,,,,,5,8.275,9.1375,10,10.8625,11.725,0.8625,0.6125,0.25,3.7,10,match,36.05,298,329,361,392,423,9,9,9,9,9,,,,,,,4,0,4,0,0,1,1,22,,,,,,,,,,,,num_4,0.7982120000233408,num_4,0.3,0.5,0.15000000000000002,0.9,5.73083,34.38495,return,3.0015038000128698,,,,,,,,,,,,,,,,,730,25,male,up_down_width,2024-08-29_10h34.03.935,exp1,2023.1.0,60.15927770487157,
,,,,,,,,,,,,,,,,3,8.9,10,11.1,0,0,1.1,0.8500000000000001,0.25,2.45,10,initial,36.05,321,361,400,0,0,9,9,9,0,0,,,,,,,4,0,4,0,0,2,2,2,,,,,,,,,,,,num_4,1.07368729999871,num_4,0.25,1.0,0.2,0.5,7.6411,19.10275,return,2.2433043000055477,,,,,,,,,,,,,,,,,730,25,male,up_down_width,2024-08-29_10h34.03.935,exp1,2023.1.0,60.15927770487157,
,,,,,,,,,,,,,,,,5,8.65,9.325,10,10.675,11.35,0.675,0.42500000000000004,0.25,2.95,10,match,36.05,312,336,361,385,409,9,9,9,9,9,,,,,,,4,0,4,0,0,3,3,31,,,,,,,,,,,,num_5,1.7165473999921232,num_5,0.35,0.6,0.15000000000000002,0.5,5.73083,19.10275,return,2.287982899986673,,,,,,,,,,,,,,,,,730,25,male,up_down_width,2024-08-29_10h34.03.935,exp1,2023.1.0,60.15927770487157,
,,,,,,,,,,,,,,,,3,9.1,10,10.9,0,0,0.9,0.65,0.25,2.05,10,initial,36.05,328,361,393,0,0,9,9,9,0,0,,,,,,,4,0,4,0,0,4,4,13,,,,,,,,,,,,num_3,0.8598613000067417,num_3,0.2,1.3,0.2,0.55,7.6411,21.01303,return,3.090821699996013,,,,,,,,,,,,,,,,,730,25,male,up_down_width,2024-08-29_10h34.03.935,exp1,2023.1.0,60.15927770487157,
,,,,,,,,,,,,,,,,5,8.65,9.325,10,10.675,11.35,0.675,0.275,0.4,3.1,10,match,36.05,312,336,361,385,409,9,9,9,9,9,,,,,,,4,0,4,0,0,5,5,33,,,,,,,,,,,,num_4,0.7776449999946635,num_4,0.5,0.6,0.25000000000000006,0.5,9.55138,19.10275,return,4.568691599997692,,,,,,,,,,,,,,,,,730,25,male,up_down_width,2024-08-29_10h34.03.935,exp1,2023.1.0,60.15927770487157,
,,,,,,,,,,,,,,,,4,9.1,9.7,10.3,10.9,0,0.5999999999999999,0.3499999999999999,0.25,2.05,10,match,36.05,328,350,371,393,0,9,9,9,9,0,,,,,,,4,0,4,0,0,6,6,14,,,,,,,,,,,,num_4,0.6603419000166468,num_4,0.5,1.1,0.25000000000000006,0.5,9.55138,19.10275,return,3.553055199998198,,,,,,,,,,,,,,,,,730,25,male,up_down_width,2024-08-29_10h34.03.935,exp1,2023.1.0,60.15927770487157,
,,,,,,,,,,,,,,,,5,8.95,9.475,10,10.525,11.05,0.525,0.125,0.4,2.5,10,match,36.05,323,342,361,379,398,9,9,9,9,9,,,,,,,4,0,4,0,0,7,7,27,,,,,,,,,,,,num_4,1.9376139999949373,num_4,0.2,1.3,0.2,0.4,7.6411,15.2822,return,2.5256342999928165,,,,,,,,,,,,,,,,,730,25,male,up_down_width,2024-08-29_10h34.03.935,exp1,2023.1.0,60.15927770487157,
,,,,,,,,,,,,,,,,5,7.8,8.9,10,11.1,12.2,1.1,0.55,0.55,4.95,10,initial,36.05,281,321,361,400,440,9,9,9,9,9,,,,,,,4,0,4,0,0,8,8,34,,,,,,,,,,,,num_4,0.7995339999906719,num_4,0.4,1.1,0.4,0.7,15.2822,26.74385,return,1.8711478000041097,,,,,,,,,,,,,,,,,730,25,male,up_down_width,2024-08-29_10h34.03.935,exp1,2023.1.0,60.15927770487157,
,,,,,,,,,,,,,,,,5,7.8,8.9,10,11.1,12.2,1.1,0.8500000000000001,0.25,4.65,10,initial,36.05,281,321,361,400,440,9,9,9,9,9,,,,,,,4,0,4,0,0,9,9,36,,,,,,,,,,,,num_5,1.3584242000069935,num_5,0.4,0.8,0.25000000000000006,0.65,9.55138,24.83358,return,2.654043000016827,,,,,,,,,,,,,,,,,730,25,male,up_down_width,2024-08-29_10h34.03.935,exp1,2023.1.0,60.15927770487157,
,,,,,,,,,,,,,,,,3,8.2,10,11.8,0,0,1.8,1.25,0.55,4.15,10,match,36.05,296,361,425,0,0,9,9,9,0,0,,,,,,,4,0,4,0,0,10,10,47,,,,,,,,,,,,num_3,0.8456901999888942,num_3,0.35,1.2,0.35,1.45,13.37193,55.39798,return,1.9756502000091132,,,,,,,,,,,,,,,,,730,25,male,up_down_width,2024-08-29_10h34.03.935,exp1,2023.1.0,60.15927770487157,
,,,,,,,,,,,,,,,,4,8.65,9.55,10.45,11.35,0,0.9,0.5,0.4,3.1,10,initial,36.05,312,344,377,409,0,9,9,9,9,0,,,,,,,4,0,4,0,0,11,11,32,,,,,,,,,,,,num_3,2.676800000015646,num_3,0.55,1.1,0.30000000000000004,0.9,11.46165,34.38495,return,3.6372535999980755,,,,,,,,,,,,,,,,,730,25,male,up_down_width,2024-08-29_10h34.03.935,exp1,2023.1.0,60.15927770487157,
,,,,,,,,,,,,,,,,4,8.95,9.65,10.35,11.05,0,0.7,0.44999999999999996,0.25,2.3499999999999996,10,initial,36.05,323,348,373,398,0,9,9,9,9,0,,,,,,,4,0,4,0,0,12,12,24,,,,,,,,,,,,num_4,0.798189299996011,num_4,0.25,1.2,0.2,0.5,7.6411,19.10275,return,3.418436899984954,,,,,,,,,,,,,,,,,730,25,male,up_down_width,2024-08-29_10h34.03.935,exp1,2023.1.0,60.15927770487157,
,,,,,,,,,,,,,,,,3,8.6,10,11.4,0,0,1.4,1.15,0.25,3.05,10,match,36.05,310,361,411,0,0,9,9,9,0,0,,,,,,,4,0,4,0,0,13,13,43,,,,,,,,,,,,num_3,0.9403899000026286,num_3,0.35,0.6,0.2,0.85,7.6411,32.47468,return,2.436538299982203,,,,,,,,,,,,,,,,,730,25,male,up_down_width,2024-08-29_10h34.03.935,exp1,2023.1.0,60.15927770487157,
,,,,,,,,,,,,,,,,4,8.35,9.45,10.55,11.65,0,1.1,0.7000000000000001,0.4,3.7,10,initial,36.05,301,341,380,420,0,9,9,9,9,0,,,,,,,4,0,4,0,0,14,14,21,,,,,,,,,,,,num_4,0.8597919999738224,num_4,0.5,0.6,0.35000000000000003,0.8,13.37193,30.5644,return,2.8823776000062935,,,,,,,,,,,,,,,,,730,25,male,up_down_width,2024-08-29_10h34.03.935,exp1,2023.1.0,60.15927770487157,
,,,,,,,,,,,,,,,,4,8.65,9.55,10.45,11.35,0,0.9,0.65,0.25,2.95,10,initial,36.05,312,344,377,409,0,9,9,9,9,0,,,,,,,4,0,4,0,0,15,15,30,,,,,,,,,,,,num_4,0.8455153999966569,num_4,0.25,0.4,0.15000000000000002,0.8,5.73083,30.5644,return,3.094460699998308,,,,,,,,,,,,,,,,,730,25,male,up_down_width,2024-08-29_10h34.03.935,exp1,2023.1.0,60.15927770487157,
,,,,,,,,,,,,,,,,4,8.9,9.633333333333333,10.366666666666667,11.1,0,0.7333333333333333,0.18333333333333326,0.55,2.75,10,match,36.05,321,347,374,400,0,9,9,9,9,0,,,,,,,4,0,4,0,0,16,16,1,,,,,,,,,,,,num_4,0.934603799978504,num_4,0.3,0.4,0.3,0.7,11.46165,26.74385,return,1.37192619999405,,,,,,,,,,,,,,,,,730,25,male,up_down_width,2024-08-29_10h34.03.935,exp1,2023.1.0,60.15927770487157,
,,,,,,,,,,,,,,,,4,8.825,9.608333333333333,10.391666666666667,11.175,0,0.7833333333333333,0.5333333333333333,0.25,2.6,10,match,36.05,318,346,375,403,0,9,9,9,9,0,,,,,,,4,0,4,0,0,17,17,5,,,,,,,,,,,,num_4,1.2810717000102159,num_4,0.45,1.0,0.25000000000000006,0.7,9.55138,26.74385,return,2.9412551000132225,,,,,,,,,,,,,,,,,730,25,male,up_down_width,2024-08-29_10h34.03.935,exp1,2023.1.0,60.15927770487157,
,,,,,,,,,,,,,,,,5,8.95,9.475,10,10.525,11.05,0.525,0.275,0.25,2.35,10,match,36.05,323,342,361,379,398,9,9,9,9,9,,,,,,,4,0,4,0,0,18,18,25,,,,,,,,,,,,num_4,0.8144639999954961,num_4,0.25,1.0,0.25,0.5,9.55138,19.10275,return,1.8932008999981917,,,,,,,,,,,,,,,,,730,25,male,up_down_width,2024-08-29_10h34.03.935,exp1,2023.1.0,60.15927770487157,
,,,,,,,,,,,,,,,,5,8.6,9.3,10,10.7,11.4,0.7,0.29999999999999993,0.4,3.1999999999999997,10,initial,36.05,310,335,361,386,411,9,9,9,9,9,,,,,,,4,0,4,0,0,19,19,44,,,,,,,,,,,,num_5,0.9204315999813844,num_5,0.3,0.4,0.3,0.6,11.46165,22.9233,return,1.4593631000025198,,,,,,,,,,,,,,,,,730,25,male,up_down_width,2024-08-29_10h34.03.935,exp1,2023.1.0,60.15927770487157,
,,,,,,,,,,,,,,,,4,9.1,9.7,10.3,10.9,0,0.6000000000000001,0.20000000000000004,0.4,2.2,10,match,36.05,328,350,371,393,0,9,9,9,9,0,,,,,,,4,0,4,0,0,20,20,16,,,,,,,,,,,,num_4,0.9842610999767203,num_4,0.55,1.3,0.35000000000000003,0.5,13.37193,19.10275,return,2.9379135000053793,,,,,,,,,,,,,,,,,730,25,male,up_down_width,2024-08-29_10h34.03.935,exp1,2023.1.0,60.15927770487157,
,,,,,,,,,,,,,,,,5,7.8,8.9,10,11.1,12.2,1.1,0.7000000000000001,0.4,4.800000000000001,10,initial,36.05,281,321,361,400,440,9,9,9,9,9,,,,,,,4,0,4,0,0,21,21,38,,,,,,,,,,,,num_4,1.4849826999998186,num_4,0.4,1.2,0.30000000000000004,0.7,11.46165,26.74385,return,2.6247950000106357,,,,,,,,,,,,,,,,,730,25,male,up_down_width,2024-08-29_10h34.03.935,exp1,2023.1.0,60.15927770487157,
,,,,,,,,,,,,,,,,4,9.3,9.766666666666667,10.233333333333333,10.7,0,0.4666666666666667,0.06666666666666665,0.4,1.8,10,match,36.05,335,352,369,386,0,9,9,9,9,0,,,,,,,4,0,4,0,0,22,22,10,,,,,,,,,,,,num_4,1.06594140001107,num_4,0.4,1.3,0.25000000000000006,0.3,9.55138,11.46165,return,3.6748812000150792,,,,,,,,,,,,,,,,,730,25,male,up_down_width,2024-08-29_10h34.03.935,exp1,2023.1.0,60.15927770487157,
,,,,,,,,,,,,,,,,3,7.8,10,12.2,0,0,2.2,1.9500000000000002,0.25,4.65,10,match,36.05,281,361,440,0,0,9,9,9,0,0,,,,,,,4,0,4,0,0,23,23,37,,,,,,,,,,,,num_3,0.8460946000122931,num_3,0.3,1.1,0.25,1.85,9.55138,70.68018,return,4.106732899992494,,,,,,,,,,,,,,,,,730,25,male,up_down_width,2024-08-29_10h34.03.935,exp1,2023.1.0,60.15927770487157,
,,,,,,,,,,,,,,,,3,9.3,10,10.7,0,0,0.7,0.29999999999999993,0.4,1.8,10,initial,36.05,335,361,386,0,0,9,9,9,0,0,,,,,,,4,0,4,0,0,24,24,9,,,,,,,,,,,,num_3,1.290199399983976,num_3,0.45,1.1,0.25000000000000006,0.35,9.55138,13.37193,return,5.584623999980977,,,,,,,,,,,,,,,,,730,25,male,up_down_width,2024-08-29_10h34.03.935,exp1,2023.1.0,60.15927770487157,
,,,,,,,,,,,,,,,,3,8.2,10,11.8,0,0,1.7999999999999998,1.4,0.4,4,10,match,36.05,296,361,425,0,0,9,9,9,0,0,,,,,,,4,0,4,0,0,25,25,51,,,,,,,,,,,,num_3,1.1267730999970809,num_3,0.3,0.5,0.35,0.95,13.37193,36.29523,return,3.0268991999910213,,,,,,,,,,,,,,,,,730,25,male,up_down_width,2024-08-29_10h34.03.935,exp1,2023.1.0,60.15927770487157,
,,,,,,,,,,,,,,,,4,8.35,9.45,10.55,11.65,0,1.1,0.8500000000000001,0.25,3.5500000000000003,10,initial,36.05,301,341,380,420,0,9,9,9,9,0,,,,,,,4,0,4,0,0,26,26,19,,,,,,,,,,,,num_4,1.1596525999775622,num_4,0.4,0.9,0.20000000000000007,0.6,7.6411,22.9233,return,2.1788324999797624,,,,,,,,,,,,,,,,,730,25,male,up_down_width,2024-08-29_10h34.03.935,exp1,2023.1.0,60.15927770487157,
,,,,,,,,,,,,,,,,4,8.95,9.65,10.35,11.05,0,0.7,0.29999999999999993,0.4,2.5,10,initial,36.05,323,348,373,398,0,9,9,9,9,0,,,,,,,4,0,4,0,0,27,27,26,,,,,,,,,,,,num_4,0.8830427999782842,num_4,0.2,1.0,0.3,0.5,11.46165,19.10275,return,2.5264222999976482,,,,,,,,,,,,,,,,,730,25,male,up_down_width,2024-08-29_10h34.03.935,exp1,2023.1.0,60.15927770487157,
,,,,,,,,,,,,,,,,5,8.35,9.175,10,10.825,11.65,0.8250000000000001,0.275,0.55,3.85,10,match,36.05,301,331,361,390,420,9,9,9,9,9,,,,,,,4,0,4,0,0,28,28,18,,,,,,,,,,,,num_4,0.8071771000104491,num_4,0.3,1.3,0.3,0.5,11.46165,19.10275,return,2.8208326999738347,,,,,,,,,,,,,,,,,730,25,male,up_down_width,2024-08-29_10h34.03.935,exp1,2023.1.0,60.15927770487157,
,,,,,,,,,,,,,,,,4,8.95,9.65,10.35,11.05,0,0.7,0.1499999999999999,0.55,2.65,10,initial,36.05,323,348,373,398,0,9,9,9,9,0,,,,,,,4,0,4,0,0,29,29,23,,,,,,,,,,,,num_4,2.8612752000044566,num_4,0.3,0.8,0.39999999999999997,0.5,15.2822,19.10275,return,4.706992199993692,,,,,,,,,,,,,,,,,730,25,male,up_down_width,2024-08-29_10h34.03.935,exp1,2023.1.0,60.15927770487157,
,,,,,,,,,,,,,,,,3,7.800000000000001,10,12.2,0,0,2.1999999999999997,1.7999999999999998,0.4,4.8,10,match,36.05,281,361,440,0,0,9,9,9,0,0,,,,,,,4,0,4,0,0,30,30,39,,,,,,,,,,,,num_3,0.8639264999947045,num_3,0.35,1.2,0.35,1.95,13.37193,74.50073,return,3.5967057999805547,,,,,,,,,,,,,,,,,730,25,male,up_down_width,2024-08-29_10h34.03.935,exp1,2023.1.0,60.15927770487157,
,,,,,,,,,,,,,,,,4,8.65,9.55,10.45,11.35,0,0.9,0.35,0.55,3.25,10,initial,36.05,312,344,377,409,0,9,9,9,9,0,,,,,,,4,0,4,0,0,31,31,28,,,,,,,,,,,,num_4,0.9529590000165626,num_4,0.35,0.5,0.44999999999999996,0.7,17.19248,26.74385,return,3.150532800005749,,,,,,,,,,,,,,,,,730,25,male,up_down_width,2024-08-29_10h34.03.935,exp1,2023.1.0,60.15927770487157,
,,,,,,,,,,,,,,,,3,9.1,10,10.9,0,0,0.9,0.5,0.4,2.2,10,initial,36.05,328,361,393,0,0,9,9,9,0,0,,,,,,,4,0,4,0,0,32,32,15,,,,,,,,,,,,num_3,0.9131279999855906,num_3,0.4,1.1,0.35000000000000003,0.7,13.37193,26.74385,return,3.047750099998666,,,,,,,,,,,,,,,,,730,25,male,up_down_width,2024-08-29_10h34.03.935,exp1,2023.1.0,60.15927770487157,
,,,,,,,,,,,,,,,,3,9.3,10,10.7,0,0,0.7,0.1499999999999999,0.55,1.95,10,initial,36.05,335,361,386,0,0,9,9,9,0,0,,,,,,,4,0,4,0,0,33,33,6,,,,,,,,,,,,num_3,0.8895071999868378,num_3,0.3,1.1,0.3,0.45,11.46165,17.19248,return,3.349227200000314,,,,,,,,,,,,,,,,,730,25,male,up_down_width,2024-08-29_10h34.03.935,exp1,2023.1.0,60.15927770487157,
,,,,,,,,,,,,,,,,5,8.2,9.1,10,10.9,11.8,0.9,0.65,0.25,3.85,10,initial,36.05,296,328,361,393,425,9,9,9,9,9,,,,,,,4,0,4,0,0,34,34,48,,,,,,,,,,,,num_5,3.618172999995295,num_5,0.55,1.0,0.25000000000000006,0.6,9.55138,22.9233,return,3.611343799973838,,,,,,,,,,,,,,,,,730,25,male,up_down_width,2024-08-29_10h34.03.935,exp1,2023.1.0,60.15927770487157,
,,,,,,,,,,,,,,,,5,8.2,9.1,10,10.9,11.8,0.9,0.5,0.4,4,10,initial,36.05,296,328,361,393,425,9,9,9,9,9,,,,,,,4,0,4,0,0,35,35,50,,,,,,,,,,,,num_4,0.9656673999852501,num_4,0.2,0.6,0.35,0.9,13.37193,34.38495,return,3.230209900008049,,,,,,,,,,,,,,,,,730,25,male,up_down_width,2024-08-29_10h34.03.935,exp1,2023.1.0,60.15927770487157,
,,,,,,,,,,,,,,,,5,8.35,9.175,10,10.825,11.65,0.825,0.575,0.25,3.55,10,match,36.05,301,331,361,390,420,9,9,9,9,9,,,,,,,4,0,4,0,0,36,36,20,,,,,,,,,,,,num_5,1.6017867000191472,num_5,0.45,0.5,0.20000000000000007,0.6,7.6411,22.9233,return,5.932625700021163,,,,,,,,,,,,,,,,,730,25,male,up_down_width,2024-08-29_10h34.03.935,exp1,2023.1.0,60.15927770487157,
,,,,,,,,,,,,,,,,4,8.35,9.45,10.55,11.65,0,1.1,0.55,0.55,3.8500000000000005,10,initial,36.05,301,341,380,420,0,9,9,9,9,0,,,,,,,4,0,4,0,0,37,37,17,,,,,,,,,,,,num_4,1.301847099995939,num_4,0.2,1.0,0.35,0.8,13.37193,30.5644,return,3.996293300006073,,,,,,,,,,,,,,,,,730,25,male,up_down_width,2024-08-29_10h34.03.935,exp1,2023.1.0,60.15927770487157,
,,,,,,,,,,,,,,,,5,8.6,9.3,10,10.7,11.4,0.7,0.44999999999999996,0.25,3.05,10,initial,36.05,310,335,361,386,411,9,9,9,9,9,,,,,,,4,0,4,0,0,38,38,42,,,,,,,,,,,,num_4,1.1982605000084732,num_4,0.4,1.3,0.30000000000000004,1.1,11.46165,42.02605,return,2.5696655999927316,,,,,,,,,,,,,,,,,730,25,male,up_down_width,2024-08-29_10h34.03.935,exp1,2023.1.0,60.15927770487157,
,,,,,,,,,,,,,,,,3,7.8,10,12.2,0,0,2.2,1.65,0.55,4.95,10,match,36.05,281,361,440,0,0,9,9,9,0,0,,,,,,,4,0,4,0,0,39,39,35,,,,,,,,,,,,num_3,1.6091501000046264,num_3,0.45,0.8,0.35000000000000003,1.5,13.37193,57.30826,return,4.210949200001778,,,,,,,,,,,,,,,,,730,25,male,up_down_width,2024-08-29_10h34.03.935,exp1,2023.1.0,60.15927770487157,
,,,,,,,,,,,,,,,,5,8.2,9.1,10,10.9,11.8,0.9,0.35,0.55,4.15,10,initial,36.05,296,328,361,393,425,9,9,9,9,9,,,,,,,4,0,4,0,0,40,40,46,,,,,,,,,,,,num_5,2.5851480000128504,num_5,0.4,1.0,0.35000000000000003,0.7,13.37193,26.74385,return,2.6228210999979638,,,,,,,,,,,,,,,,,730,25,male,up_down_width,2024-08-29_10h34.03.935,exp1,2023.1.0,60.15927770487157,
,,,,,,,,,,,,,,,,3,8.525,10,11.475,0,0,1.475,1.225,0.25,3.2,10,match,36.05,307,361,414,0,0,9,9,9,0,0,,,,,,,4,0,4,0,0,41,41,45,,,,,,,,,,,,num_3,0.9201538000197615,num_3,0.55,0.7,0.25000000000000006,0.9,9.55138,34.38495,return,3.4680724999925587,,,,,,,,,,,,,,,,,730,25,male,up_down_width,2024-08-29_10h34.03.935,exp1,2023.1.0,60.15927770487157,
,,,,,,,,,,,,,,,,3,8.6,10,11.4,0,0,1.4,0.85,0.55,3.35,10,match,36.05,310,361,411,0,0,9,9,9,0,0,,,,,,,4,0,4,0,0,42,42,41,,,,,,,,,,,,num_3,1.2684173000161536,num_3,0.25,1.2,0.35,0.85,13.37193,32.47468,return,2.8481258999963757,,,,,,,,,,,,,,,,,730,25,male,up_down_width,2024-08-29_10h34.03.935,exp1,2023.1.0,60.15927770487157,
,,,,,,,,,,,,,,,,4,9.1,9.7,10.3,10.9,0,0.6,0.04999999999999997,0.55,2.35,10,match,36.05,328,350,371,393,0,9,9,9,9,0,,,,,,,4,0,4,0,0,43,43,12,,,,,,,,,,,,num_4,1.2690651000011712,num_4,0.25,0.5,0.3,0.4,11.46165,15.2822,return,3.558587899984559,,,,,,,,,,,,,,,,,730,25,male,up_down_width,2024-08-29_10h34.03.935,exp1,2023.1.0,60.15927770487157,
,,,,,,,,,,,,,,,,5,8.6,9.3,10,10.7,11.4,0.7,0.1499999999999999,0.55,3.3499999999999996,10,initial,36.05,310,335,361,386,411,9,9,9,9,9,,,,,,,4,0,4,0,0,44,44,40,,,,,,,,,,,,num_4,1.0564089999825228,num_4,0.5,0.9,0.4,0.5,15.2822,19.10275,return,2.7812631000124384,,,,,,,,,,,,,,,,,730,25,male,up_down_width,2024-08-29_10h34.03.935,exp1,2023.1.0,60.15927770487157,
,,,,,,,,,,,,,,,,3,8.9,10,11.1,0,0,1.1,0.55,0.55,2.75,10,initial,36.05,321,361,400,0,0,9,9,9,0,0,,,,,,,4,0,4,0,0,45,45,0,,,,,,,,,,,,num_3,0.9099187000247184,num_3,0.25,0.9,0.44999999999999996,0.55,17.19248,21.01303,return,3.559687600005418,,,,,,,,,,,,,,,,,730,25,male,up_down_width,2024-08-29_10h34.03.935,exp1,2023.1.0,60.15927770487157,
,,,,,,,,,,,,,,,,5,8.65,9.325,10,10.675,11.35,0.675,0.125,0.55,3.25,10,match,36.05,312,336,361,385,409,9,9,9,9,9,,,,,,,4,0,4,0,0,46,46,29,,,,,,,,,,,,num_4,1.30917649998446,num_4,0.5,1.2,0.45,0.6,17.19248,22.9233,return,4.688953900011256,,,,,,,,,,,,,,,,,730,25,male,up_down_width,2024-08-29_10h34.03.935,exp1,2023.1.0,60.15927770487157,
,,,,,,,,,,,,,,,,3,8.2,10,11.8,0,0,1.8,1.55,0.25,3.85,10,match,36.05,296,361,425,0,0,9,9,9,0,0,,,,,,,4,0,4,0,0,47,47,49,,,,,,,,,,,,num_3,0.9753559000091627,num_3,0.45,1.2,0.20000000000000007,2.3,7.6411,87.87266,return,4.999425499991048,,,,,,,,,,,,,,,,,730,25,male,up_down_width,2024-08-29_10h34.03.935,exp1,2023.1.0,60.15927770487157,
,,,,,,,,,,,,,,,,3,9.3,10,10.7,0,0,0.7,0.44999999999999996,0.25,1.65,10,initial,36.05,335,361,386,0,0,9,9,9,0,0,,,,,,,4,0,4,0,0,48,48,7,,,,,,,,,,,,num_3,1.1363899999996647,num_3,0.35,0.9,0.15000000000000002,0.5,5.73083,19.10275,return,2.748696700000437,,,,,,,,,,,,,,,,,730,25,male,up_down_width,2024-08-29_10h34.03.935,exp1,2023.1.0,60.15927770487157,
,,,,,,,,,,,,,,,,3,9.1,10,10.9,0,0,0.9,0.35,0.55,2.35,10,initial,36.05,328,361,393,0,0,9,9,9,0,0,,,,,,,4,0,4,0,0,49,49,11,,,,,,,,,,,,num_3,0.9507122999930289,num_3,0.5,1.2,0.5,0.65,19.10275,24.83358,return,2.7662730000156444,,,,,,,,,,,,,,,,,730,25,male,up_down_width,2024-08-29_10h34.03.935,exp1,2023.1.0,60.15927770487157,
,,,,,,,,,,,,,,,,3,8.9,10,11.1,0,0,1.1,0.7000000000000001,0.4,2.6000000000000005,10,initial,36.05,321,361,400,0,0,9,9,9,0,0,,,,,,,4,0,4,0,0,50,50,4,,,,,,,,,,,,num_3,0.9352979999966919,num_3,0.25,0.6,0.25,0.75,9.55138,28.65413,return,2.041481099993689,,,,,,,,,,,,,,,,,730,25,male,up_down_width,2024-08-29_10h34.03.935,exp1,2023.1.0,60.15927770487157,
,,,,,,,,,,,,,,,,4,9.3,9.766666666666667,10.233333333333333,10.7,0,0.4666666666666667,0.21666666666666665,0.25,1.65,10,match,36.05,335,352,369,386,0,9,9,9,9,0,,,,,,,4,0,4,0,0,51,51,8,,,,,,,,,,,,num_4,1.5709851999999955,num_4,0.25,1.1,0.25,0.4,9.55138,15.2822,return,1.9698971000034362,,,,,,,,,,,,,,,,,730,25,male,up_down_width,2024-08-29_10h34.03.935,exp1,2023.1.0,60.15927770487157,
,,,,,,,,,,,,,,,,,,,,,,,,,,,,,,,,,,,,,,,,,,,,,4,0,4,0,,,,,,,,,,,,,,,,,,,,,,,,,,,,,2702.4241518999916,2702.4241518999916,2702.4241518999916,,,,,,,,,,,,730,25,male,up_down_width,2024-08-29_10h34.03.935,exp1,2023.1.0,60.15927770487157,
,,,,,,,,,,,,,,,,3,7.8,10,12.2,0,0,2.2,1.9500000000000002,0.25,4.65,10,match,36.05,281,361,440,0,0,9,9,9,0,0,,,,,,,5,0,5,0,0,0,0,37,,,,,,,,,,,,num_3,1.2798544999968726,num_3,0.25,1.3,0.2,1.85,7.6411,70.68018,return,3.063348199997563,,,,,,,,,,,,,,,,,730,25,male,up_down_width,2024-08-29_10h34.03.935,exp1,2023.1.0,60.15927770487157,
,,,,,,,,,,,,,,,,4,9.1,9.7,10.3,10.9,0,0.6000000000000001,0.20000000000000004,0.4,2.2,10,match,36.05,328,350,371,393,0,9,9,9,9,0,,,,,,,5,0,5,0,0,1,1,16,,,,,,,,,,,,num_4,0.8423637999803759,num_4,0.3,0.8,0.3,0.4,11.46165,15.2822,return,1.3478447000088636,,,,,,,,,,,,,,,,,730,25,male,up_down_width,2024-08-29_10h34.03.935,exp1,2023.1.0,60.15927770487157,
,,,,,,,,,,,,,,,,3,9.3,10,10.7,0,0,0.7,0.44999999999999996,0.25,1.65,10,initial,36.05,335,361,386,0,0,9,9,9,0,0,,,,,,,5,0,5,0,0,2,2,7,,,,,,,,,,,,num_3,0.8631052999990061,num_3,0.35,1.2,0.25,0.6,9.55138,22.9233,return,2.918653100001393,,,,,,,,,,,,,,,,,730,25,male,up_down_width,2024-08-29_10h34.03.935,exp1,2023.1.0,60.15927770487157,
,,,,,,,,,,,,,,,,3,8.6,10,11.4,0,0,1.4,1.15,0.25,3.05,10,match,36.05,310,361,411,0,0,9,9,9,0,0,,,,,,,5,0,5,0,0,3,3,43,,,,,,,,,,,,num_3,0.9572657999815419,num_3,0.2,0.4,0.2,1.2,7.6411,45.8466,return,3.6808305000013206,,,,,,,,,,,,,,,,,730,25,male,up_down_width,2024-08-29_10h34.03.935,exp1,2023.1.0,60.15927770487157,
,,,,,,,,,,,,,,,,5,8.6,9.3,10,10.7,11.4,0.7,0.1499999999999999,0.55,3.3499999999999996,10,initial,36.05,310,335,361,386,411,9,9,9,9,9,,,,,,,5,0,5,0,0,4,4,40,,,,,,,,,,,,num_5,1.7121983999968506,num_5,0.35,1.0,0.25,0.45,9.55138,17.19248,return,4.167778300005011,,,,,,,,,,,,,,,,,730,25,male,up_down_width,2024-08-29_10h34.03.935,exp1,2023.1.0,60.15927770487157,
,,,,,,,,,,,,,,,,3,8.2,10,11.8,0,0,1.8,1.55,0.25,3.85,10,match,36.05,296,361,425,0,0,9,9,9,0,0,,,,,,,5,0,5,0,0,5,5,49,,,,,,,,,,,,num_3,1.39706479999586,num_3,0.25,0.9,0.2,1.5,7.6411,57.30826,return,3.771115700015798,,,,,,,,,,,,,,,,,730,25,male,up_down_width,2024-08-29_10h34.03.935,exp1,2023.1.0,60.15927770487157,
,,,,,,,,,,,,,,,,5,8.2,9.1,10,10.9,11.8,0.9,0.5,0.4,4,10,initial,36.05,296,328,361,393,425,9,9,9,9,9,,,,,,,5,0,5,0,0,6,6,50,,,,,,,,,,,,num_5,1.9765183000126854,num_5,0.4,0.8,0.25000000000000006,0.5,9.55138,19.10275,return,2.4232857000024524,,,,,,,,,,,,,,,,,730,25,male,up_down_width,2024-08-29_10h34.03.935,exp1,2023.1.0,60.15927770487157,
,,,,,,,,,,,,,,,,4,8.9,9.633333333333333,10.366666666666667,11.1,0,0.7333333333333333,0.18333333333333326,0.55,2.75,10,match,36.05,321,347,374,400,0,9,9,9,9,0,,,,,,,5,0,5,0,0,7,7,1,,,,,,,,,,,,num_3,1.3798274000000674,num_3,0.2,0.5,0.44999999999999996,0.95,17.19248,36.29523,return,5.414572400011821,,,,,,,,,,,,,,,,,730,25,male,up_down_width,2024-08-29_10h34.03.935,exp1,2023.1.0,60.15927770487157,
,,,,,,,,,,,,,,,,3,8.2,10,11.8,0,0,1.7999999999999998,1.4,0.4,4,10,match,36.05,296,361,425,0,0,9,9,9,0,0,,,,,,,5,0,5,0,0,8,8,51,,,,,,,,,,,,num_3,0.9231191999861039,num_3,0.5,0.8,0.25000000000000006,1.0,9.55138,38.2055,return,3.265072800015332,,,,,,,,,,,,,,,,,730,25,male,up_down_width,2024-08-29_10h34.03.935,exp1,2023.1.0,60.15927770487157,
,,,,,,,,,,,,,,,,5,7.8,8.9,10,11.1,12.2,1.1,0.8500000000000001,0.25,4.65,10,initial,36.05,281,321,361,400,440,9,9,9,9,9,,,,,,,5,0,5,0,0,9,9,36,,,,,,,,,,,,num_4,1.0119646999810357,num_4,0.35,1.1,0.2,0.8,7.6411,30.5644,return,2.1325018999923486,,,,,,,,,,,,,,,,,730,25,male,up_down_width,2024-08-29_10h34.03.935,exp1,2023.1.0,60.15927770487157,
,,,,,,,,,,,,,,,,3,9.3,10,10.7,0,0,0.7,0.1499999999999999,0.55,1.95,10,initial,36.05,335,361,386,0,0,9,9,9,0,0,,,,,,,5,0,5,0,0,10,10,6,,,,,,,,,,,,num_3,0.8914826999825891,num_3,0.2,1,0.44999999999999996,0.7,17.19248,26.74385,return,3.809254299994791,,,,,,,,,,,,,,,,,730,25,male,up_down_width,2024-08-29_10h34.03.935,exp1,2023.1.0,60.15927770487157,
