amount_p,posx1_p,posx2_p,posx3_p,posx4_p,posx5_p,center_to_center_p,edge_to_edge_p,w_p,stim_lengt_p,eccentricity_p,line1_p,line2_p,line3_p,line4_p,line5_p,amount,posx1,posx2,posx3,posx4,posx5,center_to_center,edge_to_edge,w,stim_length,eccentricity,trial_type,deg_to_pix_index,posx1_in_pix,posx2_in_pix,posx3_in_pix,posx4_in_pix,posx5_in_pix,line1,line2,line3,line4,line5,trials.thisRepN,trials.thisTrialN,trials.thisN,trials.thisIndex,blocks.thisRepN,blocks.thisTrialN,blocks.thisN,blocks.thisIndex,loop.thisRepN,loop.thisTrialN,loop.thisN,loop.thisIndex,key_resp_3.keys,key_resp_3.rt,key_resp_3.started,key_resp_3.stopped,key_resp.keys,key_resp.rt,response,starting_width_deg,starting_space_deg,response_width_degree,response_spacing_degree,response_width_pixel,response_spacing_pixel,next_5.keys,next_5.rt,key_resp_4.keys,key_resp_4.rt,text_3.started,text_3.stopped,text_4.started,text_4.stopped,participant,age,gender,resp_group,date,expName,psychopyVersion,frameRate,
,,,,,,,,,,,,,,,,,,,,,,,,,,,,,,,,,,,,,,,,,,,,,,,,,,,c,61.514595499960706,26.832364599918947,None,,,,,,,,,,,,,,,,,,11,23,female,left_right_width,2023_Aug_28_1638,exp1,2021.2.3,59.99847601313559,
3,8.2,10,11.8,0,0,1.7999999999999998,1.4,0.4,4,10,9,9,9,0,0,,,,,,,,,,,,,,,,,,,,,,,,0,0,0,2,,,,,,,,,,,,,num_3,8.12758979992941,num_3,0.1,0.8,0.15000000000000002,0.85,5.40644,30.63649,return,4.98594939999748,,,,,,,11,23,female,left_right_width,2023_Aug_28_1638,exp1,2021.2.3,59.99847601313559,
3,9.5,10,10.5,0,0,0.5,0.4,0.1,1.1,10,9,9,9,0,0,,,,,,,,,,,,,,,,,,,,,,,,0,1,1,0,,,,,,,,,,,,,num_4,3.706914799986407,num_4,0.2,0.6,-0.04999999999999999,0.6,-1.80215,21.62576,return,8.726151300012134,,,,,,,11,23,female,left_right_width,2023_Aug_28_1638,exp1,2021.2.3,59.99847601313559,
5,8.6,9.3,10,10.7,11.4,0.7,0.29999999999999993,0.4,3.1999999999999997,10,9,9,9,9,9,,,,,,,,,,,,,,,,,,,,,,,,0,2,2,7,,,,,,,,,,,,,num_5,4.273273200029507,num_5,0.35,0.8,0.25,0.85,9.01073,30.63649,return,4.915066400077194,,,,,,,11,23,female,left_right_width,2023_Aug_28_1638,exp1,2021.2.3,59.99847601313559,
4,9.25,9.75,10.25,10.75,0,0.5,0.25,0.25,1.75,10,9,9,9,9,0,,,,,,,,,,,,,,,,,,,,,,,,0,3,3,4,,,,,,,,,,,,,num_4,3.161125999991782,num_4,0.2,1.1,0.25,0.8,9.01073,28.83434,return,5.273886200040579,,,,,,,11,23,female,left_right_width,2023_Aug_28_1638,exp1,2021.2.3,59.99847601313559,
5,9,9.5,10,10.5,11,0.5,0.09999999999999998,0.4,2.4,10,9,9,9,9,9,,,,,,,,,,,,,,,,,,,,,,,,0,4,4,8,,,,,,,,,,,,,num_5,2.6471874999115244,num_5,0.15,0.3,0.3,0.65,10.81288,23.4279,return,17.084399899933487,,,,,,,11,23,female,left_right_width,2023_Aug_28_1638,exp1,2021.2.3,59.99847601313559,
4,9.5,9.833333333333334,10.166666666666666,10.5,0,0.33333333333333337,0.23333333333333336,0.1,1.1,10,9,9,9,9,0,,,,,,,,,,,,,,,,,,,,,,,,0,5,5,3,,,,,,,,,,,,,num_4,2.2414736000355333,num_4,0.25,1.0,0.10000000000000002,0.6,3.60429,21.62576,return,9.173440999933518,,,,,,,11,23,female,left_right_width,2023_Aug_28_1638,exp1,2021.2.3,59.99847601313559,
5,9.25,9.625,10,10.375,10.75,0.375,0.125,0.25,1.75,10,9,9,9,9,9,,,,,,,,,,,,,,,,,,,,,,,,0,6,6,6,,,,,,,,,,,,,num_6,3.27247049997095,num_6,0.3,0.6,0.25,0.5,9.01073,18.02146,return,6.307788299978711,,,,,,,11,23,female,left_right_width,2023_Aug_28_1638,exp1,2021.2.3,59.99847601313559,
3,9,10,11,0,0,1,0.9,0.1,2.1,10,9,9,9,0,0,,,,,,,,,,,,,,,,,,,,,,,,0,7,7,1,,,,,,,,,,,,,num_4,2.5484277999494225,num_4,0.45,0.7,0.15000000000000008,0.9,5.40644,32.43864,return,4.779595500091091,,,,,,,11,23,female,left_right_width,2023_Aug_28_1638,exp1,2021.2.3,59.99847601313559,
4,8.65,9.55,10.45,11.35,0,0.9,0.5,0.4,3.1,10,9,9,9,9,0,,,,,,,,,,,,,,,,,,,,,,,,0,8,8,5,,,,,,,,,,,,,num_6,1.7828772000502795,num_6,0.35,0.4,0.25,0.8,9.01073,28.83434,return,14.719782499945723,,,,,,,11,23,female,left_right_width,2023_Aug_28_1638,exp1,2021.2.3,59.99847601313559,
,,,,,,,,,,,,,,,,,,,,,,,,,,,,,,,,,,,,,,,,,,,,,,,,,,,,,,,,,,,,,,,,,,c,86.49656260001939,,,,,11,23,female,left_right_width,2023_Aug_28_1638,exp1,2021.2.3,59.99847601313559,
,,,,,,,,,,,,,,,,3,8.2,10,11.8,0,0,1.8000000000000003,1.7000000000000002,0.1,3.7,10,match,36.05,296,361,425,0,0,9,9,9,0,0,,,,,0,0,0,0,0,0,0,49,,,,,num_4,1.2063681000145152,num_4,0.35,1.1,0.15000000000000002,1.6,5.40644,57.66869,return,6.9001839000266045,,,,,,,11,23,female,left_right_width,2023_Aug_28_1638,exp1,2021.2.3,59.99847601313559,
,,,,,,,,,,,,,,,,5,9.175,9.5875,10,10.4125,10.825,0.4125,0.16249999999999998,0.25,1.9,10,match,36.05,331,346,361,375,390,9,9,9,9,9,,,,,0,0,0,0,0,1,1,23,,,,,num_5,1.3297979000490159,num_5,0.2,0.3,0.2,0.45,7.20859,16.21932,return,3.434734100010246,,,,,,,11,23,female,left_right_width,2023_Aug_28_1638,exp1,2021.2.3,59.99847601313559,
,,,,,,,,,,,,,,,,3,8.2,10,11.8,0,0,1.8,1.55,0.25,3.85,10,match,36.05,296,361,425,0,0,9,9,9,0,0,,,,,0,0,0,0,0,2,2,51,,,,,num_4,1.9151813000207767,num_4,0.3,1.0,0.25,1.8,9.01073,64.87727,return,5.550912800012156,,,,,,,11,23,female,left_right_width,2023_Aug_28_1638,exp1,2021.2.3,59.99847601313559,
,,,,,,,,,,,,,,,,3,9.3,10,10.7,0,0,0.7,0.44999999999999996,0.25,1.65,10,initial,36.05,335,361,386,0,0,9,9,9,0,0,,,,,0,0,0,0,0,3,3,8,,,,,num_4,1.70820780005306,num_4,0.1,0.6,0.25,0.8,9.01073,28.83434,return,3.684504500008188,,,,,,,11,23,female,left_right_width,2023_Aug_28_1638,exp1,2021.2.3,59.99847601313559,
,,,,,,,,,,,,,,,,5,8.2,9.1,10,10.9,11.8,0.9,0.8,0.1,3.7,10,initial,36.05,296,328,361,393,425,9,9,9,9,9,,,,,0,0,0,0,0,4,4,48,,,,,num_7,2.5444035000400618,num_7,0.45,0.5,0.15000000000000008,0.9,5.40644,32.43864,return,5.753019699943252,,,,,,,11,23,female,left_right_width,2023_Aug_28_1638,exp1,2021.2.3,59.99847601313559,
,,,,,,,,,,,,,,,,5,9,9.5,10,10.5,11,0.5,0.25,0.25,2.25,10,initial,36.05,324,342,361,379,397,9,9,9,9,9,,,,,0,0,0,0,0,5,5,38,,,,,num_7,5.084651899989694,num_7,0.2,0.5,0.2,0.6,7.20859,21.62576,return,1.7581346000079066,,,,,,,11,23,female,left_right_width,2023_Aug_28_1638,exp1,2021.2.3,59.99847601313559,
,,,,,,,,,,,,,,,,4,8.65,9.55,10.45,11.35,0,0.9,0.5,0.4,3.1,10,initial,36.05,312,344,377,409,0,9,9,9,9,0,,,,,0,0,0,0,0,6,6,34,,,,,num_6,2.9076416000025347,num_6,0.25,0.8,0.25,0.7,9.01073,25.23005,return,2.3904448999091983,,,,,,,11,23,female,left_right_width,2023_Aug_28_1638,exp1,2021.2.3,59.99847601313559,
,,,,,,,,,,,,,,,,5,9.25,9.625,10,10.375,10.75,0.375,0.125,0.25,1.75,10,match,36.05,333,347,361,374,388,9,9,9,9,9,,,,,0,0,0,0,0,7,7,21,,,,,num_8,1.437097099958919,num_8,0.2,0.3,0.25,0.5,9.01073,18.02146,return,5.120365199982189,,,,,,,11,23,female,left_right_width,2023_Aug_28_1638,exp1,2021.2.3,59.99847601313559,
,,,,,,,,,,,,,,,,5,8.6,9.3,10,10.7,11.4,0.7,0.29999999999999993,0.4,3.1999999999999997,10,initial,36.05,310,335,361,386,411,9,9,9,9,9,,,,,0,0,0,0,0,8,8,46,,,,,num_7,1.3077174000209197,num_7,0.45,0.9,0.30000000000000004,0.75,10.81288,27.0322,return,4.6760416000615805,,,,,,,11,23,female,left_right_width,2023_Aug_28_1638,exp1,2021.2.3,59.99847601313559,
,,,,,,,,,,,,,,,,3,9.3,10,10.7,0,0,0.7,0.6,0.1,1.5,10,initial,36.05,335,361,386,0,0,9,9,9,0,0,,,,,0,0,0,0,0,9,9,6,,,,,num_4,1.4476687000133097,num_4,0.25,0.7,0.10000000000000002,0.7,3.60429,25.23005,return,2.6351526000071317,,,,,,,11,23,female,left_right_width,2023_Aug_28_1638,exp1,2021.2.3,59.99847601313559,
,,,,,,,,,,,,,,,,3,8.6,10,11.4,0,0,1.4,1.2999999999999998,0.1,2.9,10,match,36.05,310,361,411,0,0,9,9,9,0,0,,,,,0,0,0,0,0,10,10,43,,,,,num_5,2.1804565000347793,num_5,0.3,0.6,0.10000000000000002,0.6,3.60429,21.62576,return,2.566592799965292,,,,,,,11,23,female,left_right_width,2023_Aug_28_1638,exp1,2021.2.3,59.99847601313559,
,,,,,,,,,,,,,,,,5,8.95,9.475,10,10.525,11.05,0.525,0.275,0.25,2.35,10,match,36.05,323,342,361,379,398,9,9,9,9,9,,,,,0,0,0,0,0,11,11,27,,,,,num_6,1.9105959000298753,num_6,0.1,0.9,0.2,0.8,7.20859,28.83434,return,2.4732414999743924,,,,,,,11,23,female,left_right_width,2023_Aug_28_1638,exp1,2021.2.3,59.99847601313559,
,,,,,,,,,,,,,,,,5,9.25,9.625,10,10.375,10.75,0.375,0.275,0.1,1.6,10,match,36.05,333,347,361,374,388,9,9,9,9,9,,,,,0,0,0,0,0,12,12,19,,,,,num_8,1.3564951999578625,num_8,0.3,0.4,0.15000000000000002,0.5,5.40644,18.02146,return,3.3347047999268398,,,,,,,11,23,female,left_right_width,2023_Aug_28_1638,exp1,2021.2.3,59.99847601313559,
,,,,,,,,,,,,,,,,4,8.95,9.65,10.35,11.05,0,0.7,0.6,0.1,2.1999999999999997,10,initial,36.05,323,348,373,398,0,9,9,9,9,0,,,,,0,0,0,0,0,13,13,24,,,,,num_5,1.5286048999987543,num_5,0.25,0.9,0.2,0.85,7.20859,30.63649,return,1.9753303000470623,,,,,,,11,23,female,left_right_width,2023_Aug_28_1638,exp1,2021.2.3,59.99847601313559,
,,,,,,,,,,,,,,,,3,9,10,11,0,0,0.9999999999999999,0.5999999999999999,0.4,2.4,10,match,36.05,324,361,397,0,0,9,9,9,0,0,,,,,0,0,0,0,0,14,14,41,,,,,num_4,1.0477258000755683,num_4,0.25,1.0,0.3,1.0,10.81288,36.04293,return,2.1419110998976976,,,,,,,11,23,female,left_right_width,2023_Aug_28_1638,exp1,2021.2.3,59.99847601313559,
,,,,,,,,,,,,,,,,3,9.3,10,10.7,0,0,0.7,0.29999999999999993,0.4,1.8,10,initial,36.05,335,361,386,0,0,9,9,9,0,0,,,,,0,0,0,0,0,15,15,10,,,,,num_4,1.2458000000333413,num_4,0.3,0.8,0.3,0.8,10.81288,28.83434,return,1.767659300006926,,,,,,,11,23,female,left_right_width,2023_Aug_28_1638,exp1,2021.2.3,59.99847601313559,
,,,,,,,,,,,,,,,,4,8.95,9.65,10.35,11.05,0,0.7,0.29999999999999993,0.4,2.5,10,initial,36.05,323,348,373,398,0,9,9,9,9,0,,,,,0,0,0,0,0,16,16,28,,,,,num_6,1.6865425000432879,num_6,0.2,1.2,0.3,0.9,10.81288,32.43864,return,5.295123100047931,,,,,,,11,23,female,left_right_width,2023_Aug_28_1638,exp1,2021.2.3,59.99847601313559,
,,,,,,,,,,,,,,,,4,9.25,9.75,10.25,10.75,0,0.5,0.09999999999999998,0.4,1.9,10,initial,36.05,333,351,370,388,0,9,9,9,9,0,,,,,0,0,0,0,0,17,17,22,,,,,num_4,1.7677828000159934,num_4,0.2,1.2,0.3,1.0,10.81288,36.04293,return,6.5270961000351235,,,,,,,11,23,female,left_right_width,2023_Aug_28_1638,exp1,2021.2.3,59.99847601313559,
,,,,,,,,,,,,,,,,3,9.1,10,10.9,0,0,0.9,0.65,0.25,2.05,10,initial,36.05,328,361,393,0,0,9,9,9,0,0,,,,,0,0,0,0,0,18,18,14,,,,,num_5,2.4118351000361145,num_5,0.25,0.6,0.15000000000000002,0.75,5.40644,27.0322,return,3.9304995000129566,,,,,,,11,23,female,left_right_width,2023_Aug_28_1638,exp1,2021.2.3,59.99847601313559,
,,,,,,,,,,,,,,,,4,9.25,9.75,10.25,10.75,0,0.5,0.4,0.1,1.6,10,initial,36.05,333,351,370,388,0,9,9,9,9,0,,,,,0,0,0,0,0,19,19,18,,,,,num_6,2.109829099965282,num_6,0.45,0.9,0.20000000000000007,0.8,7.20859,28.83434,return,3.304936800035648,,,,,,,11,23,female,left_right_width,2023_Aug_28_1638,exp1,2021.2.3,59.99847601313559,
,,,,,,,,,,,,,,,,4,8.65,9.55,10.45,11.35,0,0.9,0.65,0.25,2.95,10,initial,36.05,312,344,377,409,0,9,9,9,9,0,,,,,0,0,0,0,0,20,20,32,,,,,num_7,2.8592489999718964,num_7,0.3,0.4,0.2,0.6,7.20859,21.62576,return,3.89589020004496,,,,,,,11,23,female,left_right_width,2023_Aug_28_1638,exp1,2021.2.3,59.99847601313559,
,,,,,,,,,,,,,,,,3,9.5,10,10.5,0,0,0.5,0.4,0.1,1.1,10,initial,36.05,342,361,379,0,0,9,9,9,0,0,,,,,0,0,0,0,0,21,21,0,,,,,num_4,3.028398099937476,num_4,0.15,0.3,0.09999999999999999,0.8,3.60429,28.83434,return,4.743304900010116,,,,,,,11,23,female,left_right_width,2023_Aug_28_1638,exp1,2021.2.3,59.99847601313559,
,,,,,,,,,,,,,,,,5,8.2,9.1,10,10.9,11.8,0.9,0.5,0.4,4,10,initial,36.05,296,328,361,393,425,9,9,9,9,9,,,,,0,0,0,0,0,22,22,52,,,,,num_7,3.2849014999810606,num_7,0.45,0.6,0.25000000000000006,0.6,9.01073,21.62576,return,3.1828754999442026,,,,,,,11,23,female,left_right_width,2023_Aug_28_1638,exp1,2021.2.3,59.99847601313559,
,,,,,,,,,,,,,,,,4,8.65,9.55,10.45,11.35,0,0.9,0.8,0.1,2.8000000000000003,10,initial,36.05,312,344,377,409,0,9,9,9,9,0,,,,,0,0,0,0,0,23,23,30,,,,,num_6,3.2258310000179335,num_6,0.4,1.1,0.15000000000000008,0.9,5.40644,32.43864,return,8.344188600080088,,,,,,,11,23,female,left_right_width,2023_Aug_28_1638,exp1,2021.2.3,59.99847601313559,
,,,,,,,,,,,,,,,,4,9.5,9.833333333333334,10.166666666666666,10.5,0,0.33333333333333337,0.23333333333333336,0.1,1.1,10,match,36.05,342,354,367,379,0,9,9,9,9,0,,,,,0,0,0,0,0,24,24,1,,,,,num_6,3.369814999983646,num_6,0.25,0.9,0.15000000000000002,0.6,5.40644,21.62576,return,3.7142417000140995,,,,,,,11,23,female,left_right_width,2023_Aug_28_1638,exp1,2021.2.3,59.99847601313559,
,,,,,,,,,,,,,,,,5,8.6,9.3,10,10.7,11.4,0.7,0.6,0.1,2.9,10,initial,36.05,310,335,361,386,411,9,9,9,9,9,,,,,0,0,0,0,0,25,25,42,,,,,num_8,1.4291456999490038,num_8,0.4,0.7,0.15000000000000008,0.5,5.40644,18.02146,return,2.330181499943137,,,,,,,11,23,female,left_right_width,2023_Aug_28_1638,exp1,2021.2.3,59.99847601313559,
,,,,,,,,,,,,,,,,5,9,9.5,10,10.5,11,0.5,0.4,0.1,2.1,10,initial,36.05,324,342,361,379,397,9,9,9,9,9,,,,,0,0,0,0,0,26,26,36,,,,,num_7,1.2043678999179974,num_7,0.45,0.9,0.10000000000000007,0.6,3.60429,21.62576,return,3.6665212999796495,,,,,,,11,23,female,left_right_width,2023_Aug_28_1638,exp1,2021.2.3,59.99847601313559,
,,,,,,,,,,,,,,,,4,9.3,9.766666666666667,10.233333333333333,10.7,0,0.4666666666666667,0.3666666666666667,0.1,1.5,10,match,36.05,335,352,369,386,0,9,9,9,9,0,,,,,0,0,0,0,0,27,27,7,,,,,num_5,1.248969600070268,num_5,0.1,0.9,-0.09999999999999999,0.8,-3.60429,28.83434,return,6.511118900030851,,,,,,,11,23,female,left_right_width,2023_Aug_28_1638,exp1,2021.2.3,59.99847601313559,
,,,,,,,,,,,,,,,,5,8.95,9.475,10,10.525,11.05,0.525,0.125,0.4,2.5,10,match,36.05,323,342,361,379,398,9,9,9,9,9,,,,,0,0,0,0,0,28,28,29,,,,,num_7,1.548455800046213,num_7,0.1,1.2,0.2,0.8,7.20859,28.83434,return,5.502427900093608,,,,,,,11,23,female,left_right_width,2023_Aug_28_1638,exp1,2021.2.3,59.99847601313559,
,,,,,,,,,,,,,,,,3,8.2,10,11.8,0,0,1.7999999999999998,1.4,0.4,4,10,match,36.05,296,361,425,0,0,9,9,9,0,0,,,,,0,0,0,0,0,29,29,53,,,,,num_4,1.3002924000611529,num_4,0.15,0.9,0.3,1.3,10.81288,46.85581,return,2.3336345000425354,,,,,,,11,23,female,left_right_width,2023_Aug_28_1638,exp1,2021.2.3,59.99847601313559,
,,,,,,,,,,,,,,,,4,9.5,9.833333333333334,10.166666666666666,10.5,0,0.3333333333333333,0.08333333333333333,0.25,1.25,10,match,36.05,342,354,367,379,0,9,9,9,9,0,,,,,0,0,0,0,0,30,30,3,,,,,num_5,3.1570504000410438,num_5,0.35,0.8,0.25,0.65,9.01073,23.4279,return,3.8431074999971315,,,,,,,11,23,female,left_right_width,2023_Aug_28_1638,exp1,2021.2.3,59.99847601313559,
,,,,,,,,,,,,,,,,4,9.25,9.75,10.25,10.75,0,0.5,0.25,0.25,1.75,10,initial,36.05,333,351,370,388,0,9,9,9,9,0,,,,,0,0,0,0,0,31,31,20,,,,,num_6,1.868254299974069,num_6,0.35,0.6,0.2,0.5,7.20859,18.02146,return,2.5609883000142872,,,,,,,11,23,female,left_right_width,2023_Aug_28_1638,exp1,2021.2.3,59.99847601313559,
,,,,,,,,,,,,,,,,5,8.2,9.1,10,10.9,11.8,0.9,0.65,0.25,3.85,10,initial,36.05,296,328,361,393,425,9,9,9,9,9,,,,,0,0,0,0,0,32,32,50,,,,,num_9,1.4951907000504434,num_9,0.25,0.6,0.15000000000000002,0.55,5.40644,19.82361,return,3.114621799904853,,,,,,,11,23,female,left_right_width,2023_Aug_28_1638,exp1,2021.2.3,59.99847601313559,
,,,,,,,,,,,,,,,,5,8.6,9.3,10,10.7,11.4,0.7,0.44999999999999996,0.25,3.05,10,initial,36.05,310,335,361,386,411,9,9,9,9,9,,,,,0,0,0,0,0,33,33,44,,,,,num_7,1.5305099999532104,num_7,0.3,0.3,0.2,0.65,7.20859,23.4279,return,9.210113100009039,,,,,,,11,23,female,left_right_width,2023_Aug_28_1638,exp1,2021.2.3,59.99847601313559,
,,,,,,,,,,,,,,,,4,8.95,9.65,10.35,11.05,0,0.7,0.44999999999999996,0.25,2.3499999999999996,10,initial,36.05,323,348,373,398,0,9,9,9,9,0,,,,,0,0,0,0,0,34,34,26,,,,,num_6,1.7524741000961512,num_6,0.45,1.1,0.15000000000000008,0.9,5.40644,32.43864,return,3.4720225000055507,,,,,,,11,23,female,left_right_width,2023_Aug_28_1638,exp1,2021.2.3,59.99847601313559,
,,,,,,,,,,,,,,,,3,9.1,10,10.9,0,0,0.9,0.5,0.4,2.2,10,initial,36.05,328,361,393,0,0,9,9,9,0,0,,,,,0,0,0,0,0,35,35,16,,,,,num_4,1.0524781999411061,num_4,0.25,0.5,0.25,1.0,9.01073,36.04293,return,2.2574250999605283,,,,,,,11,23,female,left_right_width,2023_Aug_28_1638,exp1,2021.2.3,59.99847601313559,
,,,,,,,,,,,,,,,,5,8.65,9.325,10,10.675,11.35,0.675,0.42500000000000004,0.25,2.95,10,match,36.05,312,336,361,385,409,9,9,9,9,9,,,,,0,0,0,0,0,36,36,33,,,,,num_8,2.6910432999720797,num_8,0.25,0.5,0.2,0.6,7.20859,21.62576,return,4.470016900100745,,,,,,,11,23,female,left_right_width,2023_Aug_28_1638,exp1,2021.2.3,59.99847601313559,
,,,,,,,,,,,,,,,,4,9.3,9.766666666666667,10.233333333333333,10.7,0,0.4666666666666667,0.21666666666666665,0.25,1.65,10,match,36.05,335,352,369,386,0,9,9,9,9,0,,,,,0,0,0,0,0,37,37,9,,,,,num_6,1.7404500000411645,num_6,0.1,0.8,0.25,0.6,9.01073,21.62576,return,4.980983899906278,,,,,,,11,23,female,left_right_width,2023_Aug_28_1638,exp1,2021.2.3,59.99847601313559,
,,,,,,,,,,,,,,,,4,9.3,9.766666666666667,10.233333333333333,10.7,0,0.4666666666666667,0.06666666666666665,0.4,1.8,10,match,36.05,335,352,369,386,0,9,9,9,9,0,,,,,0,0,0,0,0,38,38,11,,,,,num_7,3.472914700047113,num_7,0.25,0.5,0.25,0.45,9.01073,16.21932,return,1.574278400046751,,,,,,,11,23,female,left_right_width,2023_Aug_28_1638,exp1,2021.2.3,59.99847601313559,
,,,,,,,,,,,,,,,,4,9.425,9.808333333333334,10.191666666666666,10.575,0,0.3833333333333333,0.1333333333333333,0.25,1.4,10,match,36.05,340,354,367,381,0,9,9,9,9,0,,,,,0,0,0,0,0,39,39,5,,,,,num_5,1.0586599999805912,num_5,0.35,0.7,0.2,0.6,7.20859,21.62576,return,2.1165429999819025,,,,,,,11,23,female,left_right_width,2023_Aug_28_1638,exp1,2021.2.3,59.99847601313559,
,,,,,,,,,,,,,,,,3,8.525,10,11.475,0,0,1.475,1.225,0.25,3.2,10,match,36.05,307,361,414,0,0,9,9,9,0,0,,,,,0,0,0,0,0,40,40,47,,,,,num_4,0.9370340999448672,num_4,0.3,1.2,0.2,1.4,7.20859,50.4601,return,2.867302600061521,,,,,,,11,23,female,left_right_width,2023_Aug_28_1638,exp1,2021.2.3,59.99847601313559,
,,,,,,,,,,,,,,,,3,8.6,10,11.4,0,0,1.4,1.15,0.25,3.05,10,match,36.05,310,361,411,0,0,9,9,9,0,0,,,,,0,0,0,0,0,41,41,45,,,,,num_4,1.1223740000277758,num_4,0.4,1.0,0.15000000000000008,1.1,5.40644,39.64722,return,4.773228399921209,,,,,,,11,23,female,left_right_width,2023_Aug_28_1638,exp1,2021.2.3,59.99847601313559,
,,,,,,,,,,,,,,,,5,8.65,9.325,10,10.675,11.35,0.675,0.275,0.4,3.1,10,match,36.05,312,336,361,385,409,9,9,9,9,9,,,,,0,0,0,0,0,42,42,35,,,,,num_5,1.6536825000075623,num_5,0.25,0.3,0.15000000000000002,0.7,5.40644,25.23005,return,4.6399786999681965,,,,,,,11,23,female,left_right_width,2023_Aug_28_1638,exp1,2021.2.3,59.99847601313559,
,,,,,,,,,,,,,,,,4,9.1,9.7,10.3,10.9,0,0.5999999999999999,0.3499999999999999,0.25,2.05,10,match,36.05,328,350,371,393,0,9,9,9,9,0,,,,,0,0,0,0,0,43,43,15,,,,,num_7,2.5934578999876976,num_7,0.4,1.1,0.15000000000000008,0.8,5.40644,28.83434,return,3.0165763000259176,,,,,,,11,23,female,left_right_width,2023_Aug_28_1638,exp1,2021.2.3,59.99847601313559,
,,,,,,,,,,,,,,,,3,9,10,11,0,0,1,0.75,0.25,2.25,10,match,36.05,324,361,397,0,0,9,9,9,0,0,,,,,0,0,0,0,0,44,44,39,,,,,num_5,1.1702584000304341,num_5,0.2,0.7,0.10000000000000002,0.65,3.60429,23.4279,return,2.4019514999818057,,,,,,,11,23,female,left_right_width,2023_Aug_28_1638,exp1,2021.2.3,59.99847601313559,
,,,,,,,,,,,,,,,,4,9.1,9.7,10.3,10.9,0,0.6000000000000001,0.20000000000000004,0.4,2.2,10,match,36.05,328,350,371,393,0,9,9,9,9,0,,,,,0,0,0,0,0,45,45,17,,,,,num_5,0.953006700030528,num_5,0.1,1.1,0.3,1.1,10.81288,39.64722,return,3.824730099993758,,,,,,,11,23,female,left_right_width,2023_Aug_28_1638,exp1,2021.2.3,59.99847601313559,
,,,,,,,,,,,,,,,,4,9.1,9.7,10.3,10.9,0,0.6,0.5,0.1,1.9,10,match,36.05,328,350,371,393,0,9,9,9,9,0,,,,,0,0,0,0,0,46,46,13,,,,,num_6,2.6290834000101313,num_6,0.2,1.2,0.10000000000000002,0.9,3.60429,32.43864,return,4.122646800009534,,,,,,,11,23,female,left_right_width,2023_Aug_28_1638,exp1,2021.2.3,59.99847601313559,
,,,,,,,,,,,,,,,,3,9.5,10,10.5,0,0,0.5,0.25,0.25,1.25,10,initial,36.05,342,361,379,0,0,9,9,9,0,0,,,,,0,0,0,0,0,47,47,2,,,,,num_4,1.0682037000078708,num_4,0.1,1.1,0.3,0.9,10.81288,32.43864,return,4.226461200043559,,,,,,,11,23,female,left_right_width,2023_Aug_28_1638,exp1,2021.2.3,59.99847601313559,
,,,,,,,,,,,,,,,,5,9,9.5,10,10.5,11,0.5,0.09999999999999998,0.4,2.4,10,initial,36.05,324,342,361,379,397,9,9,9,9,9,,,,,0,0,0,0,0,48,48,40,,,,,num_6,1.0667663000058383,num_6,0.35,1.3,0.25,1.0,9.01073,36.04293,return,6.9576896000653505,,,,,,,11,23,female,left_right_width,2023_Aug_28_1638,exp1,2021.2.3,59.99847601313559,
,,,,,,,,,,,,,,,,3,9.5,10,10.5,0,0,0.5,0.09999999999999998,0.4,1.4000000000000001,10,initial,36.05,342,361,379,0,0,9,9,9,0,0,,,,,0,0,0,0,0,49,49,4,,,,,num_4,1.337355999974534,num_4,0.25,0.4,0.25,0.7,9.01073,25.23005,return,2.114418899989687,,,,,,,11,23,female,left_right_width,2023_Aug_28_1638,exp1,2021.2.3,59.99847601313559,
,,,,,,,,,,,,,,,,5,8.65,9.325,10,10.675,11.35,0.6749999999999999,0.575,0.1,2.8,10,match,36.05,312,336,361,385,409,9,9,9,9,9,,,,,0,0,0,0,0,50,50,31,,,,,num_5,2.640430700033903,num_5,0.4,1.0,0.20000000000000007,0.95,7.20859,34.24078,return,2.4698531000176445,,,,,,,11,23,female,left_right_width,2023_Aug_28_1638,exp1,2021.2.3,59.99847601313559,
,,,,,,,,,,,,,,,,3,9.1,10,10.9,0,0,0.9,0.8,0.1,1.9000000000000001,10,initial,36.05,328,361,393,0,0,9,9,9,0,0,,,,,0,0,0,0,0,51,51,12,,,,,num_4,1.1457857999484986,num_4,0.2,1.2,0.10000000000000002,1.3,3.60429,46.85581,return,3.355220500030555,,,,,,,11,23,female,left_right_width,2023_Aug_28_1638,exp1,2021.2.3,59.99847601313559,
,,,,,,,,,,,,,,,,5,8.95,9.475,10,10.525,11.05,0.525,0.42500000000000004,0.1,2.2,10,match,36.05,323,342,361,379,398,9,9,9,9,9,,,,,0,0,0,0,0,52,52,25,,,,,num_6,1.6237837000517175,num_6,0.3,1.2,0.05000000000000002,0.9,1.80215,32.43864,return,2.7223240999737754,,,,,,,11,23,female,left_right_width,2023_Aug_28_1638,exp1,2021.2.3,59.99847601313559,
,,,,,,,,,,,,,,,,3,9,10,11,0,0,1,0.9,0.1,2.1,10,match,36.05,324,361,397,0,0,9,9,9,0,0,,,,,0,0,0,0,0,53,53,37,,,,,num_3,1.432976400014013,num_3,0.3,1.3,0.10000000000000002,1.3,3.60429,46.85581,return,1.485172800021246,,,,,,,11,23,female,left_right_width,2023_Aug_28_1638,exp1,2021.2.3,59.99847601313559,
,,,,,,,,,,,,,,,,,,,,,,,,,,,,,,,,,,,,,,,,,,,0,0,0,0,,,,,,,,,,,,,,,,,,,,,,697.1160186999477,None,697.1160186999477,None,11,23,female,left_right_width,2023_Aug_28_1638,exp1,2021.2.3,59.99847601313559,
,,,,,,,,,,,,,,,,5,9,9.5,10,10.5,11,0.5,0.25,0.25,2.25,10,initial,36.05,324,342,361,379,397,9,9,9,9,9,,,,,1,0,1,0,0,0,0,38,,,,,num_6,1.608611400006339,num_6,0.4,1.0,0.25000000000000006,0.8,9.01073,28.83434,return,2.4874150999821723,,,,,,,11,23,female,left_right_width,2023_Aug_28_1638,exp1,2021.2.3,59.99847601313559,
,,,,,,,,,,,,,,,,3,9.3,10,10.7,0,0,0.7,0.6,0.1,1.5,10,initial,36.05,335,361,386,0,0,9,9,9,0,0,,,,,1,0,1,0,0,1,1,6,,,,,num_4,1.0085109000792727,num_4,0.25,1.0,0.10000000000000002,1.0,3.60429,36.04293,return,1.2560463999398053,,,,,,,11,23,female,left_right_width,2023_Aug_28_1638,exp1,2021.2.3,59.99847601313559,
,,,,,,,,,,,,,,,,3,8.2,10,11.8,0,0,1.8,1.55,0.25,3.85,10,match,36.05,296,361,425,0,0,9,9,9,0,0,,,,,1,0,1,0,0,2,2,51,,,,,num_5,1.981210400001146,num_5,0.2,0.8,0.10000000000000002,1.0,3.60429,36.04293,return,1.6444625000003725,,,,,,,11,23,female,left_right_width,2023_Aug_28_1638,exp1,2021.2.3,59.99847601313559,
,,,,,,,,,,,,,,,,5,9.25,9.625,10,10.375,10.75,0.375,0.125,0.25,1.75,10,match,36.05,333,347,361,374,388,9,9,9,9,9,,,,,1,0,1,0,0,3,3,21,,,,,num_7,1.3738870000233874,num_7,0.35,0.7,0.25,0.75,9.01073,27.0322,return,4.51833639992401,,,,,,,11,23,female,left_right_width,2023_Aug_28_1638,exp1,2021.2.3,59.99847601313559,
,,,,,,,,,,,,,,,,5,8.65,9.325,10,10.675,11.35,0.675,0.42500000000000004,0.25,2.95,10,match,36.05,312,336,361,385,409,9,9,9,9,9,,,,,1,0,1,0,0,4,4,33,,,,,num_6,2.093914599972777,num_6,0.1,0.5,0.2,0.7,7.20859,25.23005,return,3.686905000009574,,,,,,,11,23,female,left_right_width,2023_Aug_28_1638,exp1,2021.2.3,59.99847601313559,
,,,,,,,,,,,,,,,,3,9.5,10,10.5,0,0,0.5,0.09999999999999998,0.4,1.4000000000000001,10,initial,36.05,342,361,379,0,0,9,9,9,0,0,,,,,1,0,1,0,0,5,5,4,,,,,num_4,1.2119723999639973,num_4,0.3,0.3,0.25,0.6,9.01073,21.62576,return,5.08050230005756,,,,,,,11,23,female,left_right_width,2023_Aug_28_1638,exp1,2021.2.3,59.99847601313559,
,,,,,,,,,,,,,,,,4,9.425,9.808333333333334,10.191666666666666,10.575,0,0.3833333333333333,0.1333333333333333,0.25,1.4,10,match,36.05,340,354,367,381,0,9,9,9,9,0,,,,,1,0,1,0,0,6,6,5,,,,,num_5,1.3599391999887303,num_5,0.25,1.2,0.25,0.75,9.01073,27.0322,return,4.473141699912958,,,,,,,11,23,female,left_right_width,2023_Aug_28_1638,exp1,2021.2.3,59.99847601313559,
,,,,,,,,,,,,,,,,4,9.1,9.7,10.3,10.9,0,0.6000000000000001,0.20000000000000004,0.4,2.2,10,match,36.05,328,350,371,393,0,9,9,9,9,0,,,,,1,0,1,0,0,7,7,17,,,,,num_6,2.061764399986714,num_6,0.25,0.8,0.25,0.6,9.01073,21.62576,return,3.274741900037043,,,,,,,11,23,female,left_right_width,2023_Aug_28_1638,exp1,2021.2.3,59.99847601313559,
,,,,,,,,,,,,,,,,4,9.3,9.766666666666667,10.233333333333333,10.7,0,0.4666666666666667,0.06666666666666665,0.4,1.8,10,match,36.05,335,352,369,386,0,9,9,9,9,0,,,,,1,0,1,0,0,8,8,11,,,,,num_7,1.453980499994941,num_7,0.2,1.3,0.25,0.75,9.01073,27.0322,return,5.730796599993482,,,,,,,11,23,female,left_right_width,2023_Aug_28_1638,exp1,2021.2.3,59.99847601313559,
,,,,,,,,,,,,,,,,4,9.1,9.7,10.3,10.9,0,0.6,0.5,0.1,1.9,10,match,36.05,328,350,371,393,0,9,9,9,9,0,,,,,1,0,1,0,0,9,9,13,,,,,num_5,1.9737637999933213,num_5,0.1,1.3,0.1,1.2,3.60429,43.25151,return,3.0624466000590473,,,,,,,11,23,female,left_right_width,2023_Aug_28_1638,exp1,2021.2.3,59.99847601313559,
,,,,,,,,,,,,,,,,3,9,10,11,0,0,0.9999999999999999,0.5999999999999999,0.4,2.4,10,match,36.05,324,361,397,0,0,9,9,9,0,0,,,,,1,0,1,0,0,10,10,41,,,,,num_5,1.348255200078711,num_5,0.4,0.7,0.20000000000000007,0.8,7.20859,28.83434,return,2.989672099938616,,,,,,,11,23,female,left_right_width,2023_Aug_28_1638,exp1,2021.2.3,59.99847601313559,
,,,,,,,,,,,,,,,,5,8.65,9.325,10,10.675,11.35,0.6749999999999999,0.575,0.1,2.8,10,match,36.05,312,336,361,385,409,9,9,9,9,9,,,,,1,0,1,0,0,11,11,31,,,,,num_7,1.0416691999416798,num_7,0.35,1.0,0.15000000000000002,1.1,5.40644,39.64722,return,4.742673799977638,,,,,,,11,23,female,left_right_width,2023_Aug_28_1638,exp1,2021.2.3,59.99847601313559,
,,,,,,,,,,,,,,,,5,8.2,9.1,10,10.9,11.8,0.9,0.5,0.4,4,10,initial,36.05,296,328,361,393,425,9,9,9,9,9,,,,,1,0,1,0,0,12,12,52,,,,,num_7,1.3659218000248075,num_7,0.25,0.8,0.25,0.95,9.01073,34.24078,return,1.3417254999512807,,,,,,,11,23,female,left_right_width,2023_Aug_28_1638,exp1,2021.2.3,59.99847601313559,
,,,,,,,,,,,,,,,,3,9.1,10,10.9,0,0,0.9,0.8,0.1,1.9000000000000001,10,initial,36.05,328,361,393,0,0,9,9,9,0,0,,,,,1,0,1,0,0,13,13,12,,,,,num_4,1.5993651000317186,num_4,0.45,1.2,0.15000000000000008,1.4,5.40644,50.4601,return,3.0545180001063272,,,,,,,11,23,female,left_right_width,2023_Aug_28_1638,exp1,2021.2.3,59.99847601313559,
,,,,,,,,,,,,,,,,5,8.2,9.1,10,10.9,11.8,0.9,0.8,0.1,3.7,10,initial,36.05,296,328,361,393,425,9,9,9,9,9,,,,,1,0,1,0,0,14,14,48,,,,,num_8,1.2613175000296906,num_8,0.25,1.0,0.15000000000000002,1.0,5.40644,36.04293,return,5.402358900057152,,,,,,,11,23,female,left_right_width,2023_Aug_28_1638,exp1,2021.2.3,59.99847601313559,
,,,,,,,,,,,,,,,,3,9.3,10,10.7,0,0,0.7,0.29999999999999993,0.4,1.8,10,initial,36.05,335,361,386,0,0,9,9,9,0,0,,,,,1,0,1,0,0,15,15,10,,,,,num_4,1.7105685999849811,num_4,0.35,0.8,0.25,0.9,9.01073,32.43864,return,1.9133511000545695,,,,,,,11,23,female,left_right_width,2023_Aug_28_1638,exp1,2021.2.3,59.99847601313559,
,,,,,,,,,,,,,,,,4,9.5,9.833333333333334,10.166666666666666,10.5,0,0.33333333333333337,0.23333333333333336,0.1,1.1,10,match,36.05,342,354,367,379,0,9,9,9,9,0,,,,,1,0,1,0,0,16,16,1,,,,,num_5,1.2453741000499576,num_5,0.45,1.0,0.05000000000000007,0.8,1.80215,28.83434,return,4.106331299990416,,,,,,,11,23,female,left_right_width,2023_Aug_28_1638,exp1,2021.2.3,59.99847601313559,
,,,,,,,,,,,,,,,,4,8.95,9.65,10.35,11.05,0,0.7,0.44999999999999996,0.25,2.3499999999999996,10,initial,36.05,323,348,373,398,0,9,9,9,9,0,,,,,1,0,1,0,0,17,17,26,,,,,num_5,1.0705926000373438,num_5,0.1,0.6,0.25,0.8,9.01073,28.83434,return,2.3035320000490174,,,,,,,11,23,female,left_right_width,2023_Aug_28_1638,exp1,2021.2.3,59.99847601313559,
,,,,,,,,,,,,,,,,5,8.6,9.3,10,10.7,11.4,0.7,0.6,0.1,2.9,10,initial,36.05,310,335,361,386,411,9,9,9,9,9,,,,,1,0,1,0,0,18,18,42,,,,,num_7,0.9744757999433205,num_7,0.4,0.8,0.10000000000000007,0.85,3.60429,30.63649,return,4.6781953000463545,,,,,,,11,23,female,left_right_width,2023_Aug_28_1638,exp1,2021.2.3,59.99847601313559,
,,,,,,,,,,,,,,,,3,9.1,10,10.9,0,0,0.9,0.65,0.25,2.05,10,initial,36.05,328,361,393,0,0,9,9,9,0,0,,,,,1,0,1,0,0,19,19,14,,,,,num_4,1.2680670999689028,num_4,0.25,1.0,0.15000000000000002,1.3,5.40644,46.85581,return,2.398325699963607,,,,,,,11,23,female,left_right_width,2023_Aug_28_1638,exp1,2021.2.3,59.99847601313559,
,,,,,,,,,,,,,,,,3,8.2,10,11.8,0,0,1.8000000000000003,1.7000000000000002,0.1,3.7,10,match,36.05,296,361,425,0,0,9,9,9,0,0,,,,,1,0,1,0,0,20,20,49,,,,,num_4,1.2706303000450134,num_4,0.3,1.3,0.10000000000000002,1.5,3.60429,54.06439,return,3.634788200026378,,,,,,,11,23,female,left_right_width,2023_Aug_28_1638,exp1,2021.2.3,59.99847601313559,
,,,,,,,,,,,,,,,,5,8.6,9.3,10,10.7,11.4,0.7,0.29999999999999993,0.4,3.1999999999999997,10,initial,36.05,310,335,361,386,411,9,9,9,9,9,,,,,1,0,1,0,0,21,21,46,,,,,num_7,1.2657003999920562,num_7,0.35,0.6,0.2,0.7,7.20859,25.23005,return,1.5638915000017732,,,,,,,11,23,female,left_right_width,2023_Aug_28_1638,exp1,2021.2.3,59.99847601313559,
,,,,,,,,,,,,,,,,4,8.95,9.65,10.35,11.05,0,0.7,0.29999999999999993,0.4,2.5,10,initial,36.05,323,348,373,398,0,9,9,9,9,0,,,,,1,0,1,0,0,22,22,28,,,,,num_5,0.9844868000363931,num_5,0.25,0.9,0.25,1.0,9.01073,36.04293,return,2.7502465000143275,,,,,,,11,23,female,left_right_width,2023_Aug_28_1638,exp1,2021.2.3,59.99847601313559,
,,,,,,,,,,,,,,,,4,8.65,9.55,10.45,11.35,0,0.9,0.8,0.1,2.8000000000000003,10,initial,36.05,312,344,377,409,0,9,9,9,9,0,,,,,1,0,1,0,0,23,23,30,,,,,num_6,1.0613747000461444,num_6,0.1,1.3,0.15000000000000002,1.1,5.40644,39.64722,return,3.1145905000157654,,,,,,,11,23,female,left_right_width,2023_Aug_28_1638,exp1,2021.2.3,59.99847601313559,
,,,,,,,,,,,,,,,,5,8.65,9.325,10,10.675,11.35,0.675,0.275,0.4,3.1,10,match,36.05,312,336,361,385,409,9,9,9,9,9,,,,,1,0,1,0,0,24,24,35,,,,,num_6,1.3059646000619978,num_6,0.25,1.0,0.15000000000000002,0.9,5.40644,32.43864,return,1.58877360005863,,,,,,,11,23,female,left_right_width,2023_Aug_28_1638,exp1,2021.2.3,59.99847601313559,
,,,,,,,,,,,,,,,,4,9.1,9.7,10.3,10.9,0,0.5999999999999999,0.3499999999999999,0.25,2.05,10,match,36.05,328,350,371,393,0,9,9,9,9,0,,,,,1,0,1,0,0,25,25,15,,,,,num_5,2.737648500013165,num_5,0.45,1.0,0.20000000000000007,1.1,7.20859,39.64722,return,2.674966499907896,,,,,,,11,23,female,left_right_width,2023_Aug_28_1638,exp1,2021.2.3,59.99847601313559,
,,,,,,,,,,,,,,,,4,9.25,9.75,10.25,10.75,0,0.5,0.25,0.25,1.75,10,initial,36.05,333,351,370,388,0,9,9,9,9,0,,,,,1,0,1,0,0,26,26,20,,,,,num_5,1.5683621000498533,num_5,0.25,0.8,0.15000000000000002,0.65,5.40644,23.4279,return,2.6871515999082476,,,,,,,11,23,female,left_right_width,2023_Aug_28_1638,exp1,2021.2.3,59.99847601313559,
,,,,,,,,,,,,,,,,4,9.5,9.833333333333334,10.166666666666666,10.5,0,0.3333333333333333,0.08333333333333333,0.25,1.25,10,match,36.05,342,354,367,379,0,9,9,9,9,0,,,,,1,0,1,0,0,27,27,3,,,,,num_6,1.249852400040254,num_6,0.2,0.8,-0.15,0.5,-5.40644,18.02146,return,5.855732600088231,,,,,,,11,23,female,left_right_width,2023_Aug_28_1638,exp1,2021.2.3,59.99847601313559,
,,,,,,,,,,,,,,,,4,9.3,9.766666666666667,10.233333333333333,10.7,0,0.4666666666666667,0.3666666666666667,0.1,1.5,10,match,36.05,335,352,369,386,0,9,9,9,9,0,,,,,1,0,1,0,0,28,28,7,,,,,num_5,1.1059164999751374,num_5,0.35,1.2,0.05000000000000002,0.75,1.80215,27.0322,return,4.758507700054906,,,,,,,11,23,female,left_right_width,2023_Aug_28_1638,exp1,2021.2.3,59.99847601313559,
,,,,,,,,,,,,,,,,5,8.6,9.3,10,10.7,11.4,0.7,0.44999999999999996,0.25,3.05,10,initial,36.05,310,335,361,386,411,9,9,9,9,9,,,,,1,0,1,0,0,29,29,44,,,,,num_7,1.966536800027825,num_7,0.3,0.5,0.15000000000000002,0.7,5.40644,25.23005,return,3.2476056000450626,,,,,,,11,23,female,left_right_width,2023_Aug_28_1638,exp1,2021.2.3,59.99847601313559,
,,,,,,,,,,,,,,,,4,8.65,9.55,10.45,11.35,0,0.9,0.65,0.25,2.95,10,initial,36.05,312,344,377,409,0,9,9,9,9,0,,,,,1,0,1,0,0,30,30,32,,,,,num_6,1.4183655000524595,num_6,0.35,0.7,0.15000000000000002,0.8,5.40644,28.83434,return,1.8095760999713093,,,,,,,11,23,female,left_right_width,2023_Aug_28_1638,exp1,2021.2.3,59.99847601313559,
,,,,,,,,,,,,,,,,3,8.525,10,11.475,0,0,1.475,1.225,0.25,3.2,10,match,36.05,307,361,414,0,0,9,9,9,0,0,,,,,1,0,1,0,0,31,31,47,,,,,num_4,0.8959094999590889,num_4,0.15,0.4,0.15000000000000002,1.2,5.40644,43.25151,return,3.9892844000132754,,,,,,,11,23,female,left_right_width,2023_Aug_28_1638,exp1,2021.2.3,59.99847601313559,
,,,,,,,,,,,,,,,,5,8.95,9.475,10,10.525,11.05,0.525,0.42500000000000004,0.1,2.2,10,match,36.05,323,342,361,379,398,9,9,9,9,9,,,,,1,0,1,0,0,32,32,25,,,,,num_7,1.20501619996503,num_7,0.45,1.0,0.10000000000000007,0.75,3.60429,27.0322,return,2.4652991000330076,,,,,,,11,23,female,left_right_width,2023_Aug_28_1638,exp1,2021.2.3,59.99847601313559,
,,,,,,,,,,,,,,,,3,9,10,11,0,0,1,0.9,0.1,2.1,10,match,36.05,324,361,397,0,0,9,9,9,0,0,,,,,1,0,1,0,0,33,33,37,,,,,num_3,1.411746299942024,num_3,0.25,1,0.05000000000000002,1.1,1.80215,39.64722,return,2.602691199979745,,,,,,,11,23,female,left_right_width,2023_Aug_28_1638,exp1,2021.2.3,59.99847601313559,
,,,,,,,,,,,,,,,,3,8.6,10,11.4,0,0,1.4,1.15,0.25,3.05,10,match,36.05,310,361,411,0,0,9,9,9,0,0,,,,,1,0,1,0,0,34,34,45,,,,,num_4,1.0427519999211654,num_4,0.4,0.5,0.15000000000000008,1.3,5.40644,46.85581,return,3.9919750000117347,,,,,,,11,23,female,left_right_width,2023_Aug_28_1638,exp1,2021.2.3,59.99847601313559,
,,,,,,,,,,,,,,,,4,9.25,9.75,10.25,10.75,0,0.5,0.4,0.1,1.6,10,initial,36.05,333,351,370,388,0,9,9,9,9,0,,,,,1,0,1,0,0,35,35,18,,,,,num_6,1.6045387999620289,num_6,0.4,0.9,0.10000000000000007,0.6,3.60429,21.62576,return,2.1424525000620633,,,,,,,11,23,female,left_right_width,2023_Aug_28_1638,exp1,2021.2.3,59.99847601313559,
,,,,,,,,,,,,,,,,3,9.1,10,10.9,0,0,0.9,0.5,0.4,2.2,10,initial,36.05,328,361,393,0,0,9,9,9,0,0,,,,,1,0,1,0,0,36,36,16,,,,,num_5,1.893916800036095,num_5,0.35,0.5,0.2,0.75,7.20859,27.0322,return,1.8174897000426427,,,,,,,11,23,female,left_right_width,2023_Aug_28_1638,exp1,2021.2.3,59.99847601313559,
,,,,,,,,,,,,,,,,4,9.25,9.75,10.25,10.75,0,0.5,0.09999999999999998,0.4,1.9,10,initial,36.05,333,351,370,388,0,9,9,9,9,0,,,,,1,0,1,0,0,37,37,22,,,,,num_5,1.7930634999647737,num_5,0.15,0.6,0.25,0.85,9.01073,30.63649,return,3.3661997999297455,,,,,,,11,23,female,left_right_width,2023_Aug_28_1638,exp1,2021.2.3,59.99847601313559,
,,,,,,,,,,,,,,,,3,8.2,10,11.8,0,0,1.7999999999999998,1.4,0.4,4,10,match,36.05,296,361,425,0,0,9,9,9,0,0,,,,,1,0,1,0,0,38,38,53,,,,,num_5,1.0809566000243649,num_5,0.15,0.4,0.25,0.85,9.01073,30.63649,return,2.68306670000311,,,,,,,11,23,female,left_right_width,2023_Aug_28_1638,exp1,2021.2.3,59.99847601313559,
,,,,,,,,,,,,,,,,4,8.95,9.65,10.35,11.05,0,0.7,0.6,0.1,2.1999999999999997,10,initial,36.05,323,348,373,398,0,9,9,9,9,0,,,,,1,0,1,0,0,39,39,24,,,,,num_5,1.0538093000650406,num_5,0.1,1.1,0.2,1.25,7.20859,45.05366,return,1.8423360999440774,,,,,,,11,23,female,left_right_width,2023_Aug_28_1638,exp1,2021.2.3,59.99847601313559,
,,,,,,,,,,,,,,,,3,9,10,11,0,0,1,0.75,0.25,2.25,10,match,36.05,324,361,397,0,0,9,9,9,0,0,,,,,1,0,1,0,0,40,40,39,,,,,num_4,0.7611864999635145,num_4,0.3,0.8,0.2,1.1,7.20859,39.64722,return,1.9306005999678746,,,,,,,11,23,female,left_right_width,2023_Aug_28_1638,exp1,2021.2.3,59.99847601313559,
,,,,,,,,,,,,,,,,5,9,9.5,10,10.5,11,0.5,0.4,0.1,2.1,10,initial,36.05,324,342,361,379,397,9,9,9,9,9,,,,,1,0,1,0,0,41,41,36,,,,,num_5,1.0454624999547377,num_5,0.1,1.2,0.2,1.1,7.20859,39.64722,return,1.7996669999556616,,,,,,,11,23,female,left_right_width,2023_Aug_28_1638,exp1,2021.2.3,59.99847601313559,
,,,,,,,,,,,,,,,,5,9.25,9.625,10,10.375,10.75,0.375,0.275,0.1,1.6,10,match,36.05,333,347,361,374,388,9,9,9,9,9,,,,,1,0,1,0,0,42,42,19,,,,,num_6,0.9551639000419527,num_6,0.4,1.2,0.10000000000000007,0.8,3.60429,28.83434,return,4.003170000039972,,,,,,,11,23,female,left_right_width,2023_Aug_28_1638,exp1,2021.2.3,59.99847601313559,
,,,,,,,,,,,,,,,,3,9.3,10,10.7,0,0,0.7,0.44999999999999996,0.25,1.65,10,initial,36.05,335,361,386,0,0,9,9,9,0,0,,,,,1,0,1,0,0,43,43,8,,,,,num_4,1.3349813000531867,num_4,0.35,1.2,0.2,1.0,7.20859,36.04293,return,1.6945861000567675,,,,,,,11,23,female,left_right_width,2023_Aug_28_1638,exp1,2021.2.3,59.99847601313559,
,,,,,,,,,,,,,,,,3,9.5,10,10.5,0,0,0.5,0.25,0.25,1.25,10,initial,36.05,342,361,379,0,0,9,9,9,0,0,,,,,1,0,1,0,0,44,44,2,,,,,num_3,1.0229360000230372,num_3,0.1,0.3,0.25,0.6,9.01073,21.62576,return,2.242777999956161,,,,,,,11,23,female,left_right_width,2023_Aug_28_1638,exp1,2021.2.3,59.99847601313559,
,,,,,,,,,,,,,,,,5,8.95,9.475,10,10.525,11.05,0.525,0.275,0.25,2.35,10,match,36.05,323,342,361,379,398,9,9,9,9,9,,,,,1,0,1,0,0,45,45,27,,,,,num_6,1.789278700016439,num_6,0.3,0.9,0.2,0.6,7.20859,21.62576,return,3.0116911999648437,,,,,,,11,23,female,left_right_width,2023_Aug_28_1638,exp1,2021.2.3,59.99847601313559,
,,,,,,,,,,,,,,,,3,8.6,10,11.4,0,0,1.4,1.2999999999999998,0.1,2.9,10,match,36.05,310,361,411,0,0,9,9,9,0,0,,,,,1,0,1,0,0,46,46,43,,,,,num_4,0.9107215000549331,num_4,0.25,1.1,0.10000000000000002,1.5,3.60429,54.06439,return,4.553415800095536,,,,,,,11,23,female,left_right_width,2023_Aug_28_1638,exp1,2021.2.3,59.99847601313559,
,,,,,,,,,,,,,,,,5,8.95,9.475,10,10.525,11.05,0.525,0.125,0.4,2.5,10,match,36.05,323,342,361,379,398,9,9,9,9,9,,,,,1,0,1,0,0,47,47,29,,,,,num_5,1.0517726999241859,num_5,0.25,0.7,0.35,0.8,12.61502,28.83434,return,1.7616864000447094,,,,,,,11,23,female,left_right_width,2023_Aug_28_1638,exp1,2021.2.3,59.99847601313559,
,,,,,,,,,,,,,,,,5,8.2,9.1,10,10.9,11.8,0.9,0.65,0.25,3.85,10,initial,36.05,296,328,361,393,425,9,9,9,9,9,,,,,1,0,1,0,0,48,48,50,,,,,num_6,1.1144096999196336,num_6,0.15,1.1,0.2,0.8,7.20859,28.83434,return,1.9504928999813274,,,,,,,11,23,female,left_right_width,2023_Aug_28_1638,exp1,2021.2.3,59.99847601313559,
,,,,,,,,,,,,,,,,5,9,9.5,10,10.5,11,0.5,0.09999999999999998,0.4,2.4,10,initial,36.05,324,342,361,379,397,9,9,9,9,9,,,,,1,0,1,0,0,49,49,40,,,,,num_7,1.195964299957268,num_7,0.1,0.7,0.3,0.8,10.81288,28.83434,return,1.738609699998051,,,,,,,11,23,female,left_right_width,2023_Aug_28_1638,exp1,2021.2.3,59.99847601313559,
,,,,,,,,,,,,,,,,5,9.175,9.5875,10,10.4125,10.825,0.4125,0.16249999999999998,0.25,1.9,10,match,36.05,331,346,361,375,390,9,9,9,9,9,,,,,1,0,1,0,0,50,50,23,,,,,num_7,1.5418096999637783,num_7,0.25,1.0,0.25,0.8,9.01073,28.83434,return,1.9571336000226438,,,,,,,11,23,female,left_right_width,2023_Aug_28_1638,exp1,2021.2.3,59.99847601313559,
,,,,,,,,,,,,,,,,3,9.5,10,10.5,0,0,0.5,0.4,0.1,1.1,10,initial,36.05,342,361,379,0,0,9,9,9,0,0,,,,,1,0,1,0,0,51,51,0,,,,,num_3,0.8632748000090942,num_3,0.2,0.9,0.10000000000000002,0.8,3.60429,28.83434,return,2.0448907000245526,,,,,,,11,23,female,left_right_width,2023_Aug_28_1638,exp1,2021.2.3,59.99847601313559,
,,,,,,,,,,,,,,,,4,8.65,9.55,10.45,11.35,0,0.9,0.5,0.4,3.1,10,initial,36.05,312,344,377,409,0,9,9,9,9,0,,,,,1,0,1,0,0,52,52,34,,,,,num_6,0.8126334000844508,num_6,0.2,0.7,0.3,1.0,10.81288,36.04293,return,1.84897410008125,,,,,,,11,23,female,left_right_width,2023_Aug_28_1638,exp1,2021.2.3,59.99847601313559,
,,,,,,,,,,,,,,,,4,9.3,9.766666666666667,10.233333333333333,10.7,0,0.4666666666666667,0.21666666666666665,0.25,1.65,10,match,36.05,335,352,369,386,0,9,9,9,9,0,,,,,1,0,1,0,0,53,53,9,,,,,num_5,1.2018470999319106,num_5,0.15,0.8,0.25,0.75,9.01073,27.0322,return,1.7913920999271795,,,,,,,11,23,female,left_right_width,2023_Aug_28_1638,exp1,2021.2.3,59.99847601313559,
,,,,,,,,,,,,,,,,,,,,,,,,,,,,,,,,,,,,,,,,,,,1,0,1,0,,,,,,,,,,,,,,,,,,,,,,1118.9962641999591,None,1118.9962641999591,None,11,23,female,left_right_width,2023_Aug_28_1638,exp1,2021.2.3,59.99847601313559,
,,,,,,,,,,,,,,,,3,9.3,10,10.7,0,0,0.7,0.29999999999999993,0.4,1.8,10,initial,36.05,335,361,386,0,0,9,9,9,0,0,,,,,2,0,2,0,0,0,0,10,,,,,num_3,0.7698205000488088,num_3,0.25,0.5,0.35,0.9,12.61502,32.43864,return,2.8314920000266284,,,,,,,11,23,female,left_right_width,2023_Aug_28_1638,exp1,2021.2.3,59.99847601313559,
,,,,,,,,,,,,,,,,5,8.95,9.475,10,10.525,11.05,0.525,0.42500000000000004,0.1,2.2,10,match,36.05,323,342,361,379,398,9,9,9,9,9,,,,,2,0,2,0,0,1,1,25,,,,,num_5,0.8732712999917567,num_5,0.1,1.0,0.15000000000000002,1.05,5.40644,37.84507,return,2.1962686999468133,,,,,,,11,23,female,left_right_width,2023_Aug_28_1638,exp1,2021.2.3,59.99847601313559,
,,,,,,,,,,,,,,,,4,8.95,9.65,10.35,11.05,0,0.7,0.29999999999999993,0.4,2.5,10,initial,36.05,323,348,373,398,0,9,9,9,9,0,,,,,2,0,2,0,0,2,2,28,,,,,num_5,0.8357786000706255,num_5,0.1,0.9,0.25,0.9,9.01073,32.43864,return,1.2349227999802679,,,,,,,11,23,female,left_right_width,2023_Aug_28_1638,exp1,2021.2.3,59.99847601313559,
,,,,,,,,,,,,,,,,5,9,9.5,10,10.5,11,0.5,0.09999999999999998,0.4,2.4,10,initial,36.05,324,342,361,379,397,9,9,9,9,9,,,,,2,0,2,0,0,3,3,40,,,,,num_7,1.2385797000024468,num_7,0.35,0.6,0.35,0.6,12.61502,21.62576,return,1.027249800041318,,,,,,,11,23,female,left_right_width,2023_Aug_28_1638,exp1,2021.2.3,59.99847601313559,
,,,,,,,,,,,,,,,,3,8.6,10,11.4,0,0,1.4,1.2999999999999998,0.1,2.9,10,match,36.05,310,361,411,0,0,9,9,9,0,0,,,,,2,0,2,0,0,4,4,43,,,,,num_4,0.865089499973692,num_4,0.25,0.9,0.10000000000000002,1.3,3.60429,46.85581,return,2.4149239000398666,,,,,,,11,23,female,left_right_width,2023_Aug_28_1638,exp1,2021.2.3,59.99847601313559,
,,,,,,,,,,,,,,,,3,9,10,11,0,0,0.9999999999999999,0.5999999999999999,0.4,2.4,10,match,36.05,324,361,397,0,0,9,9,9,0,0,,,,,2,0,2,0,0,5,5,41,,,,,num_5,0.8620151999639347,num_5,0.1,1.0,0.25,1.0,9.01073,36.04293,return,1.4343189999926835,,,,,,,11,23,female,left_right_width,2023_Aug_28_1638,exp1,2021.2.3,59.99847601313559,
,,,,,,,,,,,,,,,,5,8.65,9.325,10,10.675,11.35,0.6749999999999999,0.575,0.1,2.8,10,match,36.05,312,336,361,385,409,9,9,9,9,9,,,,,2,0,2,0,0,6,6,31,,,,,num_8,1.1180770000210032,num_8,0.25,0.3,0.05000000000000002,0.7,1.80215,25.23005,return,2.286021300009452,,,,,,,11,23,female,left_right_width,2023_Aug_28_1638,exp1,2021.2.3,59.99847601313559,
,,,,,,,,,,,,,,,,3,9.1,10,10.9,0,0,0.9,0.65,0.25,2.05,10,initial,36.05,328,361,393,0,0,9,9,9,0,0,,,,,2,0,2,0,0,7,7,14,,,,,num_3,0.7250313999829814,num_3,0.35,0.8,0.3,1.25,10.81288,45.05366,return,2.0864675999619067,,,,,,,11,23,female,left_right_width,2023_Aug_28_1638,exp1,2021.2.3,59.99847601313559,
,,,,,,,,,,,,,,,,4,8.65,9.55,10.45,11.35,0,0.9,0.8,0.1,2.8000000000000003,10,initial,36.05,312,344,377,409,0,9,9,9,9,0,,,,,2,0,2,0,0,8,8,30,,,,,num_6,1.1903381999582052,num_6,0.15,0.3,0.04999999999999999,0.8,1.80215,28.83434,return,1.46154970000498,,,,,,,11,23,female,left_right_width,2023_Aug_28_1638,exp1,2021.2.3,59.99847601313559,
,,,,,,,,,,,,,,,,3,9.5,10,10.5,0,0,0.5,0.25,0.25,1.25,10,initial,36.05,342,361,379,0,0,9,9,9,0,0,,,,,2,0,2,0,0,9,9,2,,,,,num_3,0.791879800031893,num_3,0.1,1.1,0.25,1.1,9.01073,39.64722,return,1.9097920000785962,,,,,,,11,23,female,left_right_width,2023_Aug_28_1638,exp1,2021.2.3,59.99847601313559,
,,,,,,,,,,,,,,,,4,8.65,9.55,10.45,11.35,0,0.9,0.5,0.4,3.1,10,initial,36.05,312,344,377,409,0,9,9,9,9,0,,,,,2,0,2,0,0,10,10,34,,,,,num_8,0.9711902999551967,num_8,0.2,0.9,0.25,0.7,9.01073,25.23005,return,2.577213699929416,,,,,,,11,23,female,left_right_width,2023_Aug_28_1638,exp1,2021.2.3,59.99847601313559,
,,,,,,,,,,,,,,,,3,8.2,10,11.8,0,0,1.7999999999999998,1.4,0.4,4,10,match,36.05,296,361,425,0,0,9,9,9,0,0,,,,,2,0,2,0,0,11,11,53,,,,,num_4,1.0204545001033694,num_4,0.45,0.9,0.30000000000000004,1.4,10.81288,50.4601,return,2.1646160999080166,,,,,,,11,23,female,left_right_width,2023_Aug_28_1638,exp1,2021.2.3,59.99847601313559,
,,,,,,,,,,,,,,,,3,9,10,11,0,0,1,0.75,0.25,2.25,10,match,36.05,324,361,397,0,0,9,9,9,0,0,,,,,2,0,2,0,0,12,12,39,,,,,num_5,0.7644984000362456,num_5,0.15,0.5,0.09999999999999999,0.7,3.60429,25.23005,return,2.3310106999706477,,,,,,,11,23,female,left_right_width,2023_Aug_28_1638,exp1,2021.2.3,59.99847601313559,
,,,,,,,,,,,,,,,,4,8.95,9.65,10.35,11.05,0,0.7,0.44999999999999996,0.25,2.3499999999999996,10,initial,36.05,323,348,373,398,0,9,9,9,9,0,,,,,2,0,2,0,0,13,13,26,,,,,num_5,1.2964024000102654,num_5,0.1,0.5,0.25,0.7,9.01073,25.23005,return,2.31717719999142,,,,,,,11,23,female,left_right_width,2023_Aug_28_1638,exp1,2021.2.3,59.99847601313559,
,,,,,,,,,,,,,,,,4,8.95,9.65,10.35,11.05,0,0.7,0.6,0.1,2.1999999999999997,10,initial,36.05,323,348,373,398,0,9,9,9,9,0,,,,,2,0,2,0,0,14,14,24,,,,,num_5,1.0320324999047443,num_5,0.45,1.3,0.10000000000000007,1.05,3.60429,37.84507,return,12.82871469995007,,,,,,,11,23,female,left_right_width,2023_Aug_28_1638,exp1,2021.2.3,59.99847601313559,
,,,,,,,,,,,,,,,,4,9.1,9.7,10.3,10.9,0,0.5999999999999999,0.3499999999999999,0.25,2.05,10,match,36.05,328,350,371,393,0,9,9,9,9,0,,,,,2,0,2,0,0,15,15,15,,,,,num_5,1.2414194999728352,num_5,0.1,0.3,0.25,0.7,9.01073,25.23005,return,2.1805487000383437,,,,,,,11,23,female,left_right_width,2023_Aug_28_1638,exp1,2021.2.3,59.99847601313559,
,,,,,,,,,,,,,,,,5,8.2,9.1,10,10.9,11.8,0.9,0.8,0.1,3.7,10,initial,36.05,296,328,361,393,425,9,9,9,9,9,,,,,2,0,2,0,0,16,16,48,,,,,num_7,1.2918550999602303,num_7,0.35,0.5,0.05000000000000002,0.65,1.80215,23.4279,return,3.8642949999775738,,,,,,,11,23,female,left_right_width,2023_Aug_28_1638,exp1,2021.2.3,59.99847601313559,
,,,,,,,,,,,,,,,,3,9.1,10,10.9,0,0,0.9,0.5,0.4,2.2,10,initial,36.05,328,361,393,0,0,9,9,9,0,0,,,,,2,0,2,0,0,17,17,16,,,,,num_4,1.0809665999840945,num_4,0.4,1.1,0.25000000000000006,0.8,9.01073,28.83434,return,1.360233600018546,,,,,,,11,23,female,left_right_width,2023_Aug_28_1638,exp1,2021.2.3,59.99847601313559,
,,,,,,,,,,,,,,,,5,8.95,9.475,10,10.525,11.05,0.525,0.275,0.25,2.35,10,match,36.05,323,342,361,379,398,9,9,9,9,9,,,,,2,0,2,0,0,18,18,27,,,,,num_8,1.5330830999882892,num_8,0.1,1.1,0.25,0.6,9.01073,21.62576,return,2.445206100004725,,,,,,,11,23,female,left_right_width,2023_Aug_28_1638,exp1,2021.2.3,59.99847601313559,
,,,,,,,,,,,,,,,,4,9.1,9.7,10.3,10.9,0,0.6,0.5,0.1,1.9,10,match,36.05,328,350,371,393,0,9,9,9,9,0,,,,,2,0,2,0,0,19,19,13,,,,,num_7,1.1720403999788687,num_7,0.45,1.0,0.15000000000000008,0.75,5.40644,27.0322,return,2.8513848000438884,,,,,,,11,23,female,left_right_width,2023_Aug_28_1638,exp1,2021.2.3,59.99847601313559,
,,,,,,,,,,,,,,,,4,9.3,9.766666666666667,10.233333333333333,10.7,0,0.4666666666666667,0.21666666666666665,0.25,1.65,10,match,36.05,335,352,369,386,0,9,9,9,9,0,,,,,2,0,2,0,0,20,20,9,,,,,num_6,1.2498205000301823,num_6,0.3,0.5,0.2,0.6,7.20859,21.62576,return,2.429090899997391,,,,,,,11,23,female,left_right_width,2023_Aug_28_1638,exp1,2021.2.3,59.99847601313559,
,,,,,,,,,,,,,,,,4,9.1,9.7,10.3,10.9,0,0.6000000000000001,0.20000000000000004,0.4,2.2,10,match,36.05,328,350,371,393,0,9,9,9,9,0,,,,,2,0,2,0,0,21,21,17,,,,,num_5,1.1627166999969631,num_5,0.35,0.8,0.25,0.65,9.01073,23.4279,return,1.8488274000119418,,,,,,,11,23,female,left_right_width,2023_Aug_28_1638,exp1,2021.2.3,59.99847601313559,
,,,,,,,,,,,,,,,,5,8.2,9.1,10,10.9,11.8,0.9,0.65,0.25,3.85,10,initial,36.05,296,328,361,393,425,9,9,9,9,9,,,,,2,0,2,0,0,22,22,50,,,,,num_7,1.4580353000201285,num_7,0.2,1.2,0.3,1.1,10.81288,39.64722,return,7.942297599976882,,,,,,,11,23,female,left_right_width,2023_Aug_28_1638,exp1,2021.2.3,59.99847601313559,
,,,,,,,,,,,,,,,,3,8.2,10,11.8,0,0,1.8000000000000003,1.7000000000000002,0.1,3.7,10,match,36.05,296,361,425,0,0,9,9,9,0,0,,,,,2,0,2,0,0,23,23,49,,,,,num_3,0.9492473000427708,num_3,0.15,0.4,0.15,1.8,5.40644,64.87727,return,8.094117300002836,,,,,,,11,23,female,left_right_width,2023_Aug_28_1638,exp1,2021.2.3,59.99847601313559,
,,,,,,,,,,,,,,,,5,8.6,9.3,10,10.7,11.4,0.7,0.6,0.1,2.9,10,initial,36.05,310,335,361,386,411,9,9,9,9,9,,,,,2,0,2,0,0,24,24,42,,,,,num_6,1.2332038000458851,num_6,0.25,1.3,0.10000000000000002,1.0,3.60429,36.04293,return,2.2237403000472113,,,,,,,11,23,female,left_right_width,2023_Aug_28_1638,exp1,2021.2.3,59.99847601313559,
,,,,,,,,,,,,,,,,3,8.525,10,11.475,0,0,1.475,1.225,0.25,3.2,10,match,36.05,307,361,414,0,0,9,9,9,0,0,,,,,2,0,2,0,0,25,25,47,,,,,num_4,0.8729793999809772,num_4,0.45,1.2,0.25000000000000006,1.2,9.01073,43.25151,return,3.779492599889636,,,,,,,11,23,female,left_right_width,2023_Aug_28_1638,exp1,2021.2.3,59.99847601313559,
,,,,,,,,,,,,,,,,5,8.65,9.325,10,10.675,11.35,0.675,0.275,0.4,3.1,10,match,36.05,312,336,361,385,409,9,9,9,9,9,,,,,2,0,2,0,0,26,26,35,,,,,num_7,1.2360704999882728,num_7,0.15,0.6,0.3,0.7,10.81288,25.23005,return,1.6319056999636814,,,,,,,11,23,female,left_right_width,2023_Aug_28_1638,exp1,2021.2.3,59.99847601313559,
,,,,,,,,,,,,,,,,5,9,9.5,10,10.5,11,0.5,0.25,0.25,2.25,10,initial,36.05,324,342,361,379,397,9,9,9,9,9,,,,,2,0,2,0,0,27,27,38,,,,,num_8,0.9942612999584526,num_8,0.2,1.1,0.3,0.7,10.81288,25.23005,return,2.2922526999609545,,,,,,,11,23,female,left_right_width,2023_Aug_28_1638,exp1,2021.2.3,59.99847601313559,
,,,,,,,,,,,,,,,,3,9.1,10,10.9,0,0,0.9,0.8,0.1,1.9000000000000001,10,initial,36.05,328,361,393,0,0,9,9,9,0,0,,,,,2,0,2,0,0,28,28,12,,,,,num_3,0.7472710000583902,num_3,0.2,0.7,0.2,1.2,7.20859,43.25151,return,2.956782699911855,,,,,,,11,23,female,left_right_width,2023_Aug_28_1638,exp1,2021.2.3,59.99847601313559,
,,,,,,,,,,,,,,,,3,8.2,10,11.8,0,0,1.8,1.55,0.25,3.85,10,match,36.05,296,361,425,0,0,9,9,9,0,0,,,,,2,0,2,0,0,29,29,51,,,,,num_4,0.7606522999703884,num_4,0.15,0.7,0.25,1.2,9.01073,43.25151,return,1.9617473999969661,,,,,,,11,23,female,left_right_width,2023_Aug_28_1638,exp1,2021.2.3,59.99847601313559,
,,,,,,,,,,,,,,,,4,9.5,9.833333333333334,10.166666666666666,10.5,0,0.3333333333333333,0.08333333333333333,0.25,1.25,10,match,36.05,342,354,367,379,0,9,9,9,9,0,,,,,2,0,2,0,0,30,30,3,,,,,num_5,1.0192852999316528,num_5,0.35,0.5,0.15000000000000002,0.45,5.40644,16.21932,return,1.9226442000363022,,,,,,,11,23,female,left_right_width,2023_Aug_28_1638,exp1,2021.2.3,59.99847601313559,
,,,,,,,,,,,,,,,,4,9.3,9.766666666666667,10.233333333333333,10.7,0,0.4666666666666667,0.3666666666666667,0.1,1.5,10,match,36.05,335,352,369,386,0,9,9,9,9,0,,,,,2,0,2,0,0,31,31,7,,,,,num_4,1.0773923998931423,num_4,0.35,1.0,0.15000000000000002,0.5,5.40644,18.02146,return,2.8241172999842092,,,,,,,11,23,female,left_right_width,2023_Aug_28_1638,exp1,2021.2.3,59.99847601313559,
,,,,,,,,,,,,,,,,4,8.65,9.55,10.45,11.35,0,0.9,0.65,0.25,2.95,10,initial,36.05,312,344,377,409,0,9,9,9,9,0,,,,,2,0,2,0,0,32,32,32,,,,,num_6,0.8485662000020966,num_6,0.4,1.0,0.20000000000000007,0.6,7.20859,21.62576,return,1.563691999996081,,,,,,,11,23,female,left_right_width,2023_Aug_28_1638,exp1,2021.2.3,59.99847601313559,
,,,,,,,,,,,,,,,,4,9.25,9.75,10.25,10.75,0,0.5,0.09999999999999998,0.4,1.9,10,initial,36.05,333,351,370,388,0,9,9,9,9,0,,,,,2,0,2,0,0,33,33,22,,,,,num_5,0.7640673000132665,num_5,0.4,1.0,0.25000000000000006,0.65,9.01073,23.4279,return,2.7172593999421224,,,,,,,11,23,female,left_right_width,2023_Aug_28_1638,exp1,2021.2.3,59.99847601313559,
,,,,,,,,,,,,,,,,5,9.25,9.625,10,10.375,10.75,0.375,0.125,0.25,1.75,10,match,36.05,333,347,361,374,388,9,9,9,9,9,,,,,2,0,2,0,0,34,34,21,,,,,num_8,0.8768803999992087,num_8,0.25,0.7,0.2,0.4,7.20859,14.41717,return,2.2811259999871254,,,,,,,11,23,female,left_right_width,2023_Aug_28_1638,exp1,2021.2.3,59.99847601313559,
,,,,,,,,,,,,,,,,4,9.5,9.833333333333334,10.166666666666666,10.5,0,0.33333333333333337,0.23333333333333336,0.1,1.1,10,match,36.05,342,354,367,379,0,9,9,9,9,0,,,,,2,0,2,0,0,35,35,1,,,,,num_5,0.9696829000022262,num_5,0.45,0.8,0.25000000000000006,0.5,9.01073,18.02146,return,2.9767061999300495,,,,,,,11,23,female,left_right_width,2023_Aug_28_1638,exp1,2021.2.3,59.99847601313559,
,,,,,,,,,,,,,,,,5,9,9.5,10,10.5,11,0.5,0.4,0.1,2.1,10,initial,36.05,324,342,361,379,397,9,9,9,9,9,,,,,2,0,2,0,0,36,36,36,,,,,num_5,0.817407299997285,num_5,0.35,0.7,0.15000000000000002,0.6,5.40644,21.62576,return,3.2305724000325426,,,,,,,11,23,female,left_right_width,2023_Aug_28_1638,exp1,2021.2.3,59.99847601313559,
,,,,,,,,,,,,,,,,4,9.25,9.75,10.25,10.75,0,0.5,0.4,0.1,1.6,10,initial,36.05,333,351,370,388,0,9,9,9,9,0,,,,,2,0,2,0,0,37,37,18,,,,,num_5,1.4517166999867186,num_5,0.15,1.3,0.15,0.75,5.40644,27.0322,return,3.4698840000201017,,,,,,,11,23,female,left_right_width,2023_Aug_28_1638,exp1,2021.2.3,59.99847601313559,
,,,,,,,,,,,,,,,,4,9.25,9.75,10.25,10.75,0,0.5,0.25,0.25,1.75,10,initial,36.05,333,351,370,388,0,9,9,9,9,0,,,,,2,0,2,0,0,38,38,20,,,,,num_6,1.2133287000469863,num_6,0.35,1.2,0.15000000000000002,0.6,5.40644,21.62576,return,2.669232500018552,,,,,,,11,23,female,left_right_width,2023_Aug_28_1638,exp1,2021.2.3,59.99847601313559,
,,,,,,,,,,,,,,,,3,9,10,11,0,0,1,0.9,0.1,2.1,10,match,36.05,324,361,397,0,0,9,9,9,0,0,,,,,2,0,2,0,0,39,39,37,,,,,num_4,0.7398961000144482,num_4,0.35,0.5,0.10000000000000002,1.1,3.60429,39.64722,return,2.917377799982205,,,,,,,11,23,female,left_right_width,2023_Aug_28_1638,exp1,2021.2.3,59.99847601313559,
,,,,,,,,,,,,,,,,5,9.175,9.5875,10,10.4125,10.825,0.4125,0.16249999999999998,0.25,1.9,10,match,36.05,331,346,361,375,390,9,9,9,9,9,,,,,2,0,2,0,0,40,40,23,,,,,num_8,0.9025988000212237,num_8,0.3,0.5,0.15000000000000002,0.5,5.40644,18.02146,return,2.859923200099729,,,,,,,11,23,female,left_right_width,2023_Aug_28_1638,exp1,2021.2.3,59.99847601313559,
,,,,,,,,,,,,,,,,3,9.5,10,10.5,0,0,0.5,0.09999999999999998,0.4,1.4000000000000001,10,initial,36.05,342,361,379,0,0,9,9,9,0,0,,,,,2,0,2,0,0,41,41,4,,,,,num_3,0.770574799971655,num_3,0.25,0.9,0.25,0.6,9.01073,21.62576,return,2.7068411000072956,,,,,,,11,23,female,left_right_width,2023_Aug_28_1638,exp1,2021.2.3,59.99847601313559,
,,,,,,,,,,,,,,,,5,8.6,9.3,10,10.7,11.4,0.7,0.29999999999999993,0.4,3.1999999999999997,10,initial,36.05,310,335,361,386,411,9,9,9,9,9,,,,,2,0,2,0,0,42,42,46,,,,,num_8,1.350584500003606,num_8,0.25,0.4,0.2,0.7,7.20859,25.23005,return,1.3126038999762386,,,,,,,11,23,female,left_right_width,2023_Aug_28_1638,exp1,2021.2.3,59.99847601313559,
,,,,,,,,,,,,,,,,5,8.65,9.325,10,10.675,11.35,0.675,0.42500000000000004,0.25,2.95,10,match,36.05,312,336,361,385,409,9,9,9,9,9,,,,,2,0,2,0,0,43,43,33,,,,,num_7,0.8838859000243247,num_7,0.35,0.4,0.2,0.65,7.20859,23.4279,return,2.2240274000214413,,,,,,,11,23,female,left_right_width,2023_Aug_28_1638,exp1,2021.2.3,59.99847601313559,
,,,,,,,,,,,,,,,,5,8.6,9.3,10,10.7,11.4,0.7,0.44999999999999996,0.25,3.05,10,initial,36.05,310,335,361,386,411,9,9,9,9,9,,,,,2,0,2,0,0,44,44,44,,,,,num_6,1.3671134999021888,num_6,0.35,0.7,0.2,0.6,7.20859,21.62576,return,2.607949799974449,,,,,,,11,23,female,left_right_width,2023_Aug_28_1638,exp1,2021.2.3,59.99847601313559,
,,,,,,,,,,,,,,,,3,9.3,10,10.7,0,0,0.7,0.44999999999999996,0.25,1.65,10,initial,36.05,335,361,386,0,0,9,9,9,0,0,,,,,2,0,2,0,0,45,45,8,,,,,num_3,0.8418717000167817,num_3,0.45,0.5,0.25000000000000006,0.95,9.01073,34.24078,return,3.559488099999726,,,,,,,11,23,female,left_right_width,2023_Aug_28_1638,exp1,2021.2.3,59.99847601313559,
,,,,,,,,,,,,,,,,4,9.425,9.808333333333334,10.191666666666666,10.575,0,0.3833333333333333,0.1333333333333333,0.25,1.4,10,match,36.05,340,354,367,381,0,9,9,9,9,0,,,,,2,0,2,0,0,46,46,5,,,,,num_6,1.1773716000607237,num_6,0.3,0.5,0.15000000000000002,0.5,5.40644,18.02146,return,2.889557399903424,,,,,,,11,23,female,left_right_width,2023_Aug_28_1638,exp1,2021.2.3,59.99847601313559,
,,,,,,,,,,,,,,,,3,8.6,10,11.4,0,0,1.4,1.15,0.25,3.05,10,match,36.05,310,361,411,0,0,9,9,9,0,0,,,,,2,0,2,0,0,47,47,45,,,,,num_3,0.9139438999118283,num_3,0.35,0.4,0.2,0.75,7.20859,27.0322,return,8.557099700090475,,,,,,,11,23,female,left_right_width,2023_Aug_28_1638,exp1,2021.2.3,59.99847601313559,
,,,,,,,,,,,,,,,,4,9.3,9.766666666666667,10.233333333333333,10.7,0,0.4666666666666667,0.06666666666666665,0.4,1.8,10,match,36.05,335,352,369,386,0,9,9,9,9,0,,,,,2,0,2,0,0,48,48,11,,,,,num_6,1.1126170000061393,num_6,0.35,1.0,0.2,0.6,7.20859,21.62576,return,3.546574500040151,,,,,,,11,23,female,left_right_width,2023_Aug_28_1638,exp1,2021.2.3,59.99847601313559,
,,,,,,,,,,,,,,,,5,8.2,9.1,10,10.9,11.8,0.9,0.5,0.4,4,10,initial,36.05,296,328,361,393,425,9,9,9,9,9,,,,,2,0,2,0,0,49,49,52,,,,,num_7,1.1940915000159293,num_7,0.3,0.6,0.3,0.55,10.81288,19.82361,return,2.695342699997127,,,,,,,11,23,female,left_right_width,2023_Aug_28_1638,exp1,2021.2.3,59.99847601313559,
,,,,,,,,,,,,,,,,5,9.25,9.625,10,10.375,10.75,0.375,0.275,0.1,1.6,10,match,36.05,333,347,361,374,388,9,9,9,9,9,,,,,2,0,2,0,0,50,50,19,,,,,num_5,0.9059835999505594,num_5,0.35,0.6,0.10000000000000002,0.5,3.60429,18.02146,return,2.0035240000579506,,,,,,,11,23,female,left_right_width,2023_Aug_28_1638,exp1,2021.2.3,59.99847601313559,
,,,,,,,,,,,,,,,,5,8.95,9.475,10,10.525,11.05,0.525,0.125,0.4,2.5,10,match,36.05,323,342,361,379,398,9,9,9,9,9,,,,,2,0,2,0,0,51,51,29,,,,,num_6,0.9991157999029383,num_6,0.4,1.2,0.25000000000000006,0.6,9.01073,21.62576,return,2.0446100999834016,,,,,,,11,23,female,left_right_width,2023_Aug_28_1638,exp1,2021.2.3,59.99847601313559,
,,,,,,,,,,,,,,,,3,9.3,10,10.7,0,0,0.7,0.6,0.1,1.5,10,initial,36.05,335,361,386,0,0,9,9,9,0,0,,,,,2,0,2,0,0,52,52,6,,,,,num_4,0.8191187999909744,num_4,0.15,1.1,0.15,0.7,5.40644,25.23005,return,1.887823799974285,,,,,,,11,23,female,left_right_width,2023_Aug_28_1638,exp1,2021.2.3,59.99847601313559,
,,,,,,,,,,,,,,,,3,9.5,10,10.5,0,0,0.5,0.4,0.1,1.1,10,initial,36.05,342,361,379,0,0,9,9,9,0,0,,,,,2,0,2,0,0,53,53,0,,,,,num_2,0.8120519999647513,num_2,0.45,1.6,0.15000000000000008,0.8,5.40644,28.83434,return,3.3504502000287175,,,,,,,11,23,female,left_right_width,2023_Aug_28_1638,exp1,2021.2.3,59.99847601313559,
,,,,,,,,,,,,,,,,,,,,,,,,,,,,,,,,,,,,,,,,,,,2,0,2,0,,,,,,,,,,,,,,,,,,,,,,1467.4964368999936,None,1467.4964368999936,None,11,23,female,left_right_width,2023_Aug_28_1638,exp1,2021.2.3,59.99847601313559,
,,,,,,,,,,,,,,,,5,8.95,9.475,10,10.525,11.05,0.525,0.42500000000000004,0.1,2.2,10,match,36.05,323,342,361,379,398,9,9,9,9,9,,,,,3,0,3,0,0,0,0,25,,,,,num_5,0.7826213999651372,num_5,0.1,1.1,0.15000000000000002,0.95,5.40644,34.24078,return,1.7725861000362784,,,,,,,11,23,female,left_right_width,2023_Aug_28_1638,exp1,2021.2.3,59.99847601313559,
,,,,,,,,,,,,,,,,5,8.6,9.3,10,10.7,11.4,0.7,0.44999999999999996,0.25,3.05,10,initial,36.05,310,335,361,386,411,9,9,9,9,9,,,,,3,0,3,0,0,1,1,44,,,,,num_6,0.8481002000626177,num_6,0.1,0.6,0.2,0.9,7.20859,32.43864,return,1.8060830000322312,,,,,,,11,23,female,left_right_width,2023_Aug_28_1638,exp1,2021.2.3,59.99847601313559,
,,,,,,,,,,,,,,,,4,9.1,9.7,10.3,10.9,0,0.6,0.5,0.1,1.9,10,match,36.05,328,350,371,393,0,9,9,9,9,0,,,,,3,0,3,0,0,2,2,13,,,,,num_5,0.9092647000215948,num_5,0.2,1.0,0.10000000000000002,0.85,3.60429,30.63649,return,2.6140214999904856,,,,,,,11,23,female,left_right_width,2023_Aug_28_1638,exp1,2021.2.3,59.99847601313559,
,,,,,,,,,,,,,,,,3,9,10,11,0,0,1,0.9,0.1,2.1,10,match,36.05,324,361,397,0,0,9,9,9,0,0,,,,,3,0,3,0,0,3,3,37,,,,,num_3,0.8059097999939695,num_3,0.25,1.2,0.10000000000000002,1.25,3.60429,45.05366,return,3.2861766000278294,,,,,,,11,23,female,left_right_width,2023_Aug_28_1638,exp1,2021.2.3,59.99847601313559,
,,,,,,,,,,,,,,,,5,8.6,9.3,10,10.7,11.4,0.7,0.29999999999999993,0.4,3.1999999999999997,10,initial,36.05,310,335,361,386,411,9,9,9,9,9,,,,,3,0,3,0,0,4,4,46,,,,,num_6,0.9099745999556035,num_6,0.3,0.7,0.3,0.8,10.81288,28.83434,return,1.4157608000095934,,,,,,,11,23,female,left_right_width,2023_Aug_28_1638,exp1,2021.2.3,59.99847601313559,
,,,,,,,,,,,,,,,,4,8.65,9.55,10.45,11.35,0,0.9,0.8,0.1,2.8000000000000003,10,initial,36.05,312,344,377,409,0,9,9,9,9,0,,,,,3,0,3,0,0,5,5,30,,,,,num_5,0.9045619000680745,num_5,0.15,0.6,0.09999999999999999,0.85,3.60429,30.63649,return,1.8910446000518277,,,,,,,11,23,female,left_right_width,2023_Aug_28_1638,exp1,2021.2.3,59.99847601313559,
,,,,,,,,,,,,,,,,5,8.2,9.1,10,10.9,11.8,0.9,0.65,0.25,3.85,10,initial,36.05,296,328,361,393,425,9,9,9,9,9,,,,,3,0,3,0,0,6,6,50,,,,,num_6,1.3999724000459537,num_6,0.1,1.0,0.15000000000000002,0.8,5.40644,28.83434,return,2.4295045000035316,,,,,,,11,23,female,left_right_width,2023_Aug_28_1638,exp1,2021.2.3,59.99847601313559,
,,,,,,,,,,,,,,,,4,9.5,9.833333333333334,10.166666666666666,10.5,0,0.33333333333333337,0.23333333333333336,0.1,1.1,10,match,36.05,342,354,367,379,0,9,9,9,9,0,,,,,3,0,3,0,0,7,7,1,,,,,num_4,1.0924215998966247,num_4,0.35,1.3,0.10000000000000002,0.8,3.60429,28.83434,return,2.341120299999602,,,,,,,11,23,female,left_right_width,2023_Aug_28_1638,exp1,2021.2.3,59.99847601313559,
,,,,,,,,,,,,,,,,4,8.95,9.65,10.35,11.05,0,0.7,0.6,0.1,2.1999999999999997,10,initial,36.05,323,348,373,398,0,9,9,9,9,0,,,,,3,0,3,0,0,8,8,24,,,,,num_5,0.8824953000294045,num_5,0.15,1.1,0.15,0.85,5.40644,30.63649,return,5.164036400034092,,,,,,,11,23,female,left_right_width,2023_Aug_28_1638,exp1,2021.2.3,59.99847601313559,
,,,,,,,,,,,,,,,,3,9.3,10,10.7,0,0,0.7,0.44999999999999996,0.25,1.65,10,initial,36.05,335,361,386,0,0,9,9,9,0,0,,,,,3,0,3,0,0,9,9,8,,,,,num_4,1.3467063000425696,num_4,0.25,1.1,0.2,1.0,7.20859,36.04293,return,2.1076840000459924,,,,,,,11,23,female,left_right_width,2023_Aug_28_1638,exp1,2021.2.3,59.99847601313559,
,,,,,,,,,,,,,,,,5,8.2,9.1,10,10.9,11.8,0.9,0.8,0.1,3.7,10,initial,36.05,296,328,361,393,425,9,9,9,9,9,,,,,3,0,3,0,0,10,10,48,,,,,num_5,1.1998989999992773,num_5,0.45,1.3,0.15000000000000008,1.2,5.40644,43.25151,return,2.4632274999748915,,,,,,,11,23,female,left_right_width,2023_Aug_28_1638,exp1,2021.2.3,59.99847601313559,
,,,,,,,,,,,,,,,,5,9.25,9.625,10,10.375,10.75,0.375,0.275,0.1,1.6,10,match,36.05,333,347,361,374,388,9,9,9,9,9,,,,,3,0,3,0,0,11,11,19,,,,,num_6,1.0811305999523029,num_6,0.15,0.4,0.09999999999999999,0.4,3.60429,14.41717,return,1.3408930000150576,,,,,,,11,23,female,left_right_width,2023_Aug_28_1638,exp1,2021.2.3,59.99847601313559,
,,,,,,,,,,,,,,,,3,8.6,10,11.4,0,0,1.4,1.2999999999999998,0.1,2.9,10,match,36.05,310,361,411,0,0,9,9,9,0,0,,,,,3,0,3,0,0,12,12,43,,,,,num_3,0.8959309000056237,num_3,0.4,1.3,0.10000000000000007,1.55,3.60429,55.86654,return,3.177237599971704,,,,,,,11,23,female,left_right_width,2023_Aug_28_1638,exp1,2021.2.3,59.99847601313559,
,,,,,,,,,,,,,,,,3,9,10,11,0,0,1,0.75,0.25,2.25,10,match,36.05,324,361,397,0,0,9,9,9,0,0,,,,,3,0,3,0,0,13,13,39,,,,,num_3,0.7325774999335408,num_3,0.4,0.7,0.20000000000000007,1.35,7.20859,48.65795,return,3.9501233000773937,,,,,,,11,23,female,left_right_width,2023_Aug_28_1638,exp1,2021.2.3,59.99847601313559,
,,,,,,,,,,,,,,,,3,9.3,10,10.7,0,0,0.7,0.29999999999999993,0.4,1.8,10,initial,36.05,335,361,386,0,0,9,9,9,0,0,,,,,3,0,3,0,0,14,14,10,,,,,num_3,0.8672998000402004,num_3,0.1,1.3,0.39999999999999997,1.0,14.41717,36.04293,return,2.7978699000086635,,,,,,,11,23,female,left_right_width,2023_Aug_28_1638,exp1,2021.2.3,59.99847601313559,
,,,,,,,,,,,,,,,,4,9.25,9.75,10.25,10.75,0,0.5,0.4,0.1,1.6,10,initial,36.05,333,351,370,388,0,9,9,9,9,0,,,,,3,0,3,0,0,15,15,18,,,,,num_5,0.8799713000189513,num_5,0.2,0.9,0.10000000000000002,0.65,3.60429,23.4279,return,2.218436000053771,,,,,,,11,23,female,left_right_width,2023_Aug_28_1638,exp1,2021.2.3,59.99847601313559,
,,,,,,,,,,,,,,,,4,8.95,9.65,10.35,11.05,0,0.7,0.29999999999999993,0.4,2.5,10,initial,36.05,323,348,373,398,0,9,9,9,9,0,,,,,3,0,3,0,0,16,16,28,,,,,num_4,1.4238239000551403,num_4,0.1,0.5,0.3,0.9,10.81288,32.43864,return,4.933866800041869,,,,,,,11,23,female,left_right_width,2023_Aug_28_1638,exp1,2021.2.3,59.99847601313559,
,,,,,,,,,,,,,,,,4,9.3,9.766666666666667,10.233333333333333,10.7,0,0.4666666666666667,0.06666666666666665,0.4,1.8,10,match,36.05,335,352,369,386,0,9,9,9,9,0,,,,,3,0,3,0,0,17,17,11,,,,,num_5,1.2414043999742717,num_5,0.2,0.4,0.49999999999999994,0.6,18.02146,21.62576,return,5.796378400060348,,,,,,,11,23,female,left_right_width,2023_Aug_28_1638,exp1,2021.2.3,59.99847601313559,
,,,,,,,,,,,,,,,,5,9.175,9.5875,10,10.4125,10.825,0.4125,0.16249999999999998,0.25,1.9,10,match,36.05,331,346,361,375,390,9,9,9,9,9,,,,,3,0,3,0,0,18,18,23,,,,,num_4,1.0253883000696078,num_4,0.35,1.0,0.35,0.5,12.61502,18.02146,return,2.375933500006795,,,,,,,11,23,female,left_right_width,2023_Aug_28_1638,exp1,2021.2.3,59.99847601313559,
,,,,,,,,,,,,,,,,3,9,10,11,0,0,0.9999999999999999,0.5999999999999999,0.4,2.4,10,match,36.05,324,361,397,0,0,9,9,9,0,0,,,,,3,0,3,0,0,19,19,41,,,,,num_3,1.2046804999699816,num_3,0.35,0.6,0.35,0.95,12.61502,34.24078,return,1.7936445999657735,,,,,,,11,23,female,left_right_width,2023_Aug_28_1638,exp1,2021.2.3,59.99847601313559,
,,,,,,,,,,,,,,,,3,8.2,10,11.8,0,0,1.8,1.55,0.25,3.85,10,match,36.05,296,361,425,0,0,9,9,9,0,0,,,,,3,0,3,0,0,20,20,51,,,,,num_4,1.3580514999339357,num_4,0.2,0.3,0.25,1.4,9.01073,50.4601,return,3.5241640999447554,,,,,,,11,23,female,left_right_width,2023_Aug_28_1638,exp1,2021.2.3,59.99847601313559,
,,,,,,,,,,,,,,,,3,8.6,10,11.4,0,0,1.4,1.15,0.25,3.05,10,match,36.05,310,361,411,0,0,9,9,9,0,0,,,,,3,0,3,0,0,21,21,45,,,,,num_3,0.7621671000961214,num_3,0.4,0.8,0.35000000000000003,1.4,12.61502,50.4601,return,3.1783116000005975,,,,,,,11,23,female,left_right_width,2023_Aug_28_1638,exp1,2021.2.3,59.99847601313559,
,,,,,,,,,,,,,,,,3,9.1,10,10.9,0,0,0.9,0.65,0.25,2.05,10,initial,36.05,328,361,393,0,0,9,9,9,0,0,,,,,3,0,3,0,0,22,22,14,,,,,num_4,1.2843668001005426,num_4,0.25,1.3,0.3,1.2,10.81288,43.25151,return,1.4084058000007644,,,,,,,11,23,female,left_right_width,2023_Aug_28_1638,exp1,2021.2.3,59.99847601313559,
,,,,,,,,,,,,,,,,5,9,9.5,10,10.5,11,0.5,0.4,0.1,2.1,10,initial,36.05,324,342,361,379,397,9,9,9,9,9,,,,,3,0,3,0,0,23,23,36,,,,,num_6,1.075910700019449,num_6,0.4,0.5,0.25000000000000006,0.8,9.01073,28.83434,return,3.272580499993637,,,,,,,11,23,female,left_right_width,2023_Aug_28_1638,exp1,2021.2.3,59.99847601313559,
,,,,,,,,,,,,,,,,5,9,9.5,10,10.5,11,0.5,0.25,0.25,2.25,10,initial,36.05,324,342,361,379,397,9,9,9,9,9,,,,,3,0,3,0,0,24,24,38,,,,,num_7,1.3674570000730455,num_7,0.1,1.0,0.25,0.6,9.01073,21.62576,return,2.1758263000519946,,,,,,,11,23,female,left_right_width,2023_Aug_28_1638,exp1,2021.2.3,59.99847601313559,
,,,,,,,,,,,,,,,,3,8.525,10,11.475,0,0,1.475,1.225,0.25,3.2,10,match,36.05,307,361,414,0,0,9,9,9,0,0,,,,,3,0,3,0,0,25,25,47,,,,,num_4,0.9852414999622852,num_4,0.25,1.0,0.25,1.7,9.01073,61.27298,return,1.9056921999435872,,,,,,,11,23,female,left_right_width,2023_Aug_28_1638,exp1,2021.2.3,59.99847601313559,
,,,,,,,,,,,,,,,,5,9.25,9.625,10,10.375,10.75,0.375,0.125,0.25,1.75,10,match,36.05,333,347,361,374,388,9,9,9,9,9,,,,,3,0,3,0,0,26,26,21,,,,,num_6,1.3453804000746459,num_6,0.25,1.2,0.25,0.5,9.01073,18.02146,return,2.6496557999635115,,,,,,,11,23,female,left_right_width,2023_Aug_28_1638,exp1,2021.2.3,59.99847601313559,
,,,,,,,,,,,,,,,,3,9.5,10,10.5,0,0,0.5,0.09999999999999998,0.4,1.4000000000000001,10,initial,36.05,342,361,379,0,0,9,9,9,0,0,,,,,3,0,3,0,0,27,27,4,,,,,num_3,0.8454032000154257,num_3,0.35,0.8,0.35,0.7,12.61502,25.23005,return,1.370038199936971,,,,,,,11,23,female,left_right_width,2023_Aug_28_1638,exp1,2021.2.3,59.99847601313559,
,,,,,,,,,,,,,,,,3,9.3,10,10.7,0,0,0.7,0.6,0.1,1.5,10,initial,36.05,335,361,386,0,0,9,9,9,0,0,,,,,3,0,3,0,0,28,28,6,,,,,num_4,0.892696600058116,num_4,0.1,1.2,0.1,0.9,3.60429,32.43864,return,1.8002972999820486,,,,,,,11,23,female,left_right_width,2023_Aug_28_1638,exp1,2021.2.3,59.99847601313559,
,,,,,,,,,,,,,,,,4,9.1,9.7,10.3,10.9,0,0.6000000000000001,0.20000000000000004,0.4,2.2,10,match,36.05,328,350,371,393,0,9,9,9,9,0,,,,,3,0,3,0,0,29,29,17,,,,,num_5,0.7546568000689149,num_5,0.25,0.7,0.3,0.75,10.81288,27.0322,return,1.9716183999553323,,,,,,,11,23,female,left_right_width,2023_Aug_28_1638,exp1,2021.2.3,59.99847601313559,
,,,,,,,,,,,,,,,,5,8.95,9.475,10,10.525,11.05,0.525,0.275,0.25,2.35,10,match,36.05,323,342,361,379,398,9,9,9,9,9,,,,,3,0,3,0,0,30,30,27,,,,,num_8,0.871266599977389,num_8,0.15,1.0,0.25,0.5,9.01073,18.02146,return,2.1130577999865636,,,,,,,11,23,female,left_right_width,2023_Aug_28_1638,exp1,2021.2.3,59.99847601313559,
,,,,,,,,,,,,,,,,4,9.3,9.766666666666667,10.233333333333333,10.7,0,0.4666666666666667,0.3666666666666667,0.1,1.5,10,match,36.05,335,352,369,386,0,9,9,9,9,0,,,,,3,0,3,0,0,31,31,7,,,,,num_5,0.7850479000480846,num_5,0.45,1.0,0.20000000000000007,0.65,7.20859,23.4279,return,2.430543700000271,,,,,,,11,23,female,left_right_width,2023_Aug_28_1638,exp1,2021.2.3,59.99847601313559,
,,,,,,,,,,,,,,,,4,8.65,9.55,10.45,11.35,0,0.9,0.65,0.25,2.95,10,initial,36.05,312,344,377,409,0,9,9,9,9,0,,,,,3,0,3,0,0,32,32,32,,,,,num_5,1.2967550000175834,num_5,0.2,0.6,0.35,0.8,12.61502,28.83434,return,2.043448599986732,,,,,,,11,23,female,left_right_width,2023_Aug_28_1638,exp1,2021.2.3,59.99847601313559,
,,,,,,,,,,,,,,,,5,8.95,9.475,10,10.525,11.05,0.525,0.125,0.4,2.5,10,match,36.05,323,342,361,379,398,9,9,9,9,9,,,,,3,0,3,0,0,33,33,29,,,,,num_6,0.8824625000124797,num_6,0.2,0.7,0.35,0.6,12.61502,21.62576,return,1.8247830000473186,,,,,,,11,23,female,left_right_width,2023_Aug_28_1638,exp1,2021.2.3,59.99847601313559,
,,,,,,,,,,,,,,,,3,9.1,10,10.9,0,0,0.9,0.5,0.4,2.2,10,initial,36.05,328,361,393,0,0,9,9,9,0,0,,,,,3,0,3,0,0,34,34,16,,,,,num_4,1.4157737999921665,num_4,0.25,0.7,0.35,0.8,12.61502,28.83434,return,2.0480496999807656,,,,,,,11,23,female,left_right_width,2023_Aug_28_1638,exp1,2021.2.3,59.99847601313559,
,,,,,,,,,,,,,,,,4,9.25,9.75,10.25,10.75,0,0.5,0.25,0.25,1.75,10,initial,36.05,333,351,370,388,0,9,9,9,9,0,,,,,3,0,3,0,0,35,35,20,,,,,num_5,0.9972832000348717,num_5,0.2,1.3,0.2,0.6,7.20859,21.62576,return,2.8772619999945164,,,,,,,11,23,female,left_right_width,2023_Aug_28_1638,exp1,2021.2.3,59.99847601313559,
,,,,,,,,,,,,,,,,5,9,9.5,10,10.5,11,0.5,0.09999999999999998,0.4,2.4,10,initial,36.05,324,342,361,379,397,9,9,9,9,9,,,,,3,0,3,0,0,36,36,40,,,,,num_6,0.9059526000637561,num_6,0.2,1.1,0.35,0.5,12.61502,18.02146,return,3.523657999932766,,,,,,,11,23,female,left_right_width,2023_Aug_28_1638,exp1,2021.2.3,59.99847601313559,
,,,,,,,,,,,,,,,,3,9.5,10,10.5,0,0,0.5,0.4,0.1,1.1,10,initial,36.05,342,361,379,0,0,9,9,9,0,0,,,,,3,0,3,0,0,37,37,0,,,,,num_2,0.7357651999918744,num_2,0.4,1.6,0.25000000000000006,0.7,9.01073,25.23005,return,3.1544279999798164,,,,,,,11,23,female,left_right_width,2023_Aug_28_1638,exp1,2021.2.3,59.99847601313559,
,,,,,,,,,,,,,,,,4,9.5,9.833333333333334,10.166666666666666,10.5,0,0.3333333333333333,0.08333333333333333,0.25,1.25,10,match,36.05,342,354,367,379,0,9,9,9,9,0,,,,,3,0,3,0,0,38,38,3,,,,,num_4,1.0198082000715658,num_4,0.2,0.4,0.3,0.7,10.81288,25.23005,return,1.554053399944678,,,,,,,11,23,female,left_right_width,2023_Aug_28_1638,exp1,2021.2.3,59.99847601313559,
,,,,,,,,,,,,,,,,5,8.65,9.325,10,10.675,11.35,0.675,0.42500000000000004,0.25,2.95,10,match,36.05,312,336,361,385,409,9,9,9,9,9,,,,,3,0,3,0,0,39,39,33,,,,,num_5,0.7107983999885619,num_5,0.45,1.1,0.20000000000000007,0.8,7.20859,28.83434,return,2.393794900039211,,,,,,,11,23,female,left_right_width,2023_Aug_28_1638,exp1,2021.2.3,59.99847601313559,
,,,,,,,,,,,,,,,,4,9.3,9.766666666666667,10.233333333333333,10.7,0,0.4666666666666667,0.21666666666666665,0.25,1.65,10,match,36.05,335,352,369,386,0,9,9,9,9,0,,,,,3,0,3,0,0,40,40,9,,,,,num_5,0.9659735000459477,num_5,0.1,0.4,0.2,0.5,7.20859,18.02146,return,2.012963499990292,,,,,,,11,23,female,left_right_width,2023_Aug_28_1638,exp1,2021.2.3,59.99847601313559,
,,,,,,,,,,,,,,,,3,8.2,10,11.8,0,0,1.7999999999999998,1.4,0.4,4,10,match,36.05,296,361,425,0,0,9,9,9,0,0,,,,,3,0,3,0,0,41,41,53,,,,,num_4,1.06262920005247,num_4,0.2,0.3,0.25,1.4,9.01073,50.4601,return,4.153546700021252,,,,,,,11,23,female,left_right_width,2023_Aug_28_1638,exp1,2021.2.3,59.99847601313559,
,,,,,,,,,,,,,,,,4,8.65,9.55,10.45,11.35,0,0.9,0.5,0.4,3.1,10,initial,36.05,312,344,377,409,0,9,9,9,9,0,,,,,3,0,3,0,0,42,42,34,,,,,num_5,0.7592382000293583,num_5,0.15,1.0,0.3,1.05,10.81288,37.84507,return,1.5755034000612795,,,,,,,11,23,female,left_right_width,2023_Aug_28_1638,exp1,2021.2.3,59.99847601313559,
,,,,,,,,,,,,,,,,3,9.5,10,10.5,0,0,0.5,0.25,0.25,1.25,10,initial,36.05,342,361,379,0,0,9,9,9,0,0,,,,,3,0,3,0,0,43,43,2,,,,,num_3,1.1518461999949068,num_3,0.25,0.4,0.25,0.85,9.01073,30.63649,return,1.8554287999868393,,,,,,,11,23,female,left_right_width,2023_Aug_28_1638,exp1,2021.2.3,59.99847601313559,
,,,,,,,,,,,,,,,,4,9.25,9.75,10.25,10.75,0,0.5,0.09999999999999998,0.4,1.9,10,initial,36.05,333,351,370,388,0,9,9,9,9,0,,,,,3,0,3,0,0,44,44,22,,,,,num_4,0.8665918000042439,num_4,0.1,0.5,0.25,0.7,9.01073,25.23005,return,1.839367099921219,,,,,,,11,23,female,left_right_width,2023_Aug_28_1638,exp1,2021.2.3,59.99847601313559,
,,,,,,,,,,,,,,,,3,9.1,10,10.9,0,0,0.9,0.8,0.1,1.9000000000000001,10,initial,36.05,328,361,393,0,0,9,9,9,0,0,,,,,3,0,3,0,0,45,45,12,,,,,num_4,1.0319701000116765,num_4,0.25,0.9,0.05000000000000002,0.7,1.80215,25.23005,return,1.7110166000202298,,,,,,,11,23,female,left_right_width,2023_Aug_28_1638,exp1,2021.2.3,59.99847601313559,
,,,,,,,,,,,,,,,,4,8.95,9.65,10.35,11.05,0,0.7,0.44999999999999996,0.25,2.3499999999999996,10,initial,36.05,323,348,373,398,0,9,9,9,9,0,,,,,3,0,3,0,0,46,46,26,,,,,num_5,0.9559467000653967,num_5,0.1,1.0,0.25,0.85,9.01073,30.63649,return,1.5395977000007406,,,,,,,11,23,female,left_right_width,2023_Aug_28_1638,exp1,2021.2.3,59.99847601313559,
,,,,,,,,,,,,,,,,4,9.425,9.808333333333334,10.191666666666666,10.575,0,0.3833333333333333,0.1333333333333333,0.25,1.4,10,match,36.05,340,354,367,381,0,9,9,9,9,0,,,,,3,0,3,0,0,47,47,5,,,,,num_5,0.8253808000590652,num_5,0.4,0.6,0.25000000000000006,0.5,9.01073,18.02146,return,2.10361470002681,,,,,,,11,23,female,left_right_width,2023_Aug_28_1638,exp1,2021.2.3,59.99847601313559,
,,,,,,,,,,,,,,,,5,8.6,9.3,10,10.7,11.4,0.7,0.6,0.1,2.9,10,initial,36.05,310,335,361,386,411,9,9,9,9,9,,,,,3,0,3,0,0,48,48,42,,,,,num_6,1.3562727000098675,num_6,0.1,1.0,0.1,0.8,3.60429,28.83434,return,1.9572757000569254,,,,,,,11,23,female,left_right_width,2023_Aug_28_1638,exp1,2021.2.3,59.99847601313559,
,,,,,,,,,,,,,,,,5,8.65,9.325,10,10.675,11.35,0.6749999999999999,0.575,0.1,2.8,10,match,36.05,312,336,361,385,409,9,9,9,9,9,,,,,3,0,3,0,0,49,49,31,,,,,num_7,1.1507677999325097,num_7,0.3,1.0,0.10000000000000002,0.8,3.60429,28.83434,return,2.6718279999913648,,,,,,,11,23,female,left_right_width,2023_Aug_28_1638,exp1,2021.2.3,59.99847601313559,
,,,,,,,,,,,,,,,,5,8.65,9.325,10,10.675,11.35,0.675,0.275,0.4,3.1,10,match,36.05,312,336,361,385,409,9,9,9,9,9,,,,,3,0,3,0,0,50,50,35,,,,,num_5,0.8553114000242203,num_5,0.35,0.5,0.25,0.85,9.01073,30.63649,return,3.4752569999545813,,,,,,,11,23,female,left_right_width,2023_Aug_28_1638,exp1,2021.2.3,59.99847601313559,
,,,,,,,,,,,,,,,,3,8.2,10,11.8,0,0,1.8000000000000003,1.7000000000000002,0.1,3.7,10,match,36.05,296,361,425,0,0,9,9,9,0,0,,,,,3,0,3,0,0,51,51,49,,,,,num_5,0.7953320000087842,num_5,0.15,1.0,0.09999999999999999,1.05,3.60429,37.84507,return,1.5451573999598622,,,,,,,11,23,female,left_right_width,2023_Aug_28_1638,exp1,2021.2.3,59.99847601313559,
,,,,,,,,,,,,,,,,5,8.2,9.1,10,10.9,11.8,0.9,0.5,0.4,4,10,initial,36.05,296,328,361,393,425,9,9,9,9,9,,,,,3,0,3,0,0,52,52,52,,,,,num_7,1.0396941000362858,num_7,0.2,0.5,0.3,0.8,10.81288,28.83434,return,2.214113099966198,,,,,,,11,23,female,left_right_width,2023_Aug_28_1638,exp1,2021.2.3,59.99847601313559,
,,,,,,,,,,,,,,,,4,9.1,9.7,10.3,10.9,0,0.5999999999999999,0.3499999999999999,0.25,2.05,10,match,36.05,328,350,371,393,0,9,9,9,9,0,,,,,3,0,3,0,0,53,53,15,,,,,num_5,0.7646396999480203,num_5,0.4,1.3,0.20000000000000007,1.05,7.20859,37.84507,return,1.8858777999412268,,,,,,,11,23,female,left_right_width,2023_Aug_28_1638,exp1,2021.2.3,59.99847601313559,
,,,,,,,,,,,,,,,,,,,,,,,,,,,,,,,,,,,,,,,,,,,3,0,3,0,,,,,,,,,,,,,,,,,,,,,,1798.3632364999503,None,1798.3632364999503,None,11,23,female,left_right_width,2023_Aug_28_1638,exp1,2021.2.3,59.99847601313559,
,,,,,,,,,,,,,,,,5,9.25,9.625,10,10.375,10.75,0.375,0.125,0.25,1.75,10,match,36.05,333,347,361,374,388,9,9,9,9,9,,,,,4,0,4,0,0,0,0,21,,,,,num_7,1.0561711000045761,num_7,0.4,0.7,0.25000000000000006,0.5,9.01073,18.02146,return,1.4110847000265494,,,,,,,11,23,female,left_right_width,2023_Aug_28_1638,exp1,2021.2.3,59.99847601313559,
,,,,,,,,,,,,,,,,5,8.6,9.3,10,10.7,11.4,0.7,0.6,0.1,2.9,10,initial,36.05,310,335,361,386,411,9,9,9,9,9,,,,,4,0,4,0,0,1,1,42,,,,,num_5,0.7386625000508502,num_5,0.2,1.3,0.2,1.05,7.20859,37.84507,return,1.6846893000183627,,,,,,,11,23,female,left_right_width,2023_Aug_28_1638,exp1,2021.2.3,59.99847601313559,
,,,,,,,,,,,,,,,,5,8.95,9.475,10,10.525,11.05,0.525,0.125,0.4,2.5,10,match,36.05,323,342,361,379,398,9,9,9,9,9,,,,,4,0,4,0,0,2,2,29,,,,,num_8,1.2233926000772044,num_8,0.2,1.1,0.25,0.6,9.01073,21.62576,return,2.163302700035274,,,,,,,11,23,female,left_right_width,2023_Aug_28_1638,exp1,2021.2.3,59.99847601313559,
,,,,,,,,,,,,,,,,3,9.3,10,10.7,0,0,0.7,0.6,0.1,1.5,10,initial,36.05,335,361,386,0,0,9,9,9,0,0,,,,,4,0,4,0,0,3,3,6,,,,,num_3,0.7532215999672189,num_3,0.35,0.7,0.10000000000000002,0.9,3.60429,32.43864,return,4.064319500001147,,,,,,,11,23,female,left_right_width,2023_Aug_28_1638,exp1,2021.2.3,59.99847601313559,
,,,,,,,,,,,,,,,,4,9.1,9.7,10.3,10.9,0,0.6,0.5,0.1,1.9,10,match,36.05,328,350,371,393,0,9,9,9,9,0,,,,,4,0,4,0,0,4,4,13,,,,,num_4,1.0678921999642625,num_4,0.4,0.6,0.15000000000000008,1.0,5.40644,36.04293,return,3.1988009000197053,,,,,,,11,23,female,left_right_width,2023_Aug_28_1638,exp1,2021.2.3,59.99847601313559,
,,,,,,,,,,,,,,,,3,9.5,10,10.5,0,0,0.5,0.25,0.25,1.25,10,initial,36.05,342,361,379,0,0,9,9,9,0,0,,,,,4,0,4,0,0,5,5,2,,,,,num_3,0.7272703999187797,num_3,0.25,1.3,0.15000000000000002,0.7,5.40644,25.23005,return,3.130205300054513,,,,,,,11,23,female,left_right_width,2023_Aug_28_1638,exp1,2021.2.3,59.99847601313559,
,,,,,,,,,,,,,,,,5,8.95,9.475,10,10.525,11.05,0.525,0.275,0.25,2.35,10,match,36.05,323,342,361,379,398,9,9,9,9,9,,,,,4,0,4,0,0,6,6,27,,,,,num_8,0.8527448000386357,num_8,0.3,0.7,0.2,0.5,7.20859,18.02146,return,2.320041500031948,,,,,,,11,23,female,left_right_width,2023_Aug_28_1638,exp1,2021.2.3,59.99847601313559,
,,,,,,,,,,,,,,,,4,9.1,9.7,10.3,10.9,0,0.5999999999999999,0.3499999999999999,0.25,2.05,10,match,36.05,328,350,371,393,0,9,9,9,9,0,,,,,4,0,4,0,0,7,7,15,,,,,num_6,1.5010805000783876,num_6,0.35,1.1,0.2,0.6,7.20859,21.62576,return,1.9998798000160605,,,,,,,11,23,female,left_right_width,2023_Aug_28_1638,exp1,2021.2.3,59.99847601313559,
,,,,,,,,,,,,,,,,5,8.65,9.325,10,10.675,11.35,0.675,0.42500000000000004,0.25,2.95,10,match,36.05,312,336,361,385,409,9,9,9,9,9,,,,,4,0,4,0,0,8,8,33,,,,,num_9,0.7712179000955075,num_9,0.45,0.5,0.15000000000000008,0.55,5.40644,19.82361,return,1.922009599977173,,,,,,,11,23,female,left_right_width,2023_Aug_28_1638,exp1,2021.2.3,59.99847601313559,
,,,,,,,,,,,,,,,,3,9.1,10,10.9,0,0,0.9,0.5,0.4,2.2,10,initial,36.05,328,361,393,0,0,9,9,9,0,0,,,,,4,0,4,0,0,9,9,16,,,,,num_3,1.0864672999596223,num_3,0.2,0.6,0.35,0.85,12.61502,30.63649,return,2.210623399936594,,,,,,,11,23,female,left_right_width,2023_Aug_28_1638,exp1,2021.2.3,59.99847601313559,
,,,,,,,,,,,,,,,,3,8.2,10,11.8,0,0,1.8000000000000003,1.7000000000000002,0.1,3.7,10,match,36.05,296,361,425,0,0,9,9,9,0,0,,,,,4,0,4,0,0,10,10,49,,,,,num_3,0.6898706000065431,num_3,0.35,0.7,0.15000000000000002,1.5,5.40644,54.06439,return,5.669870599987917,,,,,,,11,23,female,left_right_width,2023_Aug_28_1638,exp1,2021.2.3,59.99847601313559,
,,,,,,,,,,,,,,,,5,8.2,9.1,10,10.9,11.8,0.9,0.8,0.1,3.7,10,initial,36.05,296,328,361,393,425,9,9,9,9,9,,,,,4,0,4,0,0,11,11,48,,,,,num_6,1.583345799939707,num_6,0.3,1.2,0.15000000000000002,0.9,5.40644,32.43864,return,4.079232300049625,,,,,,,11,23,female,left_right_width,2023_Aug_28_1638,exp1,2021.2.3,59.99847601313559,
,,,,,,,,,,,,,,,,5,9,9.5,10,10.5,11,0.5,0.09999999999999998,0.4,2.4,10,initial,36.05,324,342,361,379,397,9,9,9,9,9,,,,,4,0,4,0,0,12,12,40,,,,,num_5,0.8885633000172675,num_5,0.25,0.4,0.35,0.7,12.61502,25.23005,return,2.994185999967158,,,,,,,11,23,female,left_right_width,2023_Aug_28_1638,exp1,2021.2.3,59.99847601313559,
,,,,,,,,,,,,,,,,5,8.2,9.1,10,10.9,11.8,0.9,0.65,0.25,3.85,10,initial,36.05,296,328,361,393,425,9,9,9,9,9,,,,,4,0,4,0,0,13,13,50,,,,,num_6,1.112881000037305,num_6,0.25,1.2,0.2,0.9,7.20859,32.43864,return,1.6597347999922931,,,,,,,11,23,female,left_right_width,2023_Aug_28_1638,exp1,2021.2.3,59.99847601313559,
,,,,,,,,,,,,,,,,3,8.2,10,11.8,0,0,1.8,1.55,0.25,3.85,10,match,36.05,296,361,425,0,0,9,9,9,0,0,,,,,4,0,4,0,0,14,14,51,,,,,num_4,0.8260549999540672,num_4,0.1,0.9,0.25,1.5,9.01073,54.06439,return,3.4779052999801934,,,,,,,11,23,female,left_right_width,2023_Aug_28_1638,exp1,2021.2.3,59.99847601313559,
,,,,,,,,,,,,,,,,4,8.65,9.55,10.45,11.35,0,0.9,0.8,0.1,2.8000000000000003,10,initial,36.05,312,344,377,409,0,9,9,9,9,0,,,,,4,0,4,0,0,15,15,30,,,,,num_5,0.8572906999615952,num_5,0.35,1.2,0.10000000000000002,1.2,3.60429,43.25151,return,2.850502600078471,,,,,,,11,23,female,left_right_width,2023_Aug_28_1638,exp1,2021.2.3,59.99847601313559,
,,,,,,,,,,,,,,,,5,8.65,9.325,10,10.675,11.35,0.675,0.275,0.4,3.1,10,match,36.05,312,336,361,385,409,9,9,9,9,9,,,,,4,0,4,0,0,16,16,35,,,,,num_5,0.9808113999897614,num_5,0.25,0.6,0.2,1.0,7.20859,36.04293,return,5.390972099965438,,,,,,,11,23,female,left_right_width,2023_Aug_28_1638,exp1,2021.2.3,59.99847601313559,
,,,,,,,,,,,,,,,,5,8.2,9.1,10,10.9,11.8,0.9,0.5,0.4,4,10,initial,36.05,296,328,361,393,425,9,9,9,9,9,,,,,4,0,4,0,0,17,17,52,,,,,num_7,1.5893356999149546,num_7,0.3,1.1,0.25,0.85,9.01073,30.63649,return,2.756580299930647,,,,,,,11,23,female,left_right_width,2023_Aug_28_1638,exp1,2021.2.3,59.99847601313559,
,,,,,,,,,,,,,,,,5,8.6,9.3,10,10.7,11.4,0.7,0.29999999999999993,0.4,3.1999999999999997,10,initial,36.05,310,335,361,386,411,9,9,9,9,9,,,,,4,0,4,0,0,18,18,46,,,,,num_6,0.9206029999768361,num_6,0.2,0.8,0.3,0.8,10.81288,28.83434,return,2.0666208000620827,,,,,,,11,23,female,left_right_width,2023_Aug_28_1638,exp1,2021.2.3,59.99847601313559,
,,,,,,,,,,,,,,,,3,8.6,10,11.4,0,0,1.4,1.15,0.25,3.05,10,match,36.05,310,361,411,0,0,9,9,9,0,0,,,,,4,0,4,0,0,19,19,45,,,,,num_3,0.7425955000799149,num_3,0.45,1.3,0.20000000000000007,1.45,7.20859,52.26225,return,2.0086611000588164,,,,,,,11,23,female,left_right_width,2023_Aug_28_1638,exp1,2021.2.3,59.99847601313559,
,,,,,,,,,,,,,,,,3,9.1,10,10.9,0,0,0.9,0.65,0.25,2.05,10,initial,36.05,328,361,393,0,0,9,9,9,0,0,,,,,4,0,4,0,0,20,20,14,,,,,num_4,0.896038300008513,num_4,0.3,1.1,0.25,0.9,9.01073,32.43864,return,1.2109011999564245,,,,,,,11,23,female,left_right_width,2023_Aug_28_1638,exp1,2021.2.3,59.99847601313559,
,,,,,,,,,,,,,,,,4,9.3,9.766666666666667,10.233333333333333,10.7,0,0.4666666666666667,0.21666666666666665,0.25,1.65,10,match,36.05,335,352,369,386,0,9,9,9,9,0,,,,,4,0,4,0,0,21,21,9,,,,,num_5,0.9134266000473872,num_5,0.2,1.1,0.2,0.6,7.20859,21.62576,return,2.9738233000971377,,,,,,,11,23,female,left_right_width,2023_Aug_28_1638,exp1,2021.2.3,59.99847601313559,
,,,,,,,,,,,,,,,,3,9,10,11,0,0,1,0.75,0.25,2.25,10,match,36.05,324,361,397,0,0,9,9,9,0,0,,,,,4,0,4,0,0,22,22,39,,,,,num_4,0.8934482000768185,num_4,0.2,0.4,0.25,1.0,9.01073,36.04293,return,2.7272388000274077,,,,,,,11,23,female,left_right_width,2023_Aug_28_1638,exp1,2021.2.3,59.99847601313559,
,,,,,,,,,,,,,,,,3,9.3,10,10.7,0,0,0.7,0.44999999999999996,0.25,1.65,10,initial,36.05,335,361,386,0,0,9,9,9,0,0,,,,,4,0,4,0,0,23,23,8,,,,,num_3,0.6738408000674099,num_3,0.1,1,0.25,0.9,9.01073,32.43864,return,2.0227460999740288,,,,,,,11,23,female,left_right_width,2023_Aug_28_1638,exp1,2021.2.3,59.99847601313559,
,,,,,,,,,,,,,,,,3,8.2,10,11.8,0,0,1.7999999999999998,1.4,0.4,4,10,match,36.05,296,361,425,0,0,9,9,9,0,0,,,,,4,0,4,0,0,24,24,53,,,,,num_4,0.7652929000323638,num_4,0.15,0.8,0.25,1.2,9.01073,43.25151,return,1.5018198000034317,,,,,,,11,23,female,left_right_width,2023_Aug_28_1638,exp1,2021.2.3,59.99847601313559,
,,,,,,,,,,,,,,,,4,8.95,9.65,10.35,11.05,0,0.7,0.44999999999999996,0.25,2.3499999999999996,10,initial,36.05,323,348,373,398,0,9,9,9,9,0,,,,,4,0,4,0,0,25,25,26,,,,,num_5,0.7308147000148892,num_5,0.25,1.1,0.2,0.8,7.20859,28.83434,return,3.1498604000080377,,,,,,,11,23,female,left_right_width,2023_Aug_28_1638,exp1,2021.2.3,59.99847601313559,
,,,,,,,,,,,,,,,,4,9.5,9.833333333333334,10.166666666666666,10.5,0,0.3333333333333333,0.08333333333333333,0.25,1.25,10,match,36.05,342,354,367,379,0,9,9,9,9,0,,,,,4,0,4,0,0,26,26,3,,,,,num_5,0.7851763999788091,num_5,0.15,0.8,0.2,0.55,7.20859,19.82361,return,2.4650554000400007,,,,,,,11,23,female,left_right_width,2023_Aug_28_1638,exp1,2021.2.3,59.99847601313559,
,,,,,,,,,,,,,,,,4,9.5,9.833333333333334,10.166666666666666,10.5,0,0.33333333333333337,0.23333333333333336,0.1,1.1,10,match,36.05,342,354,367,379,0,9,9,9,9,0,,,,,4,0,4,0,0,27,27,1,,,,,num_6,2.7085356999887154,num_6,0.15,0.8,0.15,0.5,5.40644,18.02146,return,3.0003078998997808,,,,,,,11,23,female,left_right_width,2023_Aug_28_1638,exp1,2021.2.3,59.99847601313559,
,,,,,,,,,,,,,,,,5,8.65,9.325,10,10.675,11.35,0.6749999999999999,0.575,0.1,2.8,10,match,36.05,312,336,361,385,409,9,9,9,9,9,,,,,4,0,4,0,0,28,28,31,,,,,num_6,0.9458841999294236,num_6,0.3,0.7,0.10000000000000002,0.7,3.60429,25.23005,return,1.9791540999431163,,,,,,,11,23,female,left_right_width,2023_Aug_28_1638,exp1,2021.2.3,59.99847601313559,
,,,,,,,,,,,,,,,,5,8.95,9.475,10,10.525,11.05,0.525,0.42500000000000004,0.1,2.2,10,match,36.05,323,342,361,379,398,9,9,9,9,9,,,,,4,0,4,0,0,29,29,25,,,,,num_7,1.0427349999081343,num_7,0.2,0.9,0.10000000000000002,0.55,3.60429,19.82361,return,4.633461600053124,,,,,,,11,23,female,left_right_width,2023_Aug_28_1638,exp1,2021.2.3,59.99847601313559,
,,,,,,,,,,,,,,,,4,9.25,9.75,10.25,10.75,0,0.5,0.4,0.1,1.6,10,initial,36.05,333,351,370,388,0,9,9,9,9,0,,,,,4,0,4,0,0,30,30,18,,,,,num_5,0.8851597000611946,num_5,0.1,1.1,0.15000000000000002,0.75,5.40644,27.0322,return,4.597540399990976,,,,,,,11,23,female,left_right_width,2023_Aug_28_1638,exp1,2021.2.3,59.99847601313559,
,,,,,,,,,,,,,,,,3,9.1,10,10.9,0,0,0.9,0.8,0.1,1.9000000000000001,10,initial,36.05,328,361,393,0,0,9,9,9,0,0,,,,,4,0,4,0,0,31,31,12,,,,,num_3,0.7052459999686107,num_3,0.3,0.7,0.10000000000000002,1.35,3.60429,48.65795,return,5.635371600044891,,,,,,,11,23,female,left_right_width,2023_Aug_28_1638,exp1,2021.2.3,59.99847601313559,
,,,,,,,,,,,,,,,,4,9.25,9.75,10.25,10.75,0,0.5,0.25,0.25,1.75,10,initial,36.05,333,351,370,388,0,9,9,9,9,0,,,,,4,0,4,0,0,32,32,20,,,,,num_5,0.9553728000028059,num_5,0.25,1.1,0.15000000000000002,0.8,5.40644,28.83434,return,1.5539293000474572,,,,,,,11,23,female,left_right_width,2023_Aug_28_1638,exp1,2021.2.3,59.99847601313559,
,,,,,,,,,,,,,,,,3,8.6,10,11.4,0,0,1.4,1.2999999999999998,0.1,2.9,10,match,36.05,310,361,411,0,0,9,9,9,0,0,,,,,4,0,4,0,0,33,33,43,,,,,num_4,1.1659367000684142,num_4,0.3,1.1,0.10000000000000002,1.2,3.60429,43.25151,return,2.463525400031358,,,,,,,11,23,female,left_right_width,2023_Aug_28_1638,exp1,2021.2.3,59.99847601313559,
,,,,,,,,,,,,,,,,5,8.6,9.3,10,10.7,11.4,0.7,0.44999999999999996,0.25,3.05,10,initial,36.05,310,335,361,386,411,9,9,9,9,9,,,,,4,0,4,0,0,34,34,44,,,,,num_8,1.3427160000428557,num_8,0.25,1.2,0.15000000000000002,0.7,5.40644,25.23005,return,3.3527454000432044,,,,,,,11,23,female,left_right_width,2023_Aug_28_1638,exp1,2021.2.3,59.99847601313559,
,,,,,,,,,,,,,,,,4,9.25,9.75,10.25,10.75,0,0.5,0.09999999999999998,0.4,1.9,10,initial,36.05,333,351,370,388,0,9,9,9,9,0,,,,,4,0,4,0,0,35,35,22,,,,,num_5,0.8949814999941736,num_5,0.3,0.9,0.3,0.7,10.81288,25.23005,return,2.969997699954547,,,,,,,11,23,female,left_right_width,2023_Aug_28_1638,exp1,2021.2.3,59.99847601313559,
,,,,,,,,,,,,,,,,3,9,10,11,0,0,0.9999999999999999,0.5999999999999999,0.4,2.4,10,match,36.05,324,361,397,0,0,9,9,9,0,0,,,,,4,0,4,0,0,36,36,41,,,,,num_4,1.2760755000635982,num_4,0.15,1.2,0.25,0.9,9.01073,32.43864,return,1.832337599946186,,,,,,,11,23,female,left_right_width,2023_Aug_28_1638,exp1,2021.2.3,59.99847601313559,
,,,,,,,,,,,,,,,,4,8.95,9.65,10.35,11.05,0,0.7,0.6,0.1,2.1999999999999997,10,initial,36.05,323,348,373,398,0,9,9,9,9,0,,,,,4,0,4,0,0,37,37,24,,,,,num_4,0.8954280000180006,num_4,0.4,0.8,0.10000000000000007,1.0,3.60429,36.04293,return,3.050474000046961,,,,,,,11,23,female,left_right_width,2023_Aug_28_1638,exp1,2021.2.3,59.99847601313559,
,,,,,,,,,,,,,,,,4,8.95,9.65,10.35,11.05,0,0.7,0.29999999999999993,0.4,2.5,10,initial,36.05,323,348,373,398,0,9,9,9,9,0,,,,,4,0,4,0,0,38,38,28,,,,,num_5,0.787474500015378,num_5,0.1,1.0,0.3,0.95,10.81288,34.24078,return,1.857334400061518,,,,,,,11,23,female,left_right_width,2023_Aug_28_1638,exp1,2021.2.3,59.99847601313559,
,,,,,,,,,,,,,,,,3,8.525,10,11.475,0,0,1.475,1.225,0.25,3.2,10,match,36.05,307,361,414,0,0,9,9,9,0,0,,,,,4,0,4,0,0,39,39,47,,,,,num_4,0.7727451000828296,num_4,0.35,1.0,0.2,1.4,7.20859,50.4601,return,2.947838700027205,,,,,,,11,23,female,left_right_width,2023_Aug_28_1638,exp1,2021.2.3,59.99847601313559,
,,,,,,,,,,,,,,,,3,9.5,10,10.5,0,0,0.5,0.09999999999999998,0.4,1.4000000000000001,10,initial,36.05,342,361,379,0,0,9,9,9,0,0,,,,,4,0,4,0,0,40,40,4,,,,,num_3,0.7832365999929607,num_3,0.2,0.6,0.3,0.75,10.81288,27.0322,return,1.8235460999421775,,,,,,,11,23,female,left_right_width,2023_Aug_28_1638,exp1,2021.2.3,59.99847601313559,
,,,,,,,,,,,,,,,,5,9.175,9.5875,10,10.4125,10.825,0.4125,0.16249999999999998,0.25,1.9,10,match,36.05,331,346,361,375,390,9,9,9,9,9,,,,,4,0,4,0,0,41,41,23,,,,,num_6,0.8386418999871239,num_6,0.4,1.2,0.25000000000000006,0.7,9.01073,25.23005,return,3.4439701000228524,,,,,,,11,23,female,left_right_width,2023_Aug_28_1638,exp1,2021.2.3,59.99847601313559,
,,,,,,,,,,,,,,,,4,9.3,9.766666666666667,10.233333333333333,10.7,0,0.4666666666666667,0.06666666666666665,0.4,1.8,10,match,36.05,335,352,369,386,0,9,9,9,9,0,,,,,4,0,4,0,0,42,42,11,,,,,num_5,0.7167502000229433,num_5,0.15,1.2,0.25,0.85,9.01073,30.63649,return,7.263644600054249,,,,,,,11,23,female,left_right_width,2023_Aug_28_1638,exp1,2021.2.3,59.99847601313559,
,,,,,,,,,,,,,,,,4,9.425,9.808333333333334,10.191666666666666,10.575,0,0.3833333333333333,0.1333333333333333,0.25,1.4,10,match,36.05,340,354,367,381,0,9,9,9,9,0,,,,,4,0,4,0,0,43,43,5,,,,,num_5,0.8832153999246657,num_5,0.15,0.4,0.25,0.6,9.01073,21.62576,return,1.8204998000292107,,,,,,,11,23,female,left_right_width,2023_Aug_28_1638,exp1,2021.2.3,59.99847601313559,
,,,,,,,,,,,,,,,,4,9.3,9.766666666666667,10.233333333333333,10.7,0,0.4666666666666667,0.3666666666666667,0.1,1.5,10,match,36.05,335,352,369,386,0,9,9,9,9,0,,,,,4,0,4,0,0,44,44,7,,,,,num_4,0.828783999895677,num_4,0.25,0.9,0.10000000000000002,0.6,3.60429,21.62576,return,2.250732000102289,,,,,,,11,23,female,left_right_width,2023_Aug_28_1638,exp1,2021.2.3,59.99847601313559,
,,,,,,,,,,,,,,,,3,9.3,10,10.7,0,0,0.7,0.29999999999999993,0.4,1.8,10,initial,36.05,335,361,386,0,0,9,9,9,0,0,,,,,4,0,4,0,0,45,45,10,,,,,num_3,0.7755999000510201,num_3,0.1,0.5,0.39999999999999997,0.9,14.41717,32.43864,return,2.7450914999935776,,,,,,,11,23,female,left_right_width,2023_Aug_28_1638,exp1,2021.2.3,59.99847601313559,
,,,,,,,,,,,,,,,,4,9.1,9.7,10.3,10.9,0,0.6000000000000001,0.20000000000000004,0.4,2.2,10,match,36.05,328,350,371,393,0,9,9,9,9,0,,,,,4,0,4,0,0,46,46,17,,,,,num_5,0.7480805999366567,num_5,0.3,1.3,0.25,0.85,9.01073,30.63649,return,2.4933433000696823,,,,,,,11,23,female,left_right_width,2023_Aug_28_1638,exp1,2021.2.3,59.99847601313559,
,,,,,,,,,,,,,,,,4,8.65,9.55,10.45,11.35,0,0.9,0.5,0.4,3.1,10,initial,36.05,312,344,377,409,0,9,9,9,9,0,,,,,4,0,4,0,0,47,47,34,,,,,num_5,0.815905399969779,num_5,0.15,0.7,0.35,1.0,12.61502,36.04293,return,2.4943292000098154,,,,,,,11,23,female,left_right_width,2023_Aug_28_1638,exp1,2021.2.3,59.99847601313559,
,,,,,,,,,,,,,,,,3,9.5,10,10.5,0,0,0.5,0.4,0.1,1.1,10,initial,36.05,342,361,379,0,0,9,9,9,0,0,,,,,4,0,4,0,0,48,48,0,,,,,num_3,0.75514879997354,num_3,0.2,1,0.05000000000000002,0.7,1.80215,25.23005,return,1.6035478999838233,,,,,,,11,23,female,left_right_width,2023_Aug_28_1638,exp1,2021.2.3,59.99847601313559,
,,,,,,,,,,,,,,,,5,9.25,9.625,10,10.375,10.75,0.375,0.275,0.1,1.6,10,match,36.05,333,347,361,374,388,9,9,9,9,9,,,,,4,0,4,0,0,49,49,19,,,,,num_4,1.2647564000217244,num_4,0.45,1.2,0.05000000000000007,0.7,1.80215,25.23005,return,2.654011500068009,,,,,,,11,23,female,left_right_width,2023_Aug_28_1638,exp1,2021.2.3,59.99847601313559,
,,,,,,,,,,,,,,,,5,9,9.5,10,10.5,11,0.5,0.4,0.1,2.1,10,initial,36.05,324,342,361,379,397,9,9,9,9,9,,,,,4,0,4,0,0,50,50,36,,,,,num_6,0.7740248000482097,num_6,0.45,1.0,0.05000000000000007,0.6,1.80215,21.62576,return,2.1026059000287205,,,,,,,11,23,female,left_right_width,2023_Aug_28_1638,exp1,2021.2.3,59.99847601313559,
,,,,,,,,,,,,,,,,3,9,10,11,0,0,1,0.9,0.1,2.1,10,match,36.05,324,361,397,0,0,9,9,9,0,0,,,,,4,0,4,0,0,51,51,37,,,,,num_3,0.718737700022757,num_3,0.35,1.3,0.05000000000000002,1.2,1.80215,43.25151,return,2.0468152000103146,,,,,,,11,23,female,left_right_width,2023_Aug_28_1638,exp1,2021.2.3,59.99847601313559,
,,,,,,,,,,,,,,,,4,8.65,9.55,10.45,11.35,0,0.9,0.65,0.25,2.95,10,initial,36.05,312,344,377,409,0,9,9,9,9,0,,,,,4,0,4,0,0,52,52,32,,,,,num_5,0.8332870000740513,num_5,0.2,1.0,0.2,1.05,7.20859,37.84507,return,1.8707092999247834,,,,,,,11,23,female,left_right_width,2023_Aug_28_1638,exp1,2021.2.3,59.99847601313559,
,,,,,,,,,,,,,,,,5,9,9.5,10,10.5,11,0.5,0.25,0.25,2.25,10,initial,36.05,324,342,361,379,397,9,9,9,9,9,,,,,4,0,4,0,0,53,53,38,,,,,num_7,1.0832864999538288,num_7,0.35,0.5,0.15000000000000002,0.65,5.40644,23.4279,return,2.3991884000133723,,,,,,,11,23,female,left_right_width,2023_Aug_28_1638,exp1,2021.2.3,59.99847601313559,
,,,,,,,,,,,,,,,,,,,,,,,,,,,,,,,,,,,,,,,,,,,4,0,4,0,,,,,,,,,,,,,,,,,,,,,,2136.030110599939,None,2136.030110599939,None,11,23,female,left_right_width,2023_Aug_28_1638,exp1,2021.2.3,59.99847601313559,
,,,,,,,,,,,,,,,,5,9,9.5,10,10.5,11,0.5,0.25,0.25,2.25,10,initial,36.05,324,342,361,379,397,9,9,9,9,9,,,,,5,0,5,0,0,0,0,38,,,,,num_4,214.52771390008274,num_4,0.4,0.8,0.20000000000000007,0.9,7.20859,32.43864,return,4.170838700025342,,,,,,,11,23,female,left_right_width,2023_Aug_28_1638,exp1,2021.2.3,59.99847601313559,
,,,,,,,,,,,,,,,,3,8.6,10,11.4,0,0,1.4,1.2999999999999998,0.1,2.9,10,match,36.05,310,361,411,0,0,9,9,9,0,0,,,,,5,0,5,0,0,1,1,43,,,,,num_4,1.4193164999596775,num_4,0.4,1.0,0.15000000000000008,1.3,5.40644,46.85581,return,2.978358600055799,,,,,,,11,23,female,left_right_width,2023_Aug_28_1638,exp1,2021.2.3,59.99847601313559,
,,,,,,,,,,,,,,,,5,8.65,9.325,10,10.675,11.35,0.675,0.42500000000000004,0.25,2.95,10,match,36.05,312,336,361,385,409,9,9,9,9,9,,,,,5,0,5,0,0,2,2,33,,,,,num_6,0.8108673000242561,num_6,0.25,1.3,0.25,1.0,9.01073,36.04293,return,1.9302578000351787,,,,,,,11,23,female,left_right_width,2023_Aug_28_1638,exp1,2021.2.3,59.99847601313559,
,,,,,,,,,,,,,,,,4,9.25,9.75,10.25,10.75,0,0.5,0.09999999999999998,0.4,1.9,10,initial,36.05,333,351,370,388,0,9,9,9,9,0,,,,,5,0,5,0,0,3,3,22,,,,,num_5,0.7927354999119416,num_5,0.3,0.4,0.3,0.6,10.81288,21.62576,return,1.7290183999575675,,,,,,,11,23,female,left_right_width,2023_Aug_28_1638,exp1,2021.2.3,59.99847601313559,
,,,,,,,,,,,,,,,,4,8.65,9.55,10.45,11.35,0,0.9,0.65,0.25,2.95,10,initial,36.05,312,344,377,409,0,9,9,9,9,0,,,,,5,0,5,0,0,4,4,32,,,,,num_5,0.6824557000072673,num_5,0.3,1.2,0.25,1.05,9.01073,37.84507,return,1.3902295000152662,,,,,,,11,23,female,left_right_width,2023_Aug_28_1638,exp1,2021.2.3,59.99847601313559,
,,,,,,,,,,,,,,,,5,8.95,9.475,10,10.525,11.05,0.525,0.275,0.25,2.35,10,match,36.05,323,342,361,379,398,9,9,9,9,9,,,,,5,0,5,0,0,5,5,27,,,,,num_6,0.727565300068818,num_6,0.2,0.9,0.25,0.6,9.01073,21.62576,return,2.05567939998582,,,,,,,11,23,female,left_right_width,2023_Aug_28_1638,exp1,2021.2.3,59.99847601313559,
,,,,,,,,,,,,,,,,4,9.1,9.7,10.3,10.9,0,0.6,0.5,0.1,1.9,10,match,36.05,328,350,371,393,0,9,9,9,9,0,,,,,5,0,5,0,0,6,6,13,,,,,num_4,0.7066236999817193,num_4,0.4,1.1,0.10000000000000007,0.9,3.60429,32.43864,return,2.6927924000192434,,,,,,,11,23,female,left_right_width,2023_Aug_28_1638,exp1,2021.2.3,59.99847601313559,
,,,,,,,,,,,,,,,,3,9,10,11,0,0,1,0.9,0.1,2.1,10,match,36.05,324,361,397,0,0,9,9,9,0,0,,,,,5,0,5,0,0,7,7,37,,,,,num_3,0.7524263999657705,num_3,0.25,0.7,0.15000000000000002,1.25,5.40644,45.05366,return,3.6803772998973727,,,,,,,11,23,female,left_right_width,2023_Aug_28_1638,exp1,2021.2.3,59.99847601313559,
,,,,,,,,,,,,,,,,3,9,10,11,0,0,0.9999999999999999,0.5999999999999999,0.4,2.4,10,match,36.05,324,361,397,0,0,9,9,9,0,0,,,,,5,0,5,0,0,8,8,41,,,,,num_4,0.7344073998974636,num_4,0.1,0.4,0.2,1.0,7.20859,36.04293,return,2.1925393999554217,,,,,,,11,23,female,left_right_width,2023_Aug_28_1638,exp1,2021.2.3,59.99847601313559,
,,,,,,,,,,,,,,,,5,9.25,9.625,10,10.375,10.75,0.375,0.125,0.25,1.75,10,match,36.05,333,347,361,374,388,9,9,9,9,9,,,,,5,0,5,0,0,9,9,21,,,,,num_8,0.8435662999982014,num_8,0.1,1.1,0.15000000000000002,0.6,5.40644,21.62576,return,2.857618400012143,,,,,,,11,23,female,left_right_width,2023_Aug_28_1638,exp1,2021.2.3,59.99847601313559,
,,,,,,,,,,,,,,,,3,9.1,10,10.9,0,0,0.9,0.5,0.4,2.2,10,initial,36.05,328,361,393,0,0,9,9,9,0,0,,,,,5,0,5,0,0,10,10,16,,,,,num_3,0.7706473999423906,num_3,0.45,1.3,0.30000000000000004,1.05,10.81288,37.84507,return,2.051807399955578,,,,,,,11,23,female,left_right_width,2023_Aug_28_1638,exp1,2021.2.3,59.99847601313559,
,,,,,,,,,,,,,,,,3,8.2,10,11.8,0,0,1.8000000000000003,1.7000000000000002,0.1,3.7,10,match,36.05,296,361,425,0,0,9,9,9,0,0,,,,,5,0,5,0,0,11,11,49,,,,,num_4,1.4054563000099733,num_4,0.2,0.8,0.2,1.2,7.20859,43.25151,return,3.7812530000228435,,,,,,,11,23,female,left_right_width,2023_Aug_28_1638,exp1,2021.2.3,59.99847601313559,
,,,,,,,,,,,,,,,,3,9.1,10,10.9,0,0,0.9,0.65,0.25,2.05,10,initial,36.05,328,361,393,0,0,9,9,9,0,0,,,,,5,0,5,0,0,12,12,14,,,,,num_4,0.9955585999414325,num_4,0.3,1.1,0.2,0.9,7.20859,32.43864,return,1.2941037999698892,,,,,,,11,23,female,left_right_width,2023_Aug_28_1638,exp1,2021.2.3,59.99847601313559,
,,,,,,,,,,,,,,,,5,8.95,9.475,10,10.525,11.05,0.525,0.125,0.4,2.5,10,match,36.05,323,342,361,379,398,9,9,9,9,9,,,,,5,0,5,0,0,13,13,29,,,,,num_6,0.8955500000156462,num_6,0.1,1.2,0.3,0.7,10.81288,25.23005,return,3.6139295999892056,,,,,,,11,23,female,left_right_width,2023_Aug_28_1638,exp1,2021.2.3,59.99847601313559,
,,,,,,,,,,,,,,,,4,9.25,9.75,10.25,10.75,0,0.5,0.4,0.1,1.6,10,initial,36.05,333,351,370,388,0,9,9,9,9,0,,,,,5,0,5,0,0,14,14,18,,,,,num_5,0.8189566000364721,num_5,0.1,0.9,0.15000000000000002,0.7,5.40644,25.23005,return,2.7680857999948785,,,,,,,11,23,female,left_right_width,2023_Aug_28_1638,exp1,2021.2.3,59.99847601313559,
,,,,,,,,,,,,,,,,5,9,9.5,10,10.5,11,0.5,0.4,0.1,2.1,10,initial,36.05,324,342,361,379,397,9,9,9,9,9,,,,,5,0,5,0,0,15,15,36,,,,,num_6,0.8194989000912756,num_6,0.4,0.7,0.10000000000000007,0.6,3.60429,21.62576,return,2.6881245999829844,,,,,,,11,23,female,left_right_width,2023_Aug_28_1638,exp1,2021.2.3,59.99847601313559,
,,,,,,,,,,,,,,,,5,8.6,9.3,10,10.7,11.4,0.7,0.29999999999999993,0.4,3.1999999999999997,10,initial,36.05,310,335,361,386,411,9,9,9,9,9,,,,,5,0,5,0,0,16,16,46,,,,,num_6,0.9499337000306696,num_6,0.35,0.5,0.2,0.8,7.20859,28.83434,return,3.727550300071016,,,,,,,11,23,female,left_right_width,2023_Aug_28_1638,exp1,2021.2.3,59.99847601313559,
,,,,,,,,,,,,,,,,5,8.2,9.1,10,10.9,11.8,0.9,0.65,0.25,3.85,10,initial,36.05,296,328,361,393,425,9,9,9,9,9,,,,,5,0,5,0,0,17,17,50,,,,,num_7,0.8288231999613345,num_7,0.4,1.3,0.20000000000000007,0.85,7.20859,30.63649,return,3.674409200088121,,,,,,,11,23,female,left_right_width,2023_Aug_28_1638,exp1,2021.2.3,59.99847601313559,
,,,,,,,,,,,,,,,,3,9.5,10,10.5,0,0,0.5,0.4,0.1,1.1,10,initial,36.05,342,361,379,0,0,9,9,9,0,0,,,,,5,0,5,0,0,18,18,0,,,,,num_3,0.7179962999653071,num_3,0.45,1,0.15000000000000008,0.8,5.40644,28.83434,return,2.138034699950367,,,,,,,11,23,female,left_right_width,2023_Aug_28_1638,exp1,2021.2.3,59.99847601313559,
,,,,,,,,,,,,,,,,4,9.5,9.833333333333334,10.166666666666666,10.5,0,0.33333333333333337,0.23333333333333336,0.1,1.1,10,match,36.05,342,354,367,379,0,9,9,9,9,0,,,,,5,0,5,0,0,19,19,1,,,,,num_4,0.8018587999977171,num_4,0.35,0.6,0.10000000000000002,0.3,3.60429,10.81288,return,2.0334536000154912,,,,,,,11,23,female,left_right_width,2023_Aug_28_1638,exp1,2021.2.3,59.99847601313559,
,,,,,,,,,,,,,,,,3,9.3,10,10.7,0,0,0.7,0.44999999999999996,0.25,1.65,10,initial,36.05,335,361,386,0,0,9,9,9,0,0,,,,,5,0,5,0,0,20,20,8,,,,,num_3,1.8301709000952542,num_3,0.3,0.5,0.15000000000000002,0.55,5.40644,19.82361,return,2.0284690000116825,,,,,,,11,23,female,left_right_width,2023_Aug_28_1638,exp1,2021.2.3,59.99847601313559,
,,,,,,,,,,,,,,,,4,8.95,9.65,10.35,11.05,0,0.7,0.6,0.1,2.1999999999999997,10,initial,36.05,323,348,373,398,0,9,9,9,9,0,,,,,5,0,5,0,0,21,21,24,,,,,num_5,0.7493752000154927,num_5,0.1,0.9,0.15000000000000002,0.8,5.40644,28.83434,return,2.671762999962084,,,,,,,11,23,female,left_right_width,2023_Aug_28_1638,exp1,2021.2.3,59.99847601313559,
