amount_p,posx1_p,posx2_p,posx3_p,posx4_p,posx5_p,center_to_center_p,edge_to_edge_p,w_p,stim_lengt_p,eccentricity_p,line1_p,line2_p,line3_p,line4_p,line5_p,amount,posx1,posx2,posx3,posx4,posx5,center_to_center,edge_to_edge,w,stim_length,eccentricity,trial_type,deg_to_pix_index,posx1_in_pix,posx2_in_pix,posx3_in_pix,posx4_in_pix,posx5_in_pix,line1,line2,line3,line4,line5,trials.thisRepN,trials.thisTrialN,trials.thisN,trials.thisIndex,blocks.thisRepN,blocks.thisTrialN,blocks.thisN,blocks.thisIndex,loop.thisRepN,loop.thisTrialN,loop.thisN,loop.thisIndex,key_resp_3.keys,key_resp_3.rt,key_resp_3.started,key_resp_3.stopped,key_resp.keys,key_resp.rt,response,starting_width_deg,starting_space_deg,response_width_degree,response_spacing_degree,response_width_pixel,response_spacing_pixel,next_5.keys,next_5.rt,key_resp_4.keys,key_resp_4.rt,text_3.started,text_3.stopped,text_4.started,text_4.stopped,participant,age,gender,resp_group,date,expName,psychopyVersion,frameRate,
,,,,,,,,,,,,,,,,,,,,,,,,,,,,,,,,,,,,,,,,,,,,,,,,,,,c,130.46692809998058,484.01941389997955,None,,,,,,,,,,,,,,,,,,12,22,female,up_down_width,2023_Aug_28_1742,exp1,2021.2.3,59.98681490941918,
5,9.25,9.625,10,10.375,10.75,0.375,0.125,0.25,1.75,10,9,9,9,9,9,,,,,,,,,,,,,,,,,,,,,,,,0,0,0,6,,,,,,,,,,,,,num_5,3.2242126999190077,num_5,0.35,0.9,0.10000000000000002,0.55,3.60429,19.82361,return,12.195516099920496,,,,,,,12,22,female,up_down_width,2023_Aug_28_1742,exp1,2021.2.3,59.98681490941918,
3,9.5,10,10.5,0,0,0.5,0.4,0.1,1.1,10,9,9,9,0,0,,,,,,,,,,,,,,,,,,,,,,,,0,1,1,0,,,,,,,,,,,,,num_3,2.3567905999952927,num_3,0.35,0.6,0.10000000000000002,0.35,3.60429,12.61502,return,7.348356900038198,,,,,,,12,22,female,up_down_width,2023_Aug_28_1742,exp1,2021.2.3,59.98681490941918,
4,9.25,9.75,10.25,10.75,0,0.5,0.25,0.25,1.75,10,9,9,9,9,0,,,,,,,,,,,,,,,,,,,,,,,,0,2,2,4,,,,,,,,,,,,,num_4,2.076423199963756,num_4,0.15,0.5,0.2,0.5,7.20859,18.02146,return,4.871681099990383,,,,,,,12,22,female,up_down_width,2023_Aug_28_1742,exp1,2021.2.3,59.98681490941918,
5,8.6,9.3,10,10.7,11.4,0.7,0.29999999999999993,0.4,3.1999999999999997,10,9,9,9,9,9,,,,,,,,,,,,,,,,,,,,,,,,0,3,3,7,,,,,,,,,,,,,num_5,1.7995965000009164,num_5,0.4,0.6,0.30000000000000004,0.6,10.81288,21.62576,return,8.998141200048849,,,,,,,12,22,female,up_down_width,2023_Aug_28_1742,exp1,2021.2.3,59.98681490941918,
4,9.5,9.833333333333334,10.166666666666666,10.5,0,0.33333333333333337,0.23333333333333336,0.1,1.1,10,9,9,9,9,0,,,,,,,,,,,,,,,,,,,,,,,,0,4,4,3,,,,,,,,,,,,,num_5,1.751491800067015,num_5,0.1,0.4,0.1,0.4,3.60429,14.41717,return,1.5824300999520347,,,,,,,12,22,female,up_down_width,2023_Aug_28_1742,exp1,2021.2.3,59.98681490941918,
3,8.2,10,11.8,0,0,1.7999999999999998,1.4,0.4,4,10,9,9,9,0,0,,,,,,,,,,,,,,,,,,,,,,,,0,5,5,2,,,,,,,,,,,,,num_3,1.7106957999058068,num_3,0.2,0.5,0.2,0.8,7.20859,28.83434,return,7.848236700054258,,,,,,,12,22,female,up_down_width,2023_Aug_28_1742,exp1,2021.2.3,59.98681490941918,
3,9,10,11,0,0,1,0.9,0.1,2.1,10,9,9,9,0,0,,,,,,,,,,,,,,,,,,,,,,,,0,6,6,1,,,,,,,,,,,,,num_4,1.951408400083892,num_4,0.25,0.6,0.10000000000000002,0.9,3.60429,32.43864,return,4.48073009995278,,,,,,,12,22,female,up_down_width,2023_Aug_28_1742,exp1,2021.2.3,59.98681490941918,
4,8.65,9.55,10.45,11.35,0,0.9,0.5,0.4,3.1,10,9,9,9,9,0,,,,,,,,,,,,,,,,,,,,,,,,0,7,7,5,,,,,,,,,,,,,num_4,1.6522233000723645,num_4,0.15,1.0,0.25,0.9,9.01073,32.43864,return,5.825240399921313,,,,,,,12,22,female,up_down_width,2023_Aug_28_1742,exp1,2021.2.3,59.98681490941918,
5,9,9.5,10,10.5,11,0.5,0.09999999999999998,0.4,2.4,10,9,9,9,9,9,,,,,,,,,,,,,,,,,,,,,,,,0,8,8,8,,,,,,,,,,,,,num_5,1.6202795000281185,num_5,0.3,1.1,0.3,0.7,10.81288,25.23005,return,6.913909700000659,,,,,,,12,22,female,up_down_width,2023_Aug_28_1742,exp1,2021.2.3,59.98681490941918,
,,,,,,,,,,,,,,,,,,,,,,,,,,,,,,,,,,,,,,,,,,,,,,,,,,,,,,,,,,,,,,,,,,c,88.53960030002054,,,,,12,22,female,up_down_width,2023_Aug_28_1742,exp1,2021.2.3,59.98681490941918,
,,,,,,,,,,,,,,,,5,8.6,9.3,10,10.7,11.4,0.7,0.6,0.1,2.9,10,initial,36.05,310,335,361,386,411,9,9,9,9,9,,,,,0,0,0,0,0,0,0,42,,,,,num_4,1.5415705000050366,num_4,0.15,0.4,0.09999999999999999,0.7,3.60429,25.23005,return,4.917943600099534,,,,,,,12,22,female,up_down_width,2023_Aug_28_1742,exp1,2021.2.3,59.98681490941918,
,,,,,,,,,,,,,,,,4,8.65,9.55,10.45,11.35,0,0.9,0.8,0.1,2.8000000000000003,10,initial,36.05,312,344,377,409,0,9,9,9,9,0,,,,,0,0,0,0,0,1,1,30,,,,,num_4,1.7178837000392377,num_4,0.35,1.0,0.10000000000000002,0.9,3.60429,32.43864,return,9.181100200046785,,,,,,,12,22,female,up_down_width,2023_Aug_28_1742,exp1,2021.2.3,59.98681490941918,
,,,,,,,,,,,,,,,,3,8.2,10,11.8,0,0,1.8000000000000003,1.7000000000000002,0.1,3.7,10,match,36.05,296,361,425,0,0,9,9,9,0,0,,,,,0,0,0,0,0,2,2,49,,,,,num_3,1.8736579000251368,num_3,0.45,1.1,0.10000000000000007,1.25,3.60429,45.05366,return,5.668681699899025,,,,,,,12,22,female,up_down_width,2023_Aug_28_1742,exp1,2021.2.3,59.98681490941918,
,,,,,,,,,,,,,,,,4,9.1,9.7,10.3,10.9,0,0.6000000000000001,0.20000000000000004,0.4,2.2,10,match,36.05,328,350,371,393,0,9,9,9,9,0,,,,,0,0,0,0,0,3,3,17,,,,,num_4,3.1897401999449357,num_4,0.2,0.3,0.25,0.6,9.01073,21.62576,return,4.62877860001754,,,,,,,12,22,female,up_down_width,2023_Aug_28_1742,exp1,2021.2.3,59.98681490941918,
,,,,,,,,,,,,,,,,5,8.95,9.475,10,10.525,11.05,0.525,0.125,0.4,2.5,10,match,36.05,323,342,361,379,398,9,9,9,9,9,,,,,0,0,0,0,0,4,4,29,,,,,num_4,1.644486099947244,num_4,0.1,0.6,0.39999999999999997,0.8,14.41717,28.83434,return,6.120401300024241,,,,,,,12,22,female,up_down_width,2023_Aug_28_1742,exp1,2021.2.3,59.98681490941918,
,,,,,,,,,,,,,,,,5,9,9.5,10,10.5,11,0.5,0.25,0.25,2.25,10,initial,36.05,324,342,361,379,397,9,9,9,9,9,,,,,0,0,0,0,0,5,5,38,,,,,num_5,2.1298897999804467,num_5,0.15,0.5,0.2,0.5,7.20859,18.02146,return,6.410955799976364,,,,,,,12,22,female,up_down_width,2023_Aug_28_1742,exp1,2021.2.3,59.98681490941918,
,,,,,,,,,,,,,,,,3,9.5,10,10.5,0,0,0.5,0.09999999999999998,0.4,1.4000000000000001,10,initial,36.05,342,361,379,0,0,9,9,9,0,0,,,,,0,0,0,0,0,6,6,4,,,,,num_3,2.068170399987139,num_3,0.3,1.2,0.3,0.8,10.81288,28.83434,return,4.908562400029041,,,,,,,12,22,female,up_down_width,2023_Aug_28_1742,exp1,2021.2.3,59.98681490941918,
,,,,,,,,,,,,,,,,4,9.3,9.766666666666667,10.233333333333333,10.7,0,0.4666666666666667,0.21666666666666665,0.25,1.65,10,match,36.05,335,352,369,386,0,9,9,9,9,0,,,,,0,0,0,0,0,7,7,9,,,,,num_4,2.3643347999313846,num_4,0.25,0.9,0.2,0.6,7.20859,21.62576,return,6.4118382999440655,,,,,,,12,22,female,up_down_width,2023_Aug_28_1742,exp1,2021.2.3,59.98681490941918,
,,,,,,,,,,,,,,,,5,8.65,9.325,10,10.675,11.35,0.6749999999999999,0.575,0.1,2.8,10,match,36.05,312,336,361,385,409,9,9,9,9,9,,,,,0,0,0,0,0,8,8,31,,,,,num_4,1.8972427000990137,num_4,0.2,0.8,0.10000000000000002,1.2,3.60429,43.25151,return,3.7391361000481993,,,,,,,12,22,female,up_down_width,2023_Aug_28_1742,exp1,2021.2.3,59.98681490941918,
,,,,,,,,,,,,,,,,4,9.5,9.833333333333334,10.166666666666666,10.5,0,0.33333333333333337,0.23333333333333336,0.1,1.1,10,match,36.05,342,354,367,379,0,9,9,9,9,0,,,,,0,0,0,0,0,9,9,1,,,,,num_4,1.8789926999015734,num_4,0.1,0.6,0.1,0.4,3.60429,14.41717,return,4.80938269989565,,,,,,,12,22,female,up_down_width,2023_Aug_28_1742,exp1,2021.2.3,59.98681490941918,
,,,,,,,,,,,,,,,,3,8.6,10,11.4,0,0,1.4,1.2999999999999998,0.1,2.9,10,match,36.05,310,361,411,0,0,9,9,9,0,0,,,,,0,0,0,0,0,10,10,43,,,,,num_3,1.5069396999897435,num_3,0.35,1.1,0.10000000000000002,1.1,3.60429,39.64722,return,3.3171281999675557,,,,,,,12,22,female,up_down_width,2023_Aug_28_1742,exp1,2021.2.3,59.98681490941918,
,,,,,,,,,,,,,,,,5,9.25,9.625,10,10.375,10.75,0.375,0.275,0.1,1.6,10,match,36.05,333,347,361,374,388,9,9,9,9,9,,,,,0,0,0,0,0,11,11,19,,,,,num_5,2.0138011999661103,num_5,0.3,1.3,0.15000000000000002,1.0,5.40644,36.04293,return,7.401749299955554,,,,,,,12,22,female,up_down_width,2023_Aug_28_1742,exp1,2021.2.3,59.98681490941918,
,,,,,,,,,,,,,,,,5,8.95,9.475,10,10.525,11.05,0.525,0.275,0.25,2.35,10,match,36.05,323,342,361,379,398,9,9,9,9,9,,,,,0,0,0,0,0,12,12,27,,,,,num_4,3.420886699925177,num_4,0.3,1.2,0.25,0.9,9.01073,32.43864,return,4.690270200022496,,,,,,,12,22,female,up_down_width,2023_Aug_28_1742,exp1,2021.2.3,59.98681490941918,
,,,,,,,,,,,,,,,,4,8.65,9.55,10.45,11.35,0,0.9,0.65,0.25,2.95,10,initial,36.05,312,344,377,409,0,9,9,9,9,0,,,,,0,0,0,0,0,13,13,32,,,,,num_4,1.485598500003107,num_4,0.15,0.8,0.15,0.8,5.40644,28.83434,return,1.921321399975568,,,,,,,12,22,female,up_down_width,2023_Aug_28_1742,exp1,2021.2.3,59.98681490941918,
,,,,,,,,,,,,,,,,3,8.6,10,11.4,0,0,1.4,1.15,0.25,3.05,10,match,36.05,310,361,411,0,0,9,9,9,0,0,,,,,0,0,0,0,0,14,14,45,,,,,num_4,1.5845197000307962,num_4,0.35,0.7,0.10000000000000002,0.6,3.60429,21.62576,return,6.333928000065498,,,,,,,12,22,female,up_down_width,2023_Aug_28_1742,exp1,2021.2.3,59.98681490941918,
,,,,,,,,,,,,,,,,4,9.1,9.7,10.3,10.9,0,0.5999999999999999,0.3499999999999999,0.25,2.05,10,match,36.05,328,350,371,393,0,9,9,9,9,0,,,,,0,0,0,0,0,15,15,15,,,,,num_4,1.856918100034818,num_4,0.15,1.3,0.15,0.7,5.40644,25.23005,return,4.020374600077048,,,,,,,12,22,female,up_down_width,2023_Aug_28_1742,exp1,2021.2.3,59.98681490941918,
,,,,,,,,,,,,,,,,4,9.1,9.7,10.3,10.9,0,0.6,0.5,0.1,1.9,10,match,36.05,328,350,371,393,0,9,9,9,9,0,,,,,0,0,0,0,0,16,16,13,,,,,num_4,1.83155430003535,num_4,0.15,0.4,0.05000000000000002,0.5,1.80215,18.02146,return,5.420591300004162,,,,,,,12,22,female,up_down_width,2023_Aug_28_1742,exp1,2021.2.3,59.98681490941918,
,,,,,,,,,,,,,,,,5,8.6,9.3,10,10.7,11.4,0.7,0.44999999999999996,0.25,3.05,10,initial,36.05,310,335,361,386,411,9,9,9,9,9,,,,,0,0,0,0,0,17,17,44,,,,,num_5,1.4250776999397203,num_5,0.3,1.0,0.15000000000000002,0.8,5.40644,28.83434,return,4.566252599935979,,,,,,,12,22,female,up_down_width,2023_Aug_28_1742,exp1,2021.2.3,59.98681490941918,
,,,,,,,,,,,,,,,,3,9.5,10,10.5,0,0,0.5,0.25,0.25,1.25,10,initial,36.05,342,361,379,0,0,9,9,9,0,0,,,,,0,0,0,0,0,18,18,2,,,,,num_3,1.4049024999840185,num_3,0.3,1,0.2,0.85,7.20859,30.63649,return,3.2664479999803007,,,,,,,12,22,female,up_down_width,2023_Aug_28_1742,exp1,2021.2.3,59.98681490941918,
,,,,,,,,,,,,,,,,4,9.25,9.75,10.25,10.75,0,0.5,0.09999999999999998,0.4,1.9,10,initial,36.05,333,351,370,388,0,9,9,9,9,0,,,,,0,0,0,0,0,19,19,22,,,,,num_4,4.279730999958701,num_4,0.25,0.4,0.25,0.5,9.01073,18.02146,return,5.6107225000159815,,,,,,,12,22,female,up_down_width,2023_Aug_28_1742,exp1,2021.2.3,59.98681490941918,
,,,,,,,,,,,,,,,,3,9,10,11,0,0,0.9999999999999999,0.5999999999999999,0.4,2.4,10,match,36.05,324,361,397,0,0,9,9,9,0,0,,,,,0,0,0,0,0,20,20,41,,,,,num_3,2.5617659999988973,num_3,0.1,0.4,0.25,0.45,9.01073,16.21932,return,5.128673700033687,,,,,,,12,22,female,up_down_width,2023_Aug_28_1742,exp1,2021.2.3,59.98681490941918,
,,,,,,,,,,,,,,,,5,8.95,9.475,10,10.525,11.05,0.525,0.42500000000000004,0.1,2.2,10,match,36.05,323,342,361,379,398,9,9,9,9,9,,,,,0,0,0,0,0,21,21,25,,,,,num_4,2.565396699937992,num_4,0.2,0.3,0.15000000000000002,0.7,5.40644,25.23005,return,5.965670600067824,,,,,,,12,22,female,up_down_width,2023_Aug_28_1742,exp1,2021.2.3,59.98681490941918,
,,,,,,,,,,,,,,,,3,9.1,10,10.9,0,0,0.9,0.65,0.25,2.05,10,initial,36.05,328,361,393,0,0,9,9,9,0,0,,,,,0,0,0,0,0,22,22,14,,,,,num_3,1.6400126999942586,num_3,0.4,0.9,0.20000000000000007,0.85,7.20859,30.63649,return,4.549316900083795,,,,,,,12,22,female,up_down_width,2023_Aug_28_1742,exp1,2021.2.3,59.98681490941918,
,,,,,,,,,,,,,,,,3,8.525,10,11.475,0,0,1.475,1.225,0.25,3.2,10,match,36.05,307,361,414,0,0,9,9,9,0,0,,,,,0,0,0,0,0,23,23,47,,,,,num_3,2.5402892000274733,num_3,0.1,0.8,0.25,0.85,9.01073,30.63649,return,5.158543199999258,,,,,,,12,22,female,up_down_width,2023_Aug_28_1742,exp1,2021.2.3,59.98681490941918,
,,,,,,,,,,,,,,,,5,8.2,9.1,10,10.9,11.8,0.9,0.5,0.4,4,10,initial,36.05,296,328,361,393,425,9,9,9,9,9,,,,,0,0,0,0,0,24,24,52,,,,,num_5,1.9663397000404075,num_5,0.45,0.7,0.15000000000000008,0.7,5.40644,25.23005,return,6.606133599998429,,,,,,,12,22,female,up_down_width,2023_Aug_28_1742,exp1,2021.2.3,59.98681490941918,
,,,,,,,,,,,,,,,,4,9.5,9.833333333333334,10.166666666666666,10.5,0,0.3333333333333333,0.08333333333333333,0.25,1.25,10,match,36.05,342,354,367,379,0,9,9,9,9,0,,,,,0,0,0,0,0,25,25,3,,,,,num_3,4.886155599961057,num_3,0.35,1.1,0.3,0.6,10.81288,21.62576,return,6.494412200059742,,,,,,,12,22,female,up_down_width,2023_Aug_28_1742,exp1,2021.2.3,59.98681490941918,
,,,,,,,,,,,,,,,,4,9.3,9.766666666666667,10.233333333333333,10.7,0,0.4666666666666667,0.06666666666666665,0.4,1.8,10,match,36.05,335,352,369,386,0,9,9,9,9,0,,,,,0,0,0,0,0,26,26,11,,,,,num_3,2.1181758999591693,num_3,0.45,1.3,0.35000000000000003,0.6,12.61502,21.62576,return,6.623405599966645,,,,,,,12,22,female,up_down_width,2023_Aug_28_1742,exp1,2021.2.3,59.98681490941918,
,,,,,,,,,,,,,,,,3,9.1,10,10.9,0,0,0.9,0.8,0.1,1.9000000000000001,10,initial,36.05,328,361,393,0,0,9,9,9,0,0,,,,,0,0,0,0,0,27,27,12,,,,,num_3,3.422126399935223,num_3,0.4,0.5,0.15000000000000008,0.45,5.40644,16.21932,return,7.442294599954039,,,,,,,12,22,female,up_down_width,2023_Aug_28_1742,exp1,2021.2.3,59.98681490941918,
,,,,,,,,,,,,,,,,3,9.3,10,10.7,0,0,0.7,0.29999999999999993,0.4,1.8,10,initial,36.05,335,361,386,0,0,9,9,9,0,0,,,,,0,0,0,0,0,28,28,10,,,,,num_3,1.8433111000340432,num_3,0.1,0.6,0.39999999999999997,0.6,14.41717,21.62576,return,5.399880799930543,,,,,,,12,22,female,up_down_width,2023_Aug_28_1742,exp1,2021.2.3,59.98681490941918,
,,,,,,,,,,,,,,,,3,8.2,10,11.8,0,0,1.7999999999999998,1.4,0.4,4,10,match,36.05,296,361,425,0,0,9,9,9,0,0,,,,,0,0,0,0,0,29,29,53,,,,,num_4,2.5249567999271676,num_4,0.3,1.0,0.3,1.0,10.81288,36.04293,return,3.0132728000171483,,,,,,,12,22,female,up_down_width,2023_Aug_28_1742,exp1,2021.2.3,59.98681490941918,
,,,,,,,,,,,,,,,,3,9.1,10,10.9,0,0,0.9,0.5,0.4,2.2,10,initial,36.05,328,361,393,0,0,9,9,9,0,0,,,,,0,0,0,0,0,30,30,16,,,,,num_4,4.30903510004282,num_4,0.3,0.6,0.25,0.6,9.01073,21.62576,return,7.075309899984859,,,,,,,12,22,female,up_down_width,2023_Aug_28_1742,exp1,2021.2.3,59.98681490941918,
,,,,,,,,,,,,,,,,4,8.95,9.65,10.35,11.05,0,0.7,0.29999999999999993,0.4,2.5,10,initial,36.05,323,348,373,398,0,9,9,9,9,0,,,,,0,0,0,0,0,31,31,28,,,,,num_4,1.4326387000037357,num_4,0.3,0.6,0.35,0.7,12.61502,25.23005,return,3.9802262000739574,,,,,,,12,22,female,up_down_width,2023_Aug_28_1742,exp1,2021.2.3,59.98681490941918,
,,,,,,,,,,,,,,,,4,8.95,9.65,10.35,11.05,0,0.7,0.44999999999999996,0.25,2.3499999999999996,10,initial,36.05,323,348,373,398,0,9,9,9,9,0,,,,,0,0,0,0,0,32,32,26,,,,,num_4,2.49837170005776,num_4,0.15,0.4,0.25,0.5,9.01073,18.02146,return,4.658467200002633,,,,,,,12,22,female,up_down_width,2023_Aug_28_1742,exp1,2021.2.3,59.98681490941918,
,,,,,,,,,,,,,,,,5,9.175,9.5875,10,10.4125,10.825,0.4125,0.16249999999999998,0.25,1.9,10,match,36.05,331,346,361,375,390,9,9,9,9,9,,,,,0,0,0,0,0,33,33,23,,,,,num_5,1.6237523999297991,num_5,0.4,1.2,0.25000000000000006,0.7,9.01073,25.23005,return,8.405769400065765,,,,,,,12,22,female,up_down_width,2023_Aug_28_1742,exp1,2021.2.3,59.98681490941918,
,,,,,,,,,,,,,,,,5,8.65,9.325,10,10.675,11.35,0.675,0.42500000000000004,0.25,2.95,10,match,36.05,312,336,361,385,409,9,9,9,9,9,,,,,0,0,0,0,0,34,34,33,,,,,num_6,2.2131029999582097,num_6,0.15,1.2,0.2,0.4,7.20859,14.41717,return,8.620448000030592,,,,,,,12,22,female,up_down_width,2023_Aug_28_1742,exp1,2021.2.3,59.98681490941918,
,,,,,,,,,,,,,,,,4,9.25,9.75,10.25,10.75,0,0.5,0.25,0.25,1.75,10,initial,36.05,333,351,370,388,0,9,9,9,9,0,,,,,0,0,0,0,0,35,35,20,,,,,num_5,1.5717183999950066,num_5,0.3,0.4,0.2,0.45,7.20859,16.21932,return,5.08926249993965,,,,,,,12,22,female,up_down_width,2023_Aug_28_1742,exp1,2021.2.3,59.98681490941918,
,,,,,,,,,,,,,,,,3,8.2,10,11.8,0,0,1.8,1.55,0.25,3.85,10,match,36.05,296,361,425,0,0,9,9,9,0,0,,,,,0,0,0,0,0,36,36,51,,,,,num_4,1.5923885999945924,num_4,0.25,0.7,0.25,0.7,9.01073,25.23005,return,2.134242699947208,,,,,,,12,22,female,up_down_width,2023_Aug_28_1742,exp1,2021.2.3,59.98681490941918,
,,,,,,,,,,,,,,,,3,9,10,11,0,0,1,0.75,0.25,2.25,10,match,36.05,324,361,397,0,0,9,9,9,0,0,,,,,0,0,0,0,0,37,37,39,,,,,num_4,3.0592311999062076,num_4,0.3,0.3,0.2,0.6,7.20859,21.62576,return,8.739932099939324,,,,,,,12,22,female,up_down_width,2023_Aug_28_1742,exp1,2021.2.3,59.98681490941918,
,,,,,,,,,,,,,,,,5,9,9.5,10,10.5,11,0.5,0.09999999999999998,0.4,2.4,10,initial,36.05,324,342,361,379,397,9,9,9,9,9,,,,,0,0,0,0,0,38,38,40,,,,,num_4,1.6663497999543324,num_4,0.35,1.1,0.25,0.5,9.01073,18.02146,return,5.854492299957201,,,,,,,12,22,female,up_down_width,2023_Aug_28_1742,exp1,2021.2.3,59.98681490941918,
,,,,,,,,,,,,,,,,5,8.6,9.3,10,10.7,11.4,0.7,0.29999999999999993,0.4,3.1999999999999997,10,initial,36.05,310,335,361,386,411,9,9,9,9,9,,,,,0,0,0,0,0,39,39,46,,,,,num_5,1.995673400000669,num_5,0.45,0.8,0.25000000000000006,0.65,9.01073,23.4279,return,10.969507199944928,,,,,,,12,22,female,up_down_width,2023_Aug_28_1742,exp1,2021.2.3,59.98681490941918,
,,,,,,,,,,,,,,,,4,8.95,9.65,10.35,11.05,0,0.7,0.6,0.1,2.1999999999999997,10,initial,36.05,323,348,373,398,0,9,9,9,9,0,,,,,0,0,0,0,0,40,40,24,,,,,num_4,1.334816100075841,num_4,0.4,0.8,0.15000000000000008,0.6,5.40644,21.62576,return,7.168185399961658,,,,,,,12,22,female,up_down_width,2023_Aug_28_1742,exp1,2021.2.3,59.98681490941918,
,,,,,,,,,,,,,,,,4,9.25,9.75,10.25,10.75,0,0.5,0.4,0.1,1.6,10,initial,36.05,333,351,370,388,0,9,9,9,9,0,,,,,0,0,0,0,0,41,41,18,,,,,num_4,1.1986911999993026,num_4,0.4,1.3,0.15000000000000008,0.5,5.40644,18.02146,return,9.741595900035463,,,,,,,12,22,female,up_down_width,2023_Aug_28_1742,exp1,2021.2.3,59.98681490941918,
,,,,,,,,,,,,,,,,4,9.425,9.808333333333334,10.191666666666666,10.575,0,0.3833333333333333,0.1333333333333333,0.25,1.4,10,match,36.05,340,354,367,381,0,9,9,9,9,0,,,,,0,0,0,0,0,42,42,5,,,,,num_4,1.803139999974519,num_4,0.25,1.3,0.25,0.5,9.01073,18.02146,return,4.288875799975358,,,,,,,12,22,female,up_down_width,2023_Aug_28_1742,exp1,2021.2.3,59.98681490941918,
,,,,,,,,,,,,,,,,5,9.25,9.625,10,10.375,10.75,0.375,0.125,0.25,1.75,10,match,36.05,333,347,361,374,388,9,9,9,9,9,,,,,0,0,0,0,0,43,43,21,,,,,num_5,1.5762266999809071,num_5,0.15,0.4,0.2,0.45,7.20859,16.21932,return,6.263669500011019,,,,,,,12,22,female,up_down_width,2023_Aug_28_1742,exp1,2021.2.3,59.98681490941918,
,,,,,,,,,,,,,,,,5,8.65,9.325,10,10.675,11.35,0.675,0.275,0.4,3.1,10,match,36.05,312,336,361,385,409,9,9,9,9,9,,,,,0,0,0,0,0,44,44,35,,,,,num_5,1.486318700015545,num_5,0.35,0.4,0.3,0.5,10.81288,18.02146,return,4.6566704999422655,,,,,,,12,22,female,up_down_width,2023_Aug_28_1742,exp1,2021.2.3,59.98681490941918,
,,,,,,,,,,,,,,,,5,8.2,9.1,10,10.9,11.8,0.9,0.65,0.25,3.85,10,initial,36.05,296,328,361,393,425,9,9,9,9,9,,,,,0,0,0,0,0,45,45,50,,,,,num_6,1.8015163000673056,num_6,0.2,1.1,0.15000000000000002,0.6,5.40644,21.62576,return,5.2151539999758825,,,,,,,12,22,female,up_down_width,2023_Aug_28_1742,exp1,2021.2.3,59.98681490941918,
,,,,,,,,,,,,,,,,3,9.5,10,10.5,0,0,0.5,0.4,0.1,1.1,10,initial,36.05,342,361,379,0,0,9,9,9,0,0,,,,,0,0,0,0,0,46,46,0,,,,,num_3,2.1370395000558347,num_3,0.1,0.6,0.15000000000000002,0.55,5.40644,19.82361,return,3.361680000089109,,,,,,,12,22,female,up_down_width,2023_Aug_28_1742,exp1,2021.2.3,59.98681490941918,
,,,,,,,,,,,,,,,,4,8.65,9.55,10.45,11.35,0,0.9,0.5,0.4,3.1,10,initial,36.05,312,344,377,409,0,9,9,9,9,0,,,,,0,0,0,0,0,47,47,34,,,,,num_4,1.6504457999253646,num_4,0.4,0.5,0.30000000000000004,0.7,10.81288,25.23005,return,3.8520471999654546,,,,,,,12,22,female,up_down_width,2023_Aug_28_1742,exp1,2021.2.3,59.98681490941918,
,,,,,,,,,,,,,,,,5,8.2,9.1,10,10.9,11.8,0.9,0.8,0.1,3.7,10,initial,36.05,296,328,361,393,425,9,9,9,9,9,,,,,0,0,0,0,0,48,48,48,,,,,num_5,1.5964985999744385,num_5,0.15,0.8,0.15,0.8,5.40644,28.83434,return,1.5140008999733254,,,,,,,12,22,female,up_down_width,2023_Aug_28_1742,exp1,2021.2.3,59.98681490941918,
,,,,,,,,,,,,,,,,3,9.3,10,10.7,0,0,0.7,0.6,0.1,1.5,10,initial,36.05,335,361,386,0,0,9,9,9,0,0,,,,,0,0,0,0,0,49,49,6,,,,,num_3,2.6395750999217853,num_3,0.1,1.2,0.1,1.05,3.60429,37.84507,return,5.684584399918094,,,,,,,12,22,female,up_down_width,2023_Aug_28_1742,exp1,2021.2.3,59.98681490941918,
,,,,,,,,,,,,,,,,3,9,10,11,0,0,1,0.9,0.1,2.1,10,match,36.05,324,361,397,0,0,9,9,9,0,0,,,,,0,0,0,0,0,50,50,37,,,,,num_2,3.6743702000239864,num_2,0.2,1.6,0.10000000000000002,1.6,3.60429,57.66869,return,3.6055665999883786,,,,,,,12,22,female,up_down_width,2023_Aug_28_1742,exp1,2021.2.3,59.98681490941918,
,,,,,,,,,,,,,,,,4,9.3,9.766666666666667,10.233333333333333,10.7,0,0.4666666666666667,0.3666666666666667,0.1,1.5,10,match,36.05,335,352,369,386,0,9,9,9,9,0,,,,,0,0,0,0,0,51,51,7,,,,,num_4,2.4883979000151157,num_4,0.35,1.1,0.10000000000000002,1.1,3.60429,39.64722,return,4.306605000048876,,,,,,,12,22,female,up_down_width,2023_Aug_28_1742,exp1,2021.2.3,59.98681490941918,
,,,,,,,,,,,,,,,,3,9.3,10,10.7,0,0,0.7,0.44999999999999996,0.25,1.65,10,initial,36.05,335,361,386,0,0,9,9,9,0,0,,,,,0,0,0,0,0,52,52,8,,,,,num_3,2.057730700005777,num_3,0.35,1.3,0.2,1.3,7.20859,46.85581,return,12.069132399978116,,,,,,,12,22,female,up_down_width,2023_Aug_28_1742,exp1,2021.2.3,59.98681490941918,
,,,,,,,,,,,,,,,,5,9,9.5,10,10.5,11,0.5,0.4,0.1,2.1,10,initial,36.05,324,342,361,379,397,9,9,9,9,9,,,,,0,0,0,0,0,53,53,36,,,,,num_4,1.5364794000051916,num_4,0.35,0.4,0.15000000000000002,0.8,5.40644,28.83434,return,4.240236400044523,,,,,,,12,22,female,up_down_width,2023_Aug_28_1742,exp1,2021.2.3,59.98681490941918,
,,,,,,,,,,,,,,,,,,,,,,,,,,,,,,,,,,,,,,,,,,,0,0,0,0,,,,,,,,,,,,,,,,,,,,,,1305.9567209999077,None,1305.9567209999077,None,12,22,female,up_down_width,2023_Aug_28_1742,exp1,2021.2.3,59.98681490941918,
,,,,,,,,,,,,,,,,4,8.65,9.55,10.45,11.35,0,0.9,0.8,0.1,2.8000000000000003,10,initial,36.05,312,344,377,409,0,9,9,9,9,0,,,,,1,0,1,0,0,0,0,30,,,,,num_4,1.3395701000699773,num_4,0.15,0.9,0.15,0.9,5.40644,32.43864,return,1.6622107999864966,,,,,,,12,22,female,up_down_width,2023_Aug_28_1742,exp1,2021.2.3,59.98681490941918,
,,,,,,,,,,,,,,,,3,9.1,10,10.9,0,0,0.9,0.8,0.1,1.9000000000000001,10,initial,36.05,328,361,393,0,0,9,9,9,0,0,,,,,1,0,1,0,0,1,1,12,,,,,num_6,1.3146880000131205,num_6,0.2,1.0,0.10000000000000002,0.8,3.60429,28.83434,return,8.619554799981415,,,,,,,12,22,female,up_down_width,2023_Aug_28_1742,exp1,2021.2.3,59.98681490941918,
,,,,,,,,,,,,,,,,4,9.5,9.833333333333334,10.166666666666666,10.5,0,0.3333333333333333,0.08333333333333333,0.25,1.25,10,match,36.05,342,354,367,379,0,9,9,9,9,0,,,,,1,0,1,0,0,2,2,3,,,,,num_4,1.5010335000697523,num_4,0.15,0.9,0.09999999999999999,0.6,3.60429,21.62576,return,8.86415969999507,,,,,,,12,22,female,up_down_width,2023_Aug_28_1742,exp1,2021.2.3,59.98681490941918,
,,,,,,,,,,,,,,,,3,8.2,10,11.8,0,0,1.8,1.55,0.25,3.85,10,match,36.05,296,361,425,0,0,9,9,9,0,0,,,,,1,0,1,0,0,3,3,51,,,,,num_4,1.5362902999622747,num_4,0.15,0.9,0.15,0.9,5.40644,32.43864,return,1.6812250000657514,,,,,,,12,22,female,up_down_width,2023_Aug_28_1742,exp1,2021.2.3,59.98681490941918,
,,,,,,,,,,,,,,,,3,9.1,10,10.9,0,0,0.9,0.5,0.4,2.2,10,initial,36.05,328,361,393,0,0,9,9,9,0,0,,,,,1,0,1,0,0,4,4,16,,,,,num_3,2.3530766000039876,num_3,0.1,0.6,0.2,0.65,7.20859,23.4279,return,5.836602999945171,,,,,,,12,22,female,up_down_width,2023_Aug_28_1742,exp1,2021.2.3,59.98681490941918,
,,,,,,,,,,,,,,,,5,8.6,9.3,10,10.7,11.4,0.7,0.29999999999999993,0.4,3.1999999999999997,10,initial,36.05,310,335,361,386,411,9,9,9,9,9,,,,,1,0,1,0,0,5,5,46,,,,,num_5,1.7488571999128908,num_5,0.2,1.0,0.2,0.9,7.20859,32.43864,return,2.668599499971606,,,,,,,12,22,female,up_down_width,2023_Aug_28_1742,exp1,2021.2.3,59.98681490941918,
,,,,,,,,,,,,,,,,5,8.6,9.3,10,10.7,11.4,0.7,0.44999999999999996,0.25,3.05,10,initial,36.05,310,335,361,386,411,9,9,9,9,9,,,,,1,0,1,0,0,6,6,44,,,,,num_5,1.3864257999230176,num_5,0.1,0.9,0.25,0.9,9.01073,32.43864,return,4.033075600047596,,,,,,,12,22,female,up_down_width,2023_Aug_28_1742,exp1,2021.2.3,59.98681490941918,
,,,,,,,,,,,,,,,,5,8.65,9.325,10,10.675,11.35,0.6749999999999999,0.575,0.1,2.8,10,match,36.05,312,336,361,385,409,9,9,9,9,9,,,,,1,0,1,0,0,7,7,31,,,,,num_5,1.853009199956432,num_5,0.2,0.7,0.10000000000000002,0.7,3.60429,25.23005,return,2.3660417000064626,,,,,,,12,22,female,up_down_width,2023_Aug_28_1742,exp1,2021.2.3,59.98681490941918,
,,,,,,,,,,,,,,,,3,9.3,10,10.7,0,0,0.7,0.6,0.1,1.5,10,initial,36.05,335,361,386,0,0,9,9,9,0,0,,,,,1,0,1,0,0,8,8,6,,,,,num_3,1.6149980999762192,num_3,0.45,0.6,0.10000000000000007,0.6,3.60429,21.62576,return,2.60104290000163,,,,,,,12,22,female,up_down_width,2023_Aug_28_1742,exp1,2021.2.3,59.98681490941918,
,,,,,,,,,,,,,,,,4,9.1,9.7,10.3,10.9,0,0.5999999999999999,0.3499999999999999,0.25,2.05,10,match,36.05,328,350,371,393,0,9,9,9,9,0,,,,,1,0,1,0,0,9,9,15,,,,,num_4,1.56979149999097,num_4,0.45,0.6,0.30000000000000004,0.7,10.81288,25.23005,return,3.2336439000209793,,,,,,,12,22,female,up_down_width,2023_Aug_28_1742,exp1,2021.2.3,59.98681490941918,
,,,,,,,,,,,,,,,,4,8.95,9.65,10.35,11.05,0,0.7,0.29999999999999993,0.4,2.5,10,initial,36.05,323,348,373,398,0,9,9,9,9,0,,,,,1,0,1,0,0,10,10,28,,,,,num_4,1.384717799955979,num_4,0.25,0.5,0.2,0.6,7.20859,21.62576,return,4.091086500091478,,,,,,,12,22,female,up_down_width,2023_Aug_28_1742,exp1,2021.2.3,59.98681490941918,
,,,,,,,,,,,,,,,,3,9.1,10,10.9,0,0,0.9,0.65,0.25,2.05,10,initial,36.05,328,361,393,0,0,9,9,9,0,0,,,,,1,0,1,0,0,11,11,14,,,,,num_3,1.2863297000294551,num_3,0.3,0.6,0.25,0.8,9.01073,28.83434,return,4.289139700005762,,,,,,,12,22,female,up_down_width,2023_Aug_28_1742,exp1,2021.2.3,59.98681490941918,
,,,,,,,,,,,,,,,,4,9.25,9.75,10.25,10.75,0,0.5,0.25,0.25,1.75,10,initial,36.05,333,351,370,388,0,9,9,9,9,0,,,,,1,0,1,0,0,12,12,20,,,,,num_4,1.1904003000818193,num_4,0.15,0.9,0.3,0.9,10.81288,32.43864,return,2.5811540000140667,,,,,,,12,22,female,up_down_width,2023_Aug_28_1742,exp1,2021.2.3,59.98681490941918,
,,,,,,,,,,,,,,,,3,9.5,10,10.5,0,0,0.5,0.09999999999999998,0.4,1.4000000000000001,10,initial,36.05,342,361,379,0,0,9,9,9,0,0,,,,,1,0,1,0,0,13,13,4,,,,,num_3,2.3591017000144348,num_3,0.4,1.3,0.30000000000000004,0.7,10.81288,25.23005,return,5.574778700014576,,,,,,,12,22,female,up_down_width,2023_Aug_28_1742,exp1,2021.2.3,59.98681490941918,
,,,,,,,,,,,,,,,,5,8.2,9.1,10,10.9,11.8,0.9,0.8,0.1,3.7,10,initial,36.05,296,328,361,393,425,9,9,9,9,9,,,,,1,0,1,0,0,14,14,48,,,,,num_5,1.166837100056,num_5,0.3,0.5,0.15000000000000002,0.8,5.40644,28.83434,return,3.7268177999649197,,,,,,,12,22,female,up_down_width,2023_Aug_28_1742,exp1,2021.2.3,59.98681490941918,
,,,,,,,,,,,,,,,,3,8.6,10,11.4,0,0,1.4,1.15,0.25,3.05,10,match,36.05,310,361,411,0,0,9,9,9,0,0,,,,,1,0,1,0,0,15,15,45,,,,,num_3,6.541179099935107,num_3,0.45,1.1,0.30000000000000004,1.1,10.81288,39.64722,return,2.981925000087358,,,,,,,12,22,female,up_down_width,2023_Aug_28_1742,exp1,2021.2.3,59.98681490941918,
,,,,,,,,,,,,,,,,5,8.2,9.1,10,10.9,11.8,0.9,0.5,0.4,4,10,initial,36.05,296,328,361,393,425,9,9,9,9,9,,,,,1,0,1,0,0,16,16,52,,,,,num_5,1.8516326000681147,num_5,0.2,0.8,0.3,0.8,10.81288,28.83434,return,2.223406699951738,,,,,,,12,22,female,up_down_width,2023_Aug_28_1742,exp1,2021.2.3,59.98681490941918,
,,,,,,,,,,,,,,,,5,9,9.5,10,10.5,11,0.5,0.25,0.25,2.25,10,initial,36.05,324,342,361,379,397,9,9,9,9,9,,,,,1,0,1,0,0,17,17,38,,,,,num_4,2.496046100044623,num_4,0.25,1.3,0.2,0.6,7.20859,21.62576,return,4.681727400049567,,,,,,,12,22,female,up_down_width,2023_Aug_28_1742,exp1,2021.2.3,59.98681490941918,
,,,,,,,,,,,,,,,,4,8.65,9.55,10.45,11.35,0,0.9,0.5,0.4,3.1,10,initial,36.05,312,344,377,409,0,9,9,9,9,0,,,,,1,0,1,0,0,18,18,34,,,,,num_4,1.325808999943547,num_4,0.35,1.3,0.25,0.8,9.01073,28.83434,return,3.911132299923338,,,,,,,12,22,female,up_down_width,2023_Aug_28_1742,exp1,2021.2.3,59.98681490941918,
,,,,,,,,,,,,,,,,5,8.2,9.1,10,10.9,11.8,0.9,0.65,0.25,3.85,10,initial,36.05,296,328,361,393,425,9,9,9,9,9,,,,,1,0,1,0,0,19,19,50,,,,,num_6,1.415779999922961,num_6,0.35,0.6,0.15000000000000002,0.7,5.40644,25.23005,return,6.061891800025478,,,,,,,12,22,female,up_down_width,2023_Aug_28_1742,exp1,2021.2.3,59.98681490941918,
,,,,,,,,,,,,,,,,3,9.5,10,10.5,0,0,0.5,0.4,0.1,1.1,10,initial,36.05,342,361,379,0,0,9,9,9,0,0,,,,,1,0,1,0,0,20,20,0,,,,,num_4,2.1084552999818698,num_4,0.2,0.9,0.10000000000000002,0.6,3.60429,21.62576,return,4.818418800015934,,,,,,,12,22,female,up_down_width,2023_Aug_28_1742,exp1,2021.2.3,59.98681490941918,
,,,,,,,,,,,,,,,,4,9.425,9.808333333333334,10.191666666666666,10.575,0,0.3833333333333333,0.1333333333333333,0.25,1.4,10,match,36.05,340,354,367,381,0,9,9,9,9,0,,,,,1,0,1,0,0,21,21,5,,,,,num_3,2.2363304999889806,num_3,0.4,1,0.25000000000000006,0.85,9.01073,30.63649,return,2.985939000034705,,,,,,,12,22,female,up_down_width,2023_Aug_28_1742,exp1,2021.2.3,59.98681490941918,
,,,,,,,,,,,,,,,,5,9.25,9.625,10,10.375,10.75,0.375,0.275,0.1,1.6,10,match,36.05,333,347,361,374,388,9,9,9,9,9,,,,,1,0,1,0,0,22,22,19,,,,,num_5,3.3311970999930054,num_5,0.45,0.8,0.20000000000000007,0.7,7.20859,25.23005,return,5.771898400038481,,,,,,,12,22,female,up_down_width,2023_Aug_28_1742,exp1,2021.2.3,59.98681490941918,
,,,,,,,,,,,,,,,,5,9.175,9.5875,10,10.4125,10.825,0.4125,0.16249999999999998,0.25,1.9,10,match,36.05,331,346,361,375,390,9,9,9,9,9,,,,,1,0,1,0,0,23,23,23,,,,,num_4,1.5266543000470847,num_4,0.15,0.3,0.3,0.6,10.81288,21.62576,return,5.639997199992649,,,,,,,12,22,female,up_down_width,2023_Aug_28_1742,exp1,2021.2.3,59.98681490941918,
,,,,,,,,,,,,,,,,5,8.95,9.475,10,10.525,11.05,0.525,0.275,0.25,2.35,10,match,36.05,323,342,361,379,398,9,9,9,9,9,,,,,1,0,1,0,0,24,24,27,,,,,num_5,1.327118800021708,num_5,0.35,1.1,0.2,0.75,7.20859,27.0322,return,4.4084217000054196,,,,,,,12,22,female,up_down_width,2023_Aug_28_1742,exp1,2021.2.3,59.98681490941918,
,,,,,,,,,,,,,,,,4,8.95,9.65,10.35,11.05,0,0.7,0.44999999999999996,0.25,2.3499999999999996,10,initial,36.05,323,348,373,398,0,9,9,9,9,0,,,,,1,0,1,0,0,25,25,26,,,,,num_4,1.6052089999429882,num_4,0.25,1.0,0.15000000000000002,0.6,5.40644,21.62576,return,3.7944231000728905,,,,,,,12,22,female,up_down_width,2023_Aug_28_1742,exp1,2021.2.3,59.98681490941918,
,,,,,,,,,,,,,,,,5,8.65,9.325,10,10.675,11.35,0.675,0.275,0.4,3.1,10,match,36.05,312,336,361,385,409,9,9,9,9,9,,,,,1,0,1,0,0,26,26,35,,,,,num_5,1.502303299959749,num_5,0.2,0.3,0.2,0.55,7.20859,19.82361,return,3.0739482000935823,,,,,,,12,22,female,up_down_width,2023_Aug_28_1742,exp1,2021.2.3,59.98681490941918,
,,,,,,,,,,,,,,,,5,8.6,9.3,10,10.7,11.4,0.7,0.6,0.1,2.9,10,initial,36.05,310,335,361,386,411,9,9,9,9,9,,,,,1,0,1,0,0,27,27,42,,,,,num_5,1.3505440999288112,num_5,0.35,1.3,0.10000000000000002,1.2,3.60429,43.25151,return,6.399388900026679,,,,,,,12,22,female,up_down_width,2023_Aug_28_1742,exp1,2021.2.3,59.98681490941918,
,,,,,,,,,,,,,,,,5,8.95,9.475,10,10.525,11.05,0.525,0.125,0.4,2.5,10,match,36.05,323,342,361,379,398,9,9,9,9,9,,,,,1,0,1,0,0,28,28,29,,,,,num_5,2.07671749999281,num_5,0.45,1.2,0.25000000000000006,0.75,9.01073,27.0322,return,4.519762700074352,,,,,,,12,22,female,up_down_width,2023_Aug_28_1742,exp1,2021.2.3,59.98681490941918,
,,,,,,,,,,,,,,,,3,9.3,10,10.7,0,0,0.7,0.44999999999999996,0.25,1.65,10,initial,36.05,335,361,386,0,0,9,9,9,0,0,,,,,1,0,1,0,0,29,29,8,,,,,num_3,2.150464400066994,num_3,0.2,0.9,0.25,0.7,9.01073,25.23005,return,3.838792899972759,,,,,,,12,22,female,up_down_width,2023_Aug_28_1742,exp1,2021.2.3,59.98681490941918,
,,,,,,,,,,,,,,,,4,9.3,9.766666666666667,10.233333333333333,10.7,0,0.4666666666666667,0.3666666666666667,0.1,1.5,10,match,36.05,335,352,369,386,0,9,9,9,9,0,,,,,1,0,1,0,0,30,30,7,,,,,num_4,1.1445580000290647,num_4,0.3,0.7,0.15000000000000002,0.5,5.40644,18.02146,return,6.4564131000079215,,,,,,,12,22,female,up_down_width,2023_Aug_28_1742,exp1,2021.2.3,59.98681490941918,
,,,,,,,,,,,,,,,,3,9.5,10,10.5,0,0,0.5,0.25,0.25,1.25,10,initial,36.05,342,361,379,0,0,9,9,9,0,0,,,,,1,0,1,0,0,31,31,2,,,,,num_3,2.0576561000198126,num_3,0.4,1,0.30000000000000004,0.75,10.81288,27.0322,return,5.429807000095025,,,,,,,12,22,female,up_down_width,2023_Aug_28_1742,exp1,2021.2.3,59.98681490941918,
,,,,,,,,,,,,,,,,4,9.3,9.766666666666667,10.233333333333333,10.7,0,0.4666666666666667,0.06666666666666665,0.4,1.8,10,match,36.05,335,352,369,386,0,9,9,9,9,0,,,,,1,0,1,0,0,32,32,11,,,,,num_4,2.527932700002566,num_4,0.4,1.0,0.35000000000000003,0.6,12.61502,21.62576,return,3.3683550000423566,,,,,,,12,22,female,up_down_width,2023_Aug_28_1742,exp1,2021.2.3,59.98681490941918,
,,,,,,,,,,,,,,,,3,8.525,10,11.475,0,0,1.475,1.225,0.25,3.2,10,match,36.05,307,361,414,0,0,9,9,9,0,0,,,,,1,0,1,0,0,33,33,47,,,,,num_4,1.6894941999344155,num_4,0.2,0.7,0.15000000000000002,1.0,5.40644,36.04293,return,6.067882200004533,,,,,,,12,22,female,up_down_width,2023_Aug_28_1742,exp1,2021.2.3,59.98681490941918,
,,,,,,,,,,,,,,,,3,8.2,10,11.8,0,0,1.8000000000000003,1.7000000000000002,0.1,3.7,10,match,36.05,296,361,425,0,0,9,9,9,0,0,,,,,1,0,1,0,0,34,34,49,,,,,num_3,1.3110836000414565,num_3,0.1,1.3,0.1,1.8,3.60429,64.87727,return,3.590409600059502,,,,,,,12,22,female,up_down_width,2023_Aug_28_1742,exp1,2021.2.3,59.98681490941918,
,,,,,,,,,,,,,,,,3,8.6,10,11.4,0,0,1.4,1.2999999999999998,0.1,2.9,10,match,36.05,310,361,411,0,0,9,9,9,0,0,,,,,1,0,1,0,0,35,35,43,,,,,num_3,1.8625770999351516,num_3,0.4,0.5,0.10000000000000007,1.2,3.60429,43.25151,return,5.545884300023317,,,,,,,12,22,female,up_down_width,2023_Aug_28_1742,exp1,2021.2.3,59.98681490941918,
,,,,,,,,,,,,,,,,3,9.3,10,10.7,0,0,0.7,0.29999999999999993,0.4,1.8,10,initial,36.05,335,361,386,0,0,9,9,9,0,0,,,,,1,0,1,0,0,36,36,10,,,,,num_3,1.5980944000184536,num_3,0.15,1,0.35,0.95,12.61502,34.24078,return,5.1162994999904186,,,,,,,12,22,female,up_down_width,2023_Aug_28_1742,exp1,2021.2.3,59.98681490941918,
,,,,,,,,,,,,,,,,3,9,10,11,0,0,1,0.9,0.1,2.1,10,match,36.05,324,361,397,0,0,9,9,9,0,0,,,,,1,0,1,0,0,37,37,37,,,,,num_3,1.6092693000100553,num_3,0.3,0.8,0.15000000000000002,0.95,5.40644,34.24078,return,3.2391565000871196,,,,,,,12,22,female,up_down_width,2023_Aug_28_1742,exp1,2021.2.3,59.98681490941918,
,,,,,,,,,,,,,,,,5,9.25,9.625,10,10.375,10.75,0.375,0.125,0.25,1.75,10,match,36.05,333,347,361,374,388,9,9,9,9,9,,,,,1,0,1,0,0,38,38,21,,,,,num_4,1.320519500062801,num_4,0.35,1.0,0.3,0.8,10.81288,28.83434,return,3.7780734000261873,,,,,,,12,22,female,up_down_width,2023_Aug_28_1742,exp1,2021.2.3,59.98681490941918,
,,,,,,,,,,,,,,,,4,9.25,9.75,10.25,10.75,0,0.5,0.4,0.1,1.6,10,initial,36.05,333,351,370,388,0,9,9,9,9,0,,,,,1,0,1,0,0,39,39,18,,,,,num_4,1.371762599912472,num_4,0.4,1.1,0.20000000000000007,1.1,7.20859,39.64722,return,3.6660197000019252,,,,,,,12,22,female,up_down_width,2023_Aug_28_1742,exp1,2021.2.3,59.98681490941918,
,,,,,,,,,,,,,,,,4,9.1,9.7,10.3,10.9,0,0.6,0.5,0.1,1.9,10,match,36.05,328,350,371,393,0,9,9,9,9,0,,,,,1,0,1,0,0,40,40,13,,,,,num_4,1.2176386000355706,num_4,0.3,1.1,0.15000000000000002,1.1,5.40644,39.64722,return,3.4403245999710634,,,,,,,12,22,female,up_down_width,2023_Aug_28_1742,exp1,2021.2.3,59.98681490941918,
,,,,,,,,,,,,,,,,5,8.95,9.475,10,10.525,11.05,0.525,0.42500000000000004,0.1,2.2,10,match,36.05,323,342,361,379,398,9,9,9,9,9,,,,,1,0,1,0,0,41,41,25,,,,,num_5,1.1995507000247017,num_5,0.25,0.8,0.15000000000000002,0.8,5.40644,28.83434,return,2.141612800071016,,,,,,,12,22,female,up_down_width,2023_Aug_28_1742,exp1,2021.2.3,59.98681490941918,
,,,,,,,,,,,,,,,,3,9,10,11,0,0,0.9999999999999999,0.5999999999999999,0.4,2.4,10,match,36.05,324,361,397,0,0,9,9,9,0,0,,,,,1,0,1,0,0,42,42,41,,,,,num_4,1.39397450000979,num_4,0.3,0.6,0.2,0.8,7.20859,28.83434,return,4.196497999946587,,,,,,,12,22,female,up_down_width,2023_Aug_28_1742,exp1,2021.2.3,59.98681490941918,
,,,,,,,,,,,,,,,,3,8.2,10,11.8,0,0,1.7999999999999998,1.4,0.4,4,10,match,36.05,296,361,425,0,0,9,9,9,0,0,,,,,1,0,1,0,0,43,43,53,,,,,num_4,1.0182916999328882,num_4,0.45,0.5,0.30000000000000004,1.1,10.81288,39.64722,return,4.222690699971281,,,,,,,12,22,female,up_down_width,2023_Aug_28_1742,exp1,2021.2.3,59.98681490941918,
,,,,,,,,,,,,,,,,4,9.1,9.7,10.3,10.9,0,0.6000000000000001,0.20000000000000004,0.4,2.2,10,match,36.05,328,350,371,393,0,9,9,9,9,0,,,,,1,0,1,0,0,44,44,17,,,,,num_4,1.1124437999678776,num_4,0.2,0.9,0.3,0.8,10.81288,28.83434,return,5.720803200034425,,,,,,,12,22,female,up_down_width,2023_Aug_28_1742,exp1,2021.2.3,59.98681490941918,
,,,,,,,,,,,,,,,,4,9.3,9.766666666666667,10.233333333333333,10.7,0,0.4666666666666667,0.21666666666666665,0.25,1.65,10,match,36.05,335,352,369,386,0,9,9,9,9,0,,,,,1,0,1,0,0,45,45,9,,,,,num_4,1.8850099999690428,num_4,0.35,0.5,0.3,0.7,10.81288,25.23005,return,4.572454800014384,,,,,,,12,22,female,up_down_width,2023_Aug_28_1742,exp1,2021.2.3,59.98681490941918,
,,,,,,,,,,,,,,,,4,8.95,9.65,10.35,11.05,0,0.7,0.6,0.1,2.1999999999999997,10,initial,36.05,323,348,373,398,0,9,9,9,9,0,,,,,1,0,1,0,0,46,46,24,,,,,num_4,1.1051546999951825,num_4,0.15,1.0,0.15,1.0,5.40644,36.04293,return,1.044608100084588,,,,,,,12,22,female,up_down_width,2023_Aug_28_1742,exp1,2021.2.3,59.98681490941918,
,,,,,,,,,,,,,,,,5,8.65,9.325,10,10.675,11.35,0.675,0.42500000000000004,0.25,2.95,10,match,36.05,312,336,361,385,409,9,9,9,9,9,,,,,1,0,1,0,0,47,47,33,,,,,num_5,1.471955299959518,num_5,0.4,1.2,0.20000000000000007,0.95,7.20859,34.24078,return,4.515962800011039,,,,,,,12,22,female,up_down_width,2023_Aug_28_1742,exp1,2021.2.3,59.98681490941918,
,,,,,,,,,,,,,,,,4,9.25,9.75,10.25,10.75,0,0.5,0.09999999999999998,0.4,1.9,10,initial,36.05,333,351,370,388,0,9,9,9,9,0,,,,,1,0,1,0,0,48,48,22,,,,,num_4,1.1231273000594229,num_4,0.35,1.2,0.3,0.6,10.81288,21.62576,return,3.7807081000646576,,,,,,,12,22,female,up_down_width,2023_Aug_28_1742,exp1,2021.2.3,59.98681490941918,
,,,,,,,,,,,,,,,,4,8.65,9.55,10.45,11.35,0,0.9,0.65,0.25,2.95,10,initial,36.05,312,344,377,409,0,9,9,9,9,0,,,,,1,0,1,0,0,49,49,32,,,,,num_4,1.510610400000587,num_4,0.4,0.5,0.30000000000000004,0.9,10.81288,32.43864,return,3.448145900038071,,,,,,,12,22,female,up_down_width,2023_Aug_28_1742,exp1,2021.2.3,59.98681490941918,
,,,,,,,,,,,,,,,,5,9,9.5,10,10.5,11,0.5,0.4,0.1,2.1,10,initial,36.05,324,342,361,379,397,9,9,9,9,9,,,,,1,0,1,0,0,50,50,36,,,,,num_5,1.2640679999021813,num_5,0.3,1.0,0.2,0.8,7.20859,28.83434,return,2.7003819999517873,,,,,,,12,22,female,up_down_width,2023_Aug_28_1742,exp1,2021.2.3,59.98681490941918,
,,,,,,,,,,,,,,,,4,9.5,9.833333333333334,10.166666666666666,10.5,0,0.33333333333333337,0.23333333333333336,0.1,1.1,10,match,36.05,342,354,367,379,0,9,9,9,9,0,,,,,1,0,1,0,0,51,51,1,,,,,num_4,1.4328980999998748,num_4,0.1,0.9,0.15000000000000002,0.9,5.40644,32.43864,return,3.4371166999917477,,,,,,,12,22,female,up_down_width,2023_Aug_28_1742,exp1,2021.2.3,59.98681490941918,
,,,,,,,,,,,,,,,,5,9,9.5,10,10.5,11,0.5,0.09999999999999998,0.4,2.4,10,initial,36.05,324,342,361,379,397,9,9,9,9,9,,,,,1,0,1,0,0,52,52,40,,,,,num_4,1.2594873999478295,num_4,0.35,1.3,0.3,0.7,10.81288,25.23005,return,3.175860400078818,,,,,,,12,22,female,up_down_width,2023_Aug_28_1742,exp1,2021.2.3,59.98681490941918,
,,,,,,,,,,,,,,,,3,9,10,11,0,0,1,0.75,0.25,2.25,10,match,36.05,324,361,397,0,0,9,9,9,0,0,,,,,1,0,1,0,0,53,53,39,,,,,num_4,2.4436429000925273,num_4,0.3,0.6,0.2,0.8,7.20859,28.83434,return,4.5202696999767795,,,,,,,12,22,female,up_down_width,2023_Aug_28_1742,exp1,2021.2.3,59.98681490941918,
,,,,,,,,,,,,,,,,,,,,,,,,,,,,,,,,,,,,,,,,,,,1,0,1,0,,,,,,,,,,,,,,,,,,,,,,1722.4361369999824,None,1722.4361369999824,None,12,22,female,up_down_width,2023_Aug_28_1742,exp1,2021.2.3,59.98681490941918,
,,,,,,,,,,,,,,,,3,9.1,10,10.9,0,0,0.9,0.65,0.25,2.05,10,initial,36.05,328,361,393,0,0,9,9,9,0,0,,,,,2,0,2,0,0,0,0,14,,,,,num_3,1.5904016999993473,num_3,0.4,0.9,0.30000000000000004,1.0,10.81288,36.04293,return,3.285679899971001,,,,,,,12,22,female,up_down_width,2023_Aug_28_1742,exp1,2021.2.3,59.98681490941918,
,,,,,,,,,,,,,,,,5,9,9.5,10,10.5,11,0.5,0.25,0.25,2.25,10,initial,36.05,324,342,361,379,397,9,9,9,9,9,,,,,2,0,2,0,0,1,1,38,,,,,num_4,1.0612792999017984,num_4,0.1,0.3,0.2,0.8,7.20859,28.83434,return,3.0650889999233186,,,,,,,12,22,female,up_down_width,2023_Aug_28_1742,exp1,2021.2.3,59.98681490941918,
,,,,,,,,,,,,,,,,3,9.3,10,10.7,0,0,0.7,0.6,0.1,1.5,10,initial,36.05,335,361,386,0,0,9,9,9,0,0,,,,,2,0,2,0,0,2,2,6,,,,,num_2,1.2876177999423817,num_2,0.4,1.6,0.20000000000000007,1.6,7.20859,57.66869,return,2.5785425000358373,,,,,,,12,22,female,up_down_width,2023_Aug_28_1742,exp1,2021.2.3,59.98681490941918,
,,,,,,,,,,,,,,,,5,8.65,9.325,10,10.675,11.35,0.675,0.42500000000000004,0.25,2.95,10,match,36.05,312,336,361,385,409,9,9,9,9,9,,,,,2,0,2,0,0,3,3,33,,,,,num_5,1.0283914000028744,num_5,0.4,0.5,0.25000000000000006,0.85,9.01073,30.63649,return,3.593996600015089,,,,,,,12,22,female,up_down_width,2023_Aug_28_1742,exp1,2021.2.3,59.98681490941918,
,,,,,,,,,,,,,,,,5,9,9.5,10,10.5,11,0.5,0.09999999999999998,0.4,2.4,10,initial,36.05,324,342,361,379,397,9,9,9,9,9,,,,,2,0,2,0,0,4,4,40,,,,,num_5,3.694066400057636,num_5,0.1,0.8,0.25,0.75,9.01073,27.0322,return,4.9202285999199376,,,,,,,12,22,female,up_down_width,2023_Aug_28_1742,exp1,2021.2.3,59.98681490941918,
,,,,,,,,,,,,,,,,3,9.5,10,10.5,0,0,0.5,0.25,0.25,1.25,10,initial,36.05,342,361,379,0,0,9,9,9,0,0,,,,,2,0,2,0,0,5,5,2,,,,,num_4,5.290931300027296,num_4,0.15,0.4,0.2,0.7,7.20859,25.23005,return,10.198291499982588,,,,,,,12,22,female,up_down_width,2023_Aug_28_1742,exp1,2021.2.3,59.98681490941918,
,,,,,,,,,,,,,,,,4,9.5,9.833333333333334,10.166666666666666,10.5,0,0.33333333333333337,0.23333333333333336,0.1,1.1,10,match,36.05,342,354,367,379,0,9,9,9,9,0,,,,,2,0,2,0,0,6,6,1,,,,,num_4,1.8870626999996603,num_4,0.2,0.5,0.15000000000000002,0.7,5.40644,25.23005,return,3.377845500013791,,,,,,,12,22,female,up_down_width,2023_Aug_28_1742,exp1,2021.2.3,59.98681490941918,
,,,,,,,,,,,,,,,,4,9.3,9.766666666666667,10.233333333333333,10.7,0,0.4666666666666667,0.21666666666666665,0.25,1.65,10,match,36.05,335,352,369,386,0,9,9,9,9,0,,,,,2,0,2,0,0,7,7,9,,,,,num_5,1.3258659000275657,num_5,0.35,1.3,0.2,0.85,7.20859,30.63649,return,4.362080799997784,,,,,,,12,22,female,up_down_width,2023_Aug_28_1742,exp1,2021.2.3,59.98681490941918,
,,,,,,,,,,,,,,,,5,8.95,9.475,10,10.525,11.05,0.525,0.275,0.25,2.35,10,match,36.05,323,342,361,379,398,9,9,9,9,9,,,,,2,0,2,0,0,8,8,27,,,,,num_5,1.90373450005427,num_5,0.15,0.8,0.25,0.7,9.01073,25.23005,return,4.9939066000515595,,,,,,,12,22,female,up_down_width,2023_Aug_28_1742,exp1,2021.2.3,59.98681490941918,
,,,,,,,,,,,,,,,,3,9.1,10,10.9,0,0,0.9,0.8,0.1,1.9000000000000001,10,initial,36.05,328,361,393,0,0,9,9,9,0,0,,,,,2,0,2,0,0,9,9,12,,,,,num_3,1.457061400054954,num_3,0.45,0.8,0.20000000000000007,1.25,7.20859,45.05366,return,6.298229600070044,,,,,,,12,22,female,up_down_width,2023_Aug_28_1742,exp1,2021.2.3,59.98681490941918,
,,,,,,,,,,,,,,,,4,9.1,9.7,10.3,10.9,0,0.6000000000000001,0.20000000000000004,0.4,2.2,10,match,36.05,328,350,371,393,0,9,9,9,9,0,,,,,2,0,2,0,0,10,10,17,,,,,num_3,1.6662762999767438,num_3,0.3,0.5,0.25,1.15,9.01073,41.44937,return,5.277954600052908,,,,,,,12,22,female,up_down_width,2023_Aug_28_1742,exp1,2021.2.3,59.98681490941918,
,,,,,,,,,,,,,,,,4,8.95,9.65,10.35,11.05,0,0.7,0.29999999999999993,0.4,2.5,10,initial,36.05,323,348,373,398,0,9,9,9,9,0,,,,,2,0,2,0,0,11,11,28,,,,,num_4,1.3725190000841394,num_4,0.45,1.0,0.30000000000000004,1.0,10.81288,36.04293,return,2.36170220002532,,,,,,,12,22,female,up_down_width,2023_Aug_28_1742,exp1,2021.2.3,59.98681490941918,
,,,,,,,,,,,,,,,,3,8.6,10,11.4,0,0,1.4,1.15,0.25,3.05,10,match,36.05,310,361,411,0,0,9,9,9,0,0,,,,,2,0,2,0,0,12,12,45,,,,,num_3,1.2825151999713853,num_3,0.2,0.6,0.2,1.1,7.20859,39.64722,return,3.1021943000378087,,,,,,,12,22,female,up_down_width,2023_Aug_28_1742,exp1,2021.2.3,59.98681490941918,
,,,,,,,,,,,,,,,,5,9.25,9.625,10,10.375,10.75,0.375,0.125,0.25,1.75,10,match,36.05,333,347,361,374,388,9,9,9,9,9,,,,,2,0,2,0,0,13,13,21,,,,,num_4,1.2152085000416264,num_4,0.25,0.6,0.3,0.7,10.81288,25.23005,return,2.6531916999956593,,,,,,,12,22,female,up_down_width,2023_Aug_28_1742,exp1,2021.2.3,59.98681490941918,
,,,,,,,,,,,,,,,,3,8.2,10,11.8,0,0,1.8000000000000003,1.7000000000000002,0.1,3.7,10,match,36.05,296,361,425,0,0,9,9,9,0,0,,,,,2,0,2,0,0,14,14,49,,,,,num_4,1.3606658999342471,num_4,0.2,0.9,0.10000000000000002,1.5,3.60429,54.06439,return,2.8715998999541625,,,,,,,12,22,female,up_down_width,2023_Aug_28_1742,exp1,2021.2.3,59.98681490941918,
,,,,,,,,,,,,,,,,4,8.65,9.55,10.45,11.35,0,0.9,0.8,0.1,2.8000000000000003,10,initial,36.05,312,344,377,409,0,9,9,9,9,0,,,,,2,0,2,0,0,15,15,30,,,,,num_4,1.190344400005415,num_4,0.45,0.9,0.15000000000000008,0.9,5.40644,32.43864,return,3.4289716000203043,,,,,,,12,22,female,up_down_width,2023_Aug_28_1742,exp1,2021.2.3,59.98681490941918,
,,,,,,,,,,,,,,,,4,8.65,9.55,10.45,11.35,0,0.9,0.65,0.25,2.95,10,initial,36.05,312,344,377,409,0,9,9,9,9,0,,,,,2,0,2,0,0,16,16,32,,,,,num_4,1.0452319999458268,num_4,0.3,0.7,0.25,0.9,9.01073,32.43864,return,1.9769814999308437,,,,,,,12,22,female,up_down_width,2023_Aug_28_1742,exp1,2021.2.3,59.98681490941918,
,,,,,,,,,,,,,,,,3,9,10,11,0,0,1,0.9,0.1,2.1,10,match,36.05,324,361,397,0,0,9,9,9,0,0,,,,,2,0,2,0,0,17,17,37,,,,,num_3,1.4536864999681711,num_3,0.1,1.3,0.15000000000000002,1.3,5.40644,46.85581,return,1.9054317000554875,,,,,,,12,22,female,up_down_width,2023_Aug_28_1742,exp1,2021.2.3,59.98681490941918,
,,,,,,,,,,,,,,,,5,8.65,9.325,10,10.675,11.35,0.6749999999999999,0.575,0.1,2.8,10,match,36.05,312,336,361,385,409,9,9,9,9,9,,,,,2,0,2,0,0,18,18,31,,,,,num_5,1.0064249000279233,num_5,0.35,1.2,0.15000000000000002,1.2,5.40644,43.25151,return,2.645514100091532,,,,,,,12,22,female,up_down_width,2023_Aug_28_1742,exp1,2021.2.3,59.98681490941918,
,,,,,,,,,,,,,,,,5,9.175,9.5875,10,10.4125,10.825,0.4125,0.16249999999999998,0.25,1.9,10,match,36.05,331,346,361,375,390,9,9,9,9,9,,,,,2,0,2,0,0,19,19,23,,,,,num_5,1.1979000999126583,num_5,0.2,1.3,0.15000000000000002,0.95,5.40644,34.24078,return,3.484316200017929,,,,,,,12,22,female,up_down_width,2023_Aug_28_1742,exp1,2021.2.3,59.98681490941918,
,,,,,,,,,,,,,,,,5,8.6,9.3,10,10.7,11.4,0.7,0.6,0.1,2.9,10,initial,36.05,310,335,361,386,411,9,9,9,9,9,,,,,2,0,2,0,0,20,20,42,,,,,num_5,0.9904403000837192,num_5,0.35,1.2,0.15000000000000002,1.1,5.40644,39.64722,return,4.500215800013393,,,,,,,12,22,female,up_down_width,2023_Aug_28_1742,exp1,2021.2.3,59.98681490941918,
,,,,,,,,,,,,,,,,3,9.1,10,10.9,0,0,0.9,0.5,0.4,2.2,10,initial,36.05,328,361,393,0,0,9,9,9,0,0,,,,,2,0,2,0,0,21,21,16,,,,,num_3,1.2724955999292433,num_3,0.4,0.7,0.25000000000000006,1.15,9.01073,41.44937,return,4.499302000040188,,,,,,,12,22,female,up_down_width,2023_Aug_28_1742,exp1,2021.2.3,59.98681490941918,
,,,,,,,,,,,,,,,,3,9.5,10,10.5,0,0,0.5,0.4,0.1,1.1,10,initial,36.05,342,361,379,0,0,9,9,9,0,0,,,,,2,0,2,0,0,22,22,0,,,,,num_3,1.4533297999296337,num_3,0.25,1.3,0.15000000000000002,1.15,5.40644,41.44937,return,2.898060900042765,,,,,,,12,22,female,up_down_width,2023_Aug_28_1742,exp1,2021.2.3,59.98681490941918,
,,,,,,,,,,,,,,,,5,8.95,9.475,10,10.525,11.05,0.525,0.125,0.4,2.5,10,match,36.05,323,342,361,379,398,9,9,9,9,9,,,,,2,0,2,0,0,23,23,29,,,,,num_5,1.3986644999822602,num_5,0.1,0.3,0.25,0.45,9.01073,16.21932,return,5.161760399932973,,,,,,,12,22,female,up_down_width,2023_Aug_28_1742,exp1,2021.2.3,59.98681490941918,
,,,,,,,,,,,,,,,,4,9.3,9.766666666666667,10.233333333333333,10.7,0,0.4666666666666667,0.06666666666666665,0.4,1.8,10,match,36.05,335,352,369,386,0,9,9,9,9,0,,,,,2,0,2,0,0,24,24,11,,,,,num_4,1.2439150999998674,num_4,0.2,1.1,0.35,0.6,12.61502,21.62576,return,3.976399500039406,,,,,,,12,22,female,up_down_width,2023_Aug_28_1742,exp1,2021.2.3,59.98681490941918,
,,,,,,,,,,,,,,,,4,8.95,9.65,10.35,11.05,0,0.7,0.6,0.1,2.1999999999999997,10,initial,36.05,323,348,373,398,0,9,9,9,9,0,,,,,2,0,2,0,0,25,25,24,,,,,num_4,1.1306189999449998,num_4,0.35,0.6,0.25,0.8,9.01073,28.83434,return,3.851877100067213,,,,,,,12,22,female,up_down_width,2023_Aug_28_1742,exp1,2021.2.3,59.98681490941918,
,,,,,,,,,,,,,,,,3,9.3,10,10.7,0,0,0.7,0.44999999999999996,0.25,1.65,10,initial,36.05,335,361,386,0,0,9,9,9,0,0,,,,,2,0,2,0,0,26,26,8,,,,,num_3,1.2885872001061216,num_3,0.2,0.6,0.3,0.6,10.81288,21.62576,return,2.0482027999823913,,,,,,,12,22,female,up_down_width,2023_Aug_28_1742,exp1,2021.2.3,59.98681490941918,
,,,,,,,,,,,,,,,,3,8.2,10,11.8,0,0,1.7999999999999998,1.4,0.4,4,10,match,36.05,296,361,425,0,0,9,9,9,0,0,,,,,2,0,2,0,0,27,27,53,,,,,num_4,1.4275282999733463,num_4,0.3,1.3,0.35,1.1,12.61502,39.64722,return,2.7445157000329345,,,,,,,12,22,female,up_down_width,2023_Aug_28_1742,exp1,2021.2.3,59.98681490941918,
,,,,,,,,,,,,,,,,4,9.1,9.7,10.3,10.9,0,0.6,0.5,0.1,1.9,10,match,36.05,328,350,371,393,0,9,9,9,9,0,,,,,2,0,2,0,0,28,28,13,,,,,num_4,0.9883444999577478,num_4,0.3,0.6,0.2,0.9,7.20859,32.43864,return,2.7879599999869242,,,,,,,12,22,female,up_down_width,2023_Aug_28_1742,exp1,2021.2.3,59.98681490941918,
,,,,,,,,,,,,,,,,3,8.525,10,11.475,0,0,1.475,1.225,0.25,3.2,10,match,36.05,307,361,414,0,0,9,9,9,0,0,,,,,2,0,2,0,0,29,29,47,,,,,num_4,1.205068300012499,num_4,0.1,0.7,0.2,0.8,7.20859,28.83434,return,4.113808900001459,,,,,,,12,22,female,up_down_width,2023_Aug_28_1742,exp1,2021.2.3,59.98681490941918,
,,,,,,,,,,,,,,,,4,9.25,9.75,10.25,10.75,0,0.5,0.25,0.25,1.75,10,initial,36.05,333,351,370,388,0,9,9,9,9,0,,,,,2,0,2,0,0,30,30,20,,,,,num_4,1.0483755000168458,num_4,0.45,1.3,0.25000000000000006,1.0,9.01073,36.04293,return,4.1409260999644175,,,,,,,12,22,female,up_down_width,2023_Aug_28_1742,exp1,2021.2.3,59.98681490941918,
,,,,,,,,,,,,,,,,5,8.2,9.1,10,10.9,11.8,0.9,0.5,0.4,4,10,initial,36.05,296,328,361,393,425,9,9,9,9,9,,,,,2,0,2,0,0,31,31,52,,,,,num_6,1.2676397999748588,num_6,0.15,0.6,0.25,0.6,9.01073,21.62576,return,5.791969500016421,,,,,,,12,22,female,up_down_width,2023_Aug_28_1742,exp1,2021.2.3,59.98681490941918,
,,,,,,,,,,,,,,,,4,9.5,9.833333333333334,10.166666666666666,10.5,0,0.3333333333333333,0.08333333333333333,0.25,1.25,10,match,36.05,342,354,367,379,0,9,9,9,9,0,,,,,2,0,2,0,0,32,32,3,,,,,num_4,1.1410095000173897,num_4,0.45,0.8,0.30000000000000004,0.5,10.81288,18.02146,return,4.934428000007756,,,,,,,12,22,female,up_down_width,2023_Aug_28_1742,exp1,2021.2.3,59.98681490941918,
,,,,,,,,,,,,,,,,5,8.6,9.3,10,10.7,11.4,0.7,0.44999999999999996,0.25,3.05,10,initial,36.05,310,335,361,386,411,9,9,9,9,9,,,,,2,0,2,0,0,33,33,44,,,,,num_6,1.8280101000564173,num_6,0.2,0.4,0.25,0.5,9.01073,18.02146,return,3.784400000004098,,,,,,,12,22,female,up_down_width,2023_Aug_28_1742,exp1,2021.2.3,59.98681490941918,
,,,,,,,,,,,,,,,,4,9.3,9.766666666666667,10.233333333333333,10.7,0,0.4666666666666667,0.3666666666666667,0.1,1.5,10,match,36.05,335,352,369,386,0,9,9,9,9,0,,,,,2,0,2,0,0,34,34,7,,,,,num_4,1.3312889999942854,num_4,0.2,0.3,0.2,0.4,7.20859,14.41717,return,7.452471200027503,,,,,,,12,22,female,up_down_width,2023_Aug_28_1742,exp1,2021.2.3,59.98681490941918,
,,,,,,,,,,,,,,,,3,8.6,10,11.4,0,0,1.4,1.2999999999999998,0.1,2.9,10,match,36.05,310,361,411,0,0,9,9,9,0,0,,,,,2,0,2,0,0,35,35,43,,,,,num_3,1.5617277000565082,num_3,0.45,0.6,0.20000000000000007,0.75,7.20859,27.0322,return,3.6579371999250725,,,,,,,12,22,female,up_down_width,2023_Aug_28_1742,exp1,2021.2.3,59.98681490941918,
,,,,,,,,,,,,,,,,5,8.2,9.1,10,10.9,11.8,0.9,0.65,0.25,3.85,10,initial,36.05,296,328,361,393,425,9,9,9,9,9,,,,,2,0,2,0,0,36,36,50,,,,,num_5,1.8805430999491364,num_5,0.2,0.8,0.2,0.8,7.20859,28.83434,return,1.64410889998544,,,,,,,12,22,female,up_down_width,2023_Aug_28_1742,exp1,2021.2.3,59.98681490941918,
,,,,,,,,,,,,,,,,4,8.65,9.55,10.45,11.35,0,0.9,0.5,0.4,3.1,10,initial,36.05,312,344,377,409,0,9,9,9,9,0,,,,,2,0,2,0,0,37,37,34,,,,,num_4,1.2293421999784186,num_4,0.4,1.3,0.4,1.3,14.41717,46.85581,return,1.0679940999252722,,,,,,,12,22,female,up_down_width,2023_Aug_28_1742,exp1,2021.2.3,59.98681490941918,
,,,,,,,,,,,,,,,,3,9,10,11,0,0,0.9999999999999999,0.5999999999999999,0.4,2.4,10,match,36.05,324,361,397,0,0,9,9,9,0,0,,,,,2,0,2,0,0,38,38,41,,,,,num_6,1.3471161000197753,num_6,0.45,0.8,0.20000000000000007,0.8,7.20859,28.83434,return,6.473638699972071,,,,,,,12,22,female,up_down_width,2023_Aug_28_1742,exp1,2021.2.3,59.98681490941918,
,,,,,,,,,,,,,,,,3,8.2,10,11.8,0,0,1.8,1.55,0.25,3.85,10,match,36.05,296,361,425,0,0,9,9,9,0,0,,,,,2,0,2,0,0,39,39,51,,,,,num_3,1.4977943000849336,num_3,0.4,1.3,0.30000000000000004,1.3,10.81288,46.85581,return,4.812007899978198,,,,,,,12,22,female,up_down_width,2023_Aug_28_1742,exp1,2021.2.3,59.98681490941918,
,,,,,,,,,,,,,,,,4,9.25,9.75,10.25,10.75,0,0.5,0.4,0.1,1.6,10,initial,36.05,333,351,370,388,0,9,9,9,9,0,,,,,2,0,2,0,0,40,40,18,,,,,num_4,1.0371891000540927,num_4,0.3,0.5,0.15000000000000002,0.5,5.40644,18.02146,return,2.1776978000998497,,,,,,,12,22,female,up_down_width,2023_Aug_28_1742,exp1,2021.2.3,59.98681490941918,
,,,,,,,,,,,,,,,,5,9.25,9.625,10,10.375,10.75,0.375,0.275,0.1,1.6,10,match,36.05,333,347,361,374,388,9,9,9,9,9,,,,,2,0,2,0,0,41,41,19,,,,,num_6,1.2978866000194103,num_6,0.15,1.0,0.15,0.7,5.40644,25.23005,return,3.6769065000116825,,,,,,,12,22,female,up_down_width,2023_Aug_28_1742,exp1,2021.2.3,59.98681490941918,
,,,,,,,,,,,,,,,,4,9.25,9.75,10.25,10.75,0,0.5,0.09999999999999998,0.4,1.9,10,initial,36.05,333,351,370,388,0,9,9,9,9,0,,,,,2,0,2,0,0,42,42,22,,,,,num_4,1.4843753000022843,num_4,0.35,1.0,0.25,0.8,9.01073,28.83434,return,2.7028680000221357,,,,,,,12,22,female,up_down_width,2023_Aug_28_1742,exp1,2021.2.3,59.98681490941918,
,,,,,,,,,,,,,,,,3,9.3,10,10.7,0,0,0.7,0.29999999999999993,0.4,1.8,10,initial,36.05,335,361,386,0,0,9,9,9,0,0,,,,,2,0,2,0,0,43,43,10,,,,,num_3,2.1091116999741644,num_3,0.45,0.6,0.25000000000000006,0.8,9.01073,28.83434,return,3.8777410000329837,,,,,,,12,22,female,up_down_width,2023_Aug_28_1742,exp1,2021.2.3,59.98681490941918,
,,,,,,,,,,,,,,,,4,8.95,9.65,10.35,11.05,0,0.7,0.44999999999999996,0.25,2.3499999999999996,10,initial,36.05,323,348,373,398,0,9,9,9,9,0,,,,,2,0,2,0,0,44,44,26,,,,,num_4,1.157147900084965,num_4,0.35,0.9,0.25,0.9,9.01073,32.43864,return,2.37318619992584,,,,,,,12,22,female,up_down_width,2023_Aug_28_1742,exp1,2021.2.3,59.98681490941918,
,,,,,,,,,,,,,,,,5,8.6,9.3,10,10.7,11.4,0.7,0.29999999999999993,0.4,3.1999999999999997,10,initial,36.05,310,335,361,386,411,9,9,9,9,9,,,,,2,0,2,0,0,45,45,46,,,,,num_5,1.0433146000141278,num_5,0.25,0.5,0.2,0.75,7.20859,27.0322,return,3.655836099991575,,,,,,,12,22,female,up_down_width,2023_Aug_28_1742,exp1,2021.2.3,59.98681490941918,
,,,,,,,,,,,,,,,,5,8.95,9.475,10,10.525,11.05,0.525,0.42500000000000004,0.1,2.2,10,match,36.05,323,342,361,379,398,9,9,9,9,9,,,,,2,0,2,0,0,46,46,25,,,,,num_5,1.1503582000732422,num_5,0.15,0.9,0.15,0.9,5.40644,32.43864,return,0.9428015999728814,,,,,,,12,22,female,up_down_width,2023_Aug_28_1742,exp1,2021.2.3,59.98681490941918,
,,,,,,,,,,,,,,,,5,8.2,9.1,10,10.9,11.8,0.9,0.8,0.1,3.7,10,initial,36.05,296,328,361,393,425,9,9,9,9,9,,,,,2,0,2,0,0,47,47,48,,,,,num_5,1.5003583000507206,num_5,0.3,0.4,0.15000000000000002,1.0,5.40644,36.04293,return,5.055290500051342,,,,,,,12,22,female,up_down_width,2023_Aug_28_1742,exp1,2021.2.3,59.98681490941918,
,,,,,,,,,,,,,,,,4,9.425,9.808333333333334,10.191666666666666,10.575,0,0.3833333333333333,0.1333333333333333,0.25,1.4,10,match,36.05,340,354,367,381,0,9,9,9,9,0,,,,,2,0,2,0,0,48,48,5,,,,,num_4,1.8537912999745458,num_4,0.25,1.0,0.15000000000000002,0.8,5.40644,28.83434,return,3.8417569000739604,,,,,,,12,22,female,up_down_width,2023_Aug_28_1742,exp1,2021.2.3,59.98681490941918,
,,,,,,,,,,,,,,,,5,9,9.5,10,10.5,11,0.5,0.4,0.1,2.1,10,initial,36.05,324,342,361,379,397,9,9,9,9,9,,,,,2,0,2,0,0,49,49,36,,,,,num_5,0.9752838000422344,num_5,0.45,1.2,0.20000000000000007,1.2,7.20859,43.25151,return,3.6382491999538615,,,,,,,12,22,female,up_down_width,2023_Aug_28_1742,exp1,2021.2.3,59.98681490941918,
,,,,,,,,,,,,,,,,5,8.65,9.325,10,10.675,11.35,0.675,0.275,0.4,3.1,10,match,36.05,312,336,361,385,409,9,9,9,9,9,,,,,2,0,2,0,0,50,50,35,,,,,num_5,0.9138235999271274,num_5,0.45,0.8,0.30000000000000004,0.9,10.81288,32.43864,return,2.988649300066754,,,,,,,12,22,female,up_down_width,2023_Aug_28_1742,exp1,2021.2.3,59.98681490941918,
,,,,,,,,,,,,,,,,4,9.1,9.7,10.3,10.9,0,0.5999999999999999,0.3499999999999999,0.25,2.05,10,match,36.05,328,350,371,393,0,9,9,9,9,0,,,,,2,0,2,0,0,51,51,15,,,,,num_4,1.2119422999676317,num_4,0.35,1.3,0.3,1.3,10.81288,46.85581,return,2.3142162999138236,,,,,,,12,22,female,up_down_width,2023_Aug_28_1742,exp1,2021.2.3,59.98681490941918,
,,,,,,,,,,,,,,,,3,9.5,10,10.5,0,0,0.5,0.09999999999999998,0.4,1.4000000000000001,10,initial,36.05,342,361,379,0,0,9,9,9,0,0,,,,,2,0,2,0,0,52,52,4,,,,,num_3,1.5467531000031158,num_3,0.35,1.2,0.3,0.65,10.81288,23.4279,return,4.812502200016752,,,,,,,12,22,female,up_down_width,2023_Aug_28_1742,exp1,2021.2.3,59.98681490941918,
,,,,,,,,,,,,,,,,3,9,10,11,0,0,1,0.75,0.25,2.25,10,match,36.05,324,361,397,0,0,9,9,9,0,0,,,,,2,0,2,0,0,53,53,39,,,,,num_3,1.767759200069122,num_3,0.2,1.2,0.25,0.7,9.01073,25.23005,return,6.7717161000473425,,,,,,,12,22,female,up_down_width,2023_Aug_28_1742,exp1,2021.2.3,59.98681490941918,
,,,,,,,,,,,,,,,,,,,,,,,,,,,,,,,,,,,,,,,,,,,2,0,2,0,,,,,,,,,,,,,,,,,,,,,,2132.903141299961,None,2132.903141299961,None,12,22,female,up_down_width,2023_Aug_28_1742,exp1,2021.2.3,59.98681490941918,
,,,,,,,,,,,,,,,,3,9.1,10,10.9,0,0,0.9,0.5,0.4,2.2,10,initial,36.05,328,361,393,0,0,9,9,9,0,0,,,,,3,0,3,0,0,0,0,16,,,,,num_3,1.219738999963738,num_3,0.3,0.8,0.25,0.8,9.01073,28.83434,return,2.880780400009826,,,,,,,12,22,female,up_down_width,2023_Aug_28_1742,exp1,2021.2.3,59.98681490941918,
,,,,,,,,,,,,,,,,3,8.525,10,11.475,0,0,1.475,1.225,0.25,3.2,10,match,36.05,307,361,414,0,0,9,9,9,0,0,,,,,3,0,3,0,0,1,1,47,,,,,num_4,1.5570046999491751,num_4,0.2,1.0,0.25,0.8,9.01073,28.83434,return,3.6065028000157326,,,,,,,12,22,female,up_down_width,2023_Aug_28_1742,exp1,2021.2.3,59.98681490941918,
,,,,,,,,,,,,,,,,5,8.6,9.3,10,10.7,11.4,0.7,0.29999999999999993,0.4,3.1999999999999997,10,initial,36.05,310,335,361,386,411,9,9,9,9,9,,,,,3,0,3,0,0,2,2,46,,,,,num_5,0.9939621000085026,num_5,0.1,1.0,0.3,1.0,10.81288,36.04293,return,3.7844960000365973,,,,,,,12,22,female,up_down_width,2023_Aug_28_1742,exp1,2021.2.3,59.98681490941918,
,,,,,,,,,,,,,,,,5,8.6,9.3,10,10.7,11.4,0.7,0.6,0.1,2.9,10,initial,36.05,310,335,361,386,411,9,9,9,9,9,,,,,3,0,3,0,0,3,3,42,,,,,num_5,1.246555000077933,num_5,0.15,0.6,0.09999999999999999,0.65,3.60429,23.4279,return,3.324616999947466,,,,,,,12,22,female,up_down_width,2023_Aug_28_1742,exp1,2021.2.3,59.98681490941918,
,,,,,,,,,,,,,,,,3,8.2,10,11.8,0,0,1.8,1.55,0.25,3.85,10,match,36.05,296,361,425,0,0,9,9,9,0,0,,,,,3,0,3,0,0,4,4,51,,,,,num_4,1.2933267999906093,num_4,0.2,1.3,0.15000000000000002,1.2,5.40644,43.25151,return,2.456227599992417,,,,,,,12,22,female,up_down_width,2023_Aug_28_1742,exp1,2021.2.3,59.98681490941918,
,,,,,,,,,,,,,,,,4,9.3,9.766666666666667,10.233333333333333,10.7,0,0.4666666666666667,0.3666666666666667,0.1,1.5,10,match,36.05,335,352,369,386,0,9,9,9,9,0,,,,,3,0,3,0,0,5,5,7,,,,,num_4,1.2563007000135258,num_4,0.3,0.6,0.10000000000000002,0.5,3.60429,18.02146,return,6.244012699928135,,,,,,,12,22,female,up_down_width,2023_Aug_28_1742,exp1,2021.2.3,59.98681490941918,
,,,,,,,,,,,,,,,,4,8.95,9.65,10.35,11.05,0,0.7,0.44999999999999996,0.25,2.3499999999999996,10,initial,36.05,323,348,373,398,0,9,9,9,9,0,,,,,3,0,3,0,0,6,6,26,,,,,num_5,0.9620144999353215,num_5,0.45,1.0,0.20000000000000007,0.95,7.20859,34.24078,return,3.4356047000037506,,,,,,,12,22,female,up_down_width,2023_Aug_28_1742,exp1,2021.2.3,59.98681490941918,
,,,,,,,,,,,,,,,,5,9,9.5,10,10.5,11,0.5,0.09999999999999998,0.4,2.4,10,initial,36.05,324,342,361,379,397,9,9,9,9,9,,,,,3,0,3,0,0,7,7,40,,,,,num_4,1.2619555999990553,num_4,0.35,1.2,0.25,0.8,9.01073,28.83434,return,3.40138970001135,,,,,,,12,22,female,up_down_width,2023_Aug_28_1742,exp1,2021.2.3,59.98681490941918,
,,,,,,,,,,,,,,,,5,8.2,9.1,10,10.9,11.8,0.9,0.5,0.4,4,10,initial,36.05,296,328,361,393,425,9,9,9,9,9,,,,,3,0,3,0,0,8,8,52,,,,,num_5,0.9854161000112072,num_5,0.25,1.3,0.2,0.8,7.20859,28.83434,return,5.344119100016542,,,,,,,12,22,female,up_down_width,2023_Aug_28_1742,exp1,2021.2.3,59.98681490941918,
,,,,,,,,,,,,,,,,3,8.2,10,11.8,0,0,1.8000000000000003,1.7000000000000002,0.1,3.7,10,match,36.05,296,361,425,0,0,9,9,9,0,0,,,,,3,0,3,0,0,9,9,49,,,,,num_4,1.2110804000403732,num_4,0.1,0.5,0.15000000000000002,1.0,5.40644,36.04293,return,5.465764399967156,,,,,,,12,22,female,up_down_width,2023_Aug_28_1742,exp1,2021.2.3,59.98681490941918,
,,,,,,,,,,,,,,,,5,8.2,9.1,10,10.9,11.8,0.9,0.65,0.25,3.85,10,initial,36.05,296,328,361,393,425,9,9,9,9,9,,,,,3,0,3,0,0,10,10,50,,,,,num_5,1.5735299000516534,num_5,0.35,1.3,0.2,1.3,7.20859,46.85581,return,2.1484416000312194,,,,,,,12,22,female,up_down_width,2023_Aug_28_1742,exp1,2021.2.3,59.98681490941918,
,,,,,,,,,,,,,,,,3,9.1,10,10.9,0,0,0.9,0.8,0.1,1.9000000000000001,10,initial,36.05,328,361,393,0,0,9,9,9,0,0,,,,,3,0,3,0,0,11,11,12,,,,,num_2,1.53637979994528,num_2,0.15,1.6,0.09999999999999999,1.5,3.60429,54.06439,return,4.384715100051835,,,,,,,12,22,female,up_down_width,2023_Aug_28_1742,exp1,2021.2.3,59.98681490941918,
,,,,,,,,,,,,,,,,4,9.1,9.7,10.3,10.9,0,0.5999999999999999,0.3499999999999999,0.25,2.05,10,match,36.05,328,350,371,393,0,9,9,9,9,0,,,,,3,0,3,0,0,12,12,15,,,,,num_3,1.272532100090757,num_3,0.1,0.5,0.15000000000000002,0.65,5.40644,23.4279,return,2.9328386000124738,,,,,,,12,22,female,up_down_width,2023_Aug_28_1742,exp1,2021.2.3,59.98681490941918,
,,,,,,,,,,,,,,,,5,9,9.5,10,10.5,11,0.5,0.4,0.1,2.1,10,initial,36.05,324,342,361,379,397,9,9,9,9,9,,,,,3,0,3,0,0,13,13,36,,,,,num_5,1.4171267000492662,num_5,0.4,0.5,0.15000000000000008,0.5,5.40644,18.02146,return,3.119449899997562,,,,,,,12,22,female,up_down_width,2023_Aug_28_1742,exp1,2021.2.3,59.98681490941918,
,,,,,,,,,,,,,,,,5,9.25,9.625,10,10.375,10.75,0.375,0.125,0.25,1.75,10,match,36.05,333,347,361,374,388,9,9,9,9,9,,,,,3,0,3,0,0,14,14,21,,,,,num_4,1.1290402000304312,num_4,0.3,1.3,0.2,0.9,7.20859,32.43864,return,4.394075499963947,,,,,,,12,22,female,up_down_width,2023_Aug_28_1742,exp1,2021.2.3,59.98681490941918,
,,,,,,,,,,,,,,,,3,9.5,10,10.5,0,0,0.5,0.25,0.25,1.25,10,initial,36.05,342,361,379,0,0,9,9,9,0,0,,,,,3,0,3,0,0,15,15,2,,,,,num_3,1.3559178999857977,num_3,0.3,1.2,0.2,1.2,7.20859,43.25151,return,2.4197620999766514,,,,,,,12,22,female,up_down_width,2023_Aug_28_1742,exp1,2021.2.3,59.98681490941918,
,,,,,,,,,,,,,,,,4,9.25,9.75,10.25,10.75,0,0.5,0.09999999999999998,0.4,1.9,10,initial,36.05,333,351,370,388,0,9,9,9,9,0,,,,,3,0,3,0,0,16,16,22,,,,,num_4,1.13638139993418,num_4,0.4,1.3,0.25000000000000006,1.3,9.01073,46.85581,return,4.818261600099504,,,,,,,12,22,female,up_down_width,2023_Aug_28_1742,exp1,2021.2.3,59.98681490941918,
,,,,,,,,,,,,,,,,4,9.1,9.7,10.3,10.9,0,0.6000000000000001,0.20000000000000004,0.4,2.2,10,match,36.05,328,350,371,393,0,9,9,9,9,0,,,,,3,0,3,0,0,17,17,17,,,,,num_3,2.3538724000100046,num_3,0.35,1,0.25,1,9.01073,36.04293,return,2.847271000035107,,,,,,,12,22,female,up_down_width,2023_Aug_28_1742,exp1,2021.2.3,59.98681490941918,
,,,,,,,,,,,,,,,,4,9.25,9.75,10.25,10.75,0,0.5,0.4,0.1,1.6,10,initial,36.05,333,351,370,388,0,9,9,9,9,0,,,,,3,0,3,0,0,18,18,18,,,,,num_4,1.0590135999955237,num_4,0.25,1.0,0.15000000000000002,1.0,5.40644,36.04293,return,2.3593776000197977,,,,,,,12,22,female,up_down_width,2023_Aug_28_1742,exp1,2021.2.3,59.98681490941918,
,,,,,,,,,,,,,,,,5,8.65,9.325,10,10.675,11.35,0.675,0.275,0.4,3.1,10,match,36.05,312,336,361,385,409,9,9,9,9,9,,,,,3,0,3,0,0,19,19,35,,,,,num_6,1.465833400026895,num_6,0.2,0.3,0.15000000000000002,0.8,5.40644,28.83434,return,4.701805900083855,,,,,,,12,22,female,up_down_width,2023_Aug_28_1742,exp1,2021.2.3,59.98681490941918,
,,,,,,,,,,,,,,,,5,8.65,9.325,10,10.675,11.35,0.6749999999999999,0.575,0.1,2.8,10,match,36.05,312,336,361,385,409,9,9,9,9,9,,,,,3,0,3,0,0,20,20,31,,,,,num_5,1.2048563999123871,num_5,0.2,0.6,0.15000000000000002,0.8,5.40644,28.83434,return,3.5402699999976903,,,,,,,12,22,female,up_down_width,2023_Aug_28_1742,exp1,2021.2.3,59.98681490941918,
,,,,,,,,,,,,,,,,4,9.1,9.7,10.3,10.9,0,0.6,0.5,0.1,1.9,10,match,36.05,328,350,371,393,0,9,9,9,9,0,,,,,3,0,3,0,0,21,21,13,,,,,num_4,1.0704689000267535,num_4,0.45,0.8,0.15000000000000008,1.0,5.40644,36.04293,return,4.3698405000614,,,,,,,12,22,female,up_down_width,2023_Aug_28_1742,exp1,2021.2.3,59.98681490941918,
,,,,,,,,,,,,,,,,3,8.6,10,11.4,0,0,1.4,1.15,0.25,3.05,10,match,36.05,310,361,411,0,0,9,9,9,0,0,,,,,3,0,3,0,0,22,22,45,,,,,num_3,2.0594660999486223,num_3,0.4,1.1,0.20000000000000007,1.1,7.20859,39.64722,return,2.678805899922736,,,,,,,12,22,female,up_down_width,2023_Aug_28_1742,exp1,2021.2.3,59.98681490941918,
,,,,,,,,,,,,,,,,5,9.25,9.625,10,10.375,10.75,0.375,0.275,0.1,1.6,10,match,36.05,333,347,361,374,388,9,9,9,9,9,,,,,3,0,3,0,0,23,23,19,,,,,num_5,1.3207693001022562,num_5,0.1,1.3,0.2,1.3,7.20859,46.85581,return,3.010634999955073,,,,,,,12,22,female,up_down_width,2023_Aug_28_1742,exp1,2021.2.3,59.98681490941918,
,,,,,,,,,,,,,,,,4,8.65,9.55,10.45,11.35,0,0.9,0.8,0.1,2.8000000000000003,10,initial,36.05,312,344,377,409,0,9,9,9,9,0,,,,,3,0,3,0,0,24,24,30,,,,,num_4,1.1378021999262273,num_4,0.2,0.3,0.15000000000000002,1.0,5.40644,36.04293,return,3.215987299918197,,,,,,,12,22,female,up_down_width,2023_Aug_28_1742,exp1,2021.2.3,59.98681490941918,
,,,,,,,,,,,,,,,,5,8.95,9.475,10,10.525,11.05,0.525,0.125,0.4,2.5,10,match,36.05,323,342,361,379,398,9,9,9,9,9,,,,,3,0,3,0,0,25,25,29,,,,,num_5,1.0912857999792323,num_5,0.25,1.3,0.2,1.0,7.20859,36.04293,return,3.3804091999772936,,,,,,,12,22,female,up_down_width,2023_Aug_28_1742,exp1,2021.2.3,59.98681490941918,
,,,,,,,,,,,,,,,,3,9.1,10,10.9,0,0,0.9,0.65,0.25,2.05,10,initial,36.05,328,361,393,0,0,9,9,9,0,0,,,,,3,0,3,0,0,26,26,14,,,,,num_4,0.9875923999352381,num_4,0.4,0.9,0.20000000000000007,1.0,7.20859,36.04293,return,3.073025199933909,,,,,,,12,22,female,up_down_width,2023_Aug_28_1742,exp1,2021.2.3,59.98681490941918,
,,,,,,,,,,,,,,,,4,8.95,9.65,10.35,11.05,0,0.7,0.29999999999999993,0.4,2.5,10,initial,36.05,323,348,373,398,0,9,9,9,9,0,,,,,3,0,3,0,0,27,27,28,,,,,num_4,1.0606239999178797,num_4,0.1,0.9,0.25,0.9,9.01073,32.43864,return,2.0888757000211626,,,,,,,12,22,female,up_down_width,2023_Aug_28_1742,exp1,2021.2.3,59.98681490941918,
,,,,,,,,,,,,,,,,3,9.3,10,10.7,0,0,0.7,0.44999999999999996,0.25,1.65,10,initial,36.05,335,361,386,0,0,9,9,9,0,0,,,,,3,0,3,0,0,28,28,8,,,,,num_3,1.29485909990035,num_3,0.35,0.7,0.25,0.8,9.01073,28.83434,return,3.7852270998992026,,,,,,,12,22,female,up_down_width,2023_Aug_28_1742,exp1,2021.2.3,59.98681490941918,
,,,,,,,,,,,,,,,,5,8.65,9.325,10,10.675,11.35,0.675,0.42500000000000004,0.25,2.95,10,match,36.05,312,336,361,385,409,9,9,9,9,9,,,,,3,0,3,0,0,29,29,33,,,,,num_5,1.2405312000773847,num_5,0.1,1.1,0.2,1.1,7.20859,39.64722,return,3.2520734999561682,,,,,,,12,22,female,up_down_width,2023_Aug_28_1742,exp1,2021.2.3,59.98681490941918,
,,,,,,,,,,,,,,,,3,8.6,10,11.4,0,0,1.4,1.2999999999999998,0.1,2.9,10,match,36.05,310,361,411,0,0,9,9,9,0,0,,,,,3,0,3,0,0,30,30,43,,,,,num_3,1.594500899896957,num_3,0.2,1,0.15000000000000002,1.1,5.40644,39.64722,return,2.7931777000194415,,,,,,,12,22,female,up_down_width,2023_Aug_28_1742,exp1,2021.2.3,59.98681490941918,
,,,,,,,,,,,,,,,,4,8.65,9.55,10.45,11.35,0,0.9,0.65,0.25,2.95,10,initial,36.05,312,344,377,409,0,9,9,9,9,0,,,,,3,0,3,0,0,31,31,32,,,,,num_4,0.9184238000307232,num_4,0.1,1.0,0.15000000000000002,1.0,5.40644,36.04293,return,2.2574561999645084,,,,,,,12,22,female,up_down_width,2023_Aug_28_1742,exp1,2021.2.3,59.98681490941918,
,,,,,,,,,,,,,,,,5,9,9.5,10,10.5,11,0.5,0.25,0.25,2.25,10,initial,36.05,324,342,361,379,397,9,9,9,9,9,,,,,3,0,3,0,0,32,32,38,,,,,num_5,1.331377699971199,num_5,0.4,0.8,0.20000000000000007,0.95,7.20859,34.24078,return,4.334114499972202,,,,,,,12,22,female,up_down_width,2023_Aug_28_1742,exp1,2021.2.3,59.98681490941918,
,,,,,,,,,,,,,,,,4,8.95,9.65,10.35,11.05,0,0.7,0.6,0.1,2.1999999999999997,10,initial,36.05,323,348,373,398,0,9,9,9,9,0,,,,,3,0,3,0,0,33,33,24,,,,,num_4,1.0806163999950513,num_4,0.15,0.3,0.09999999999999999,0.9,3.60429,32.43864,return,2.732407300034538,,,,,,,12,22,female,up_down_width,2023_Aug_28_1742,exp1,2021.2.3,59.98681490941918,
,,,,,,,,,,,,,,,,5,8.2,9.1,10,10.9,11.8,0.9,0.8,0.1,3.7,10,initial,36.05,296,328,361,393,425,9,9,9,9,9,,,,,3,0,3,0,0,34,34,48,,,,,num_5,1.0005919999675825,num_5,0.4,1.3,0.15000000000000008,1.3,5.40644,46.85581,return,3.2143749999813735,,,,,,,12,22,female,up_down_width,2023_Aug_28_1742,exp1,2021.2.3,59.98681490941918,
,,,,,,,,,,,,,,,,4,9.5,9.833333333333334,10.166666666666666,10.5,0,0.33333333333333337,0.23333333333333336,0.1,1.1,10,match,36.05,342,354,367,379,0,9,9,9,9,0,,,,,3,0,3,0,0,35,35,1,,,,,num_4,1.2872372000711039,num_4,0.2,0.5,0.10000000000000002,0.6,3.60429,21.62576,return,3.1667089000111446,,,,,,,12,22,female,up_down_width,2023_Aug_28_1742,exp1,2021.2.3,59.98681490941918,
,,,,,,,,,,,,,,,,5,9.175,9.5875,10,10.4125,10.825,0.4125,0.16249999999999998,0.25,1.9,10,match,36.05,331,346,361,375,390,9,9,9,9,9,,,,,3,0,3,0,0,36,36,23,,,,,num_5,0.8447229000739753,num_5,0.3,1.3,0.2,0.5,7.20859,18.02146,return,9.24103249993641,,,,,,,12,22,female,up_down_width,2023_Aug_28_1742,exp1,2021.2.3,59.98681490941918,
,,,,,,,,,,,,,,,,3,8.2,10,11.8,0,0,1.7999999999999998,1.4,0.4,4,10,match,36.05,296,361,425,0,0,9,9,9,0,0,,,,,3,0,3,0,0,37,37,53,,,,,num_4,1.0286913000745699,num_4,0.35,0.5,0.25,0.8,9.01073,28.83434,return,2.56583049998153,,,,,,,12,22,female,up_down_width,2023_Aug_28_1742,exp1,2021.2.3,59.98681490941918,
,,,,,,,,,,,,,,,,4,9.3,9.766666666666667,10.233333333333333,10.7,0,0.4666666666666667,0.06666666666666665,0.4,1.8,10,match,36.05,335,352,369,386,0,9,9,9,9,0,,,,,3,0,3,0,0,38,38,11,,,,,num_3,1.2902034999569878,num_3,0.4,1.2,0.35000000000000003,0.5,12.61502,18.02146,return,6.868757899967022,,,,,,,12,22,female,up_down_width,2023_Aug_28_1742,exp1,2021.2.3,59.98681490941918,
,,,,,,,,,,,,,,,,3,9.5,10,10.5,0,0,0.5,0.09999999999999998,0.4,1.4000000000000001,10,initial,36.05,342,361,379,0,0,9,9,9,0,0,,,,,3,0,3,0,0,39,39,4,,,,,num_3,1.8356772999977693,num_3,0.45,1.3,0.20000000000000007,0.35,7.20859,12.61502,return,9.537113100057468,,,,,,,12,22,female,up_down_width,2023_Aug_28_1742,exp1,2021.2.3,59.98681490941918,
,,,,,,,,,,,,,,,,3,9.3,10,10.7,0,0,0.7,0.29999999999999993,0.4,1.8,10,initial,36.05,335,361,386,0,0,9,9,9,0,0,,,,,3,0,3,0,0,40,40,10,,,,,num_3,1.3016021000221372,num_3,0.35,0.6,0.35,0.6,12.61502,21.62576,return,1.4858968999469653,,,,,,,12,22,female,up_down_width,2023_Aug_28_1742,exp1,2021.2.3,59.98681490941918,
,,,,,,,,,,,,,,,,4,9.425,9.808333333333334,10.191666666666666,10.575,0,0.3833333333333333,0.1333333333333333,0.25,1.4,10,match,36.05,340,354,367,381,0,9,9,9,9,0,,,,,3,0,3,0,0,41,41,5,,,,,num_4,1.2432660999475047,num_4,0.35,0.4,0.35,0.5,12.61502,18.02146,return,2.951396100106649,,,,,,,12,22,female,up_down_width,2023_Aug_28_1742,exp1,2021.2.3,59.98681490941918,
,,,,,,,,,,,,,,,,3,9,10,11,0,0,0.9999999999999999,0.5999999999999999,0.4,2.4,10,match,36.05,324,361,397,0,0,9,9,9,0,0,,,,,3,0,3,0,0,42,42,41,,,,,num_4,1.6413303000153974,num_4,0.4,0.6,0.35000000000000003,0.7,12.61502,25.23005,return,3.428954500006512,,,,,,,12,22,female,up_down_width,2023_Aug_28_1742,exp1,2021.2.3,59.98681490941918,
,,,,,,,,,,,,,,,,5,8.95,9.475,10,10.525,11.05,0.525,0.275,0.25,2.35,10,match,36.05,323,342,361,379,398,9,9,9,9,9,,,,,3,0,3,0,0,43,43,27,,,,,num_5,1.5781577000161633,num_5,0.4,1.1,0.30000000000000004,0.5,10.81288,18.02146,return,6.184262900031172,,,,,,,12,22,female,up_down_width,2023_Aug_28_1742,exp1,2021.2.3,59.98681490941918,
,,,,,,,,,,,,,,,,3,9,10,11,0,0,1,0.9,0.1,2.1,10,match,36.05,324,361,397,0,0,9,9,9,0,0,,,,,3,0,3,0,0,44,44,37,,,,,num_3,1.2791971999686211,num_3,0.2,1.1,0.10000000000000002,1.1,3.60429,39.64722,return,2.170176299987361,,,,,,,12,22,female,up_down_width,2023_Aug_28_1742,exp1,2021.2.3,59.98681490941918,
,,,,,,,,,,,,,,,,3,9,10,11,0,0,1,0.75,0.25,2.25,10,match,36.05,324,361,397,0,0,9,9,9,0,0,,,,,3,0,3,0,0,45,45,39,,,,,num_3,1.2744331000139937,num_3,0.25,0.5,0.15000000000000002,0.85,5.40644,30.63649,return,3.252444999990985,,,,,,,12,22,female,up_down_width,2023_Aug_28_1742,exp1,2021.2.3,59.98681490941918,
,,,,,,,,,,,,,,,,3,9.3,10,10.7,0,0,0.7,0.6,0.1,1.5,10,initial,36.05,335,361,386,0,0,9,9,9,0,0,,,,,3,0,3,0,0,46,46,6,,,,,num_3,1.1953701000893489,num_3,0.4,0.7,0.15000000000000008,0.95,5.40644,34.24078,return,5.208945900085382,,,,,,,12,22,female,up_down_width,2023_Aug_28_1742,exp1,2021.2.3,59.98681490941918,
,,,,,,,,,,,,,,,,4,8.65,9.55,10.45,11.35,0,0.9,0.5,0.4,3.1,10,initial,36.05,312,344,377,409,0,9,9,9,9,0,,,,,3,0,3,0,0,47,47,34,,,,,num_4,1.0403762999922037,num_4,0.3,1.3,0.3,1.3,10.81288,46.85581,return,0.9015507999574766,,,,,,,12,22,female,up_down_width,2023_Aug_28_1742,exp1,2021.2.3,59.98681490941918,
,,,,,,,,,,,,,,,,5,8.6,9.3,10,10.7,11.4,0.7,0.44999999999999996,0.25,3.05,10,initial,36.05,310,335,361,386,411,9,9,9,9,9,,,,,3,0,3,0,0,48,48,44,,,,,num_5,1.4864717000164092,num_5,0.1,0.4,0.2,0.65,7.20859,23.4279,return,4.273327500093728,,,,,,,12,22,female,up_down_width,2023_Aug_28_1742,exp1,2021.2.3,59.98681490941918,
,,,,,,,,,,,,,,,,3,9.5,10,10.5,0,0,0.5,0.4,0.1,1.1,10,initial,36.05,342,361,379,0,0,9,9,9,0,0,,,,,3,0,3,0,0,49,49,0,,,,,num_3,1.4473099000751972,num_3,0.25,0.3,0.15000000000000002,0.55,5.40644,19.82361,return,4.828388400026597,,,,,,,12,22,female,up_down_width,2023_Aug_28_1742,exp1,2021.2.3,59.98681490941918,
,,,,,,,,,,,,,,,,4,9.3,9.766666666666667,10.233333333333333,10.7,0,0.4666666666666667,0.21666666666666665,0.25,1.65,10,match,36.05,335,352,369,386,0,9,9,9,9,0,,,,,3,0,3,0,0,50,50,9,,,,,num_4,2.2219423999777064,num_4,0.3,0.3,0.2,0.7,7.20859,25.23005,return,3.6514504000078887,,,,,,,12,22,female,up_down_width,2023_Aug_28_1742,exp1,2021.2.3,59.98681490941918,
,,,,,,,,,,,,,,,,4,9.25,9.75,10.25,10.75,0,0.5,0.25,0.25,1.75,10,initial,36.05,333,351,370,388,0,9,9,9,9,0,,,,,3,0,3,0,0,51,51,20,,,,,num_4,1.076606999966316,num_4,0.25,0.9,0.2,0.5,7.20859,18.02146,return,4.280054900096729,,,,,,,12,22,female,up_down_width,2023_Aug_28_1742,exp1,2021.2.3,59.98681490941918,
,,,,,,,,,,,,,,,,4,9.5,9.833333333333334,10.166666666666666,10.5,0,0.3333333333333333,0.08333333333333333,0.25,1.25,10,match,36.05,342,354,367,379,0,9,9,9,9,0,,,,,3,0,3,0,0,52,52,3,,,,,num_4,1.3956850999966264,num_4,0.15,1.2,0.3,0.5,10.81288,18.02146,return,9.416471599950455,,,,,,,12,22,female,up_down_width,2023_Aug_28_1742,exp1,2021.2.3,59.98681490941918,
,,,,,,,,,,,,,,,,5,8.95,9.475,10,10.525,11.05,0.525,0.42500000000000004,0.1,2.2,10,match,36.05,323,342,361,379,398,9,9,9,9,9,,,,,3,0,3,0,0,53,53,25,,,,,num_5,2.7231415000278503,num_5,0.35,1.1,0.15000000000000002,0.75,5.40644,27.0322,return,3.9086807999992743,,,,,,,12,22,female,up_down_width,2023_Aug_28_1742,exp1,2021.2.3,59.98681490941918,
,,,,,,,,,,,,,,,,,,,,,,,,,,,,,,,,,,,,,,,,,,,3,0,3,0,,,,,,,,,,,,,,,,,,,,,,2515.936437599943,None,2515.936437599943,None,12,22,female,up_down_width,2023_Aug_28_1742,exp1,2021.2.3,59.98681490941918,
,,,,,,,,,,,,,,,,5,8.95,9.475,10,10.525,11.05,0.525,0.42500000000000004,0.1,2.2,10,match,36.05,323,342,361,379,398,9,9,9,9,9,,,,,4,0,4,0,0,0,0,25,,,,,num_4,1.1516247999388725,num_4,0.35,0.5,0.2,0.6,7.20859,21.62576,return,4.432213300024159,,,,,,,12,22,female,up_down_width,2023_Aug_28_1742,exp1,2021.2.3,59.98681490941918,
,,,,,,,,,,,,,,,,4,9.1,9.7,10.3,10.9,0,0.6,0.5,0.1,1.9,10,match,36.05,328,350,371,393,0,9,9,9,9,0,,,,,4,0,4,0,0,1,1,13,,,,,num_4,1.1069188000401482,num_4,0.2,1.0,0.10000000000000002,1.0,3.60429,36.04293,return,1.589700200012885,,,,,,,12,22,female,up_down_width,2023_Aug_28_1742,exp1,2021.2.3,59.98681490941918,
,,,,,,,,,,,,,,,,3,9,10,11,0,0,0.9999999999999999,0.5999999999999999,0.4,2.4,10,match,36.05,324,361,397,0,0,9,9,9,0,0,,,,,4,0,4,0,0,2,2,41,,,,,num_3,1.3419636000180617,num_3,0.2,1.2,0.2,0.9,7.20859,32.43864,return,2.1979872999945655,,,,,,,12,22,female,up_down_width,2023_Aug_28_1742,exp1,2021.2.3,59.98681490941918,
,,,,,,,,,,,,,,,,3,9.5,10,10.5,0,0,0.5,0.09999999999999998,0.4,1.4000000000000001,10,initial,36.05,342,361,379,0,0,9,9,9,0,0,,,,,4,0,4,0,0,3,3,4,,,,,num_3,1.6638214000267908,num_3,0.1,0.8,0.25,0.6,9.01073,21.62576,return,4.76479789998848,,,,,,,12,22,female,up_down_width,2023_Aug_28_1742,exp1,2021.2.3,59.98681490941918,
,,,,,,,,,,,,,,,,5,8.65,9.325,10,10.675,11.35,0.675,0.42500000000000004,0.25,2.95,10,match,36.05,312,336,361,385,409,9,9,9,9,9,,,,,4,0,4,0,0,4,4,33,,,,,num_5,1.0509349999483675,num_5,0.15,1.3,0.2,0.9,7.20859,32.43864,return,5.0877749000210315,,,,,,,12,22,female,up_down_width,2023_Aug_28_1742,exp1,2021.2.3,59.98681490941918,
,,,,,,,,,,,,,,,,4,9.1,9.7,10.3,10.9,0,0.5999999999999999,0.3499999999999999,0.25,2.05,10,match,36.05,328,350,371,393,0,9,9,9,9,0,,,,,4,0,4,0,0,5,5,15,,,,,num_4,0.9551384999649599,num_4,0.35,1.1,0.25,0.8,9.01073,28.83434,return,4.94715569994878,,,,,,,12,22,female,up_down_width,2023_Aug_28_1742,exp1,2021.2.3,59.98681490941918,
,,,,,,,,,,,,,,,,4,9.25,9.75,10.25,10.75,0,0.5,0.09999999999999998,0.4,1.9,10,initial,36.05,333,351,370,388,0,9,9,9,9,0,,,,,4,0,4,0,0,6,6,22,,,,,num_4,1.334347700001672,num_4,0.4,1.3,0.30000000000000004,0.7,10.81288,25.23005,return,3.8881409000605345,,,,,,,12,22,female,up_down_width,2023_Aug_28_1742,exp1,2021.2.3,59.98681490941918,
,,,,,,,,,,,,,,,,5,8.2,9.1,10,10.9,11.8,0.9,0.8,0.1,3.7,10,initial,36.05,296,328,361,393,425,9,9,9,9,9,,,,,4,0,4,0,0,7,7,48,,,,,num_4,1.9333867999957874,num_4,0.2,0.6,0.15000000000000002,1.3,5.40644,46.85581,return,2.9747729999944568,,,,,,,12,22,female,up_down_width,2023_Aug_28_1742,exp1,2021.2.3,59.98681490941918,
,,,,,,,,,,,,,,,,5,9,9.5,10,10.5,11,0.5,0.09999999999999998,0.4,2.4,10,initial,36.05,324,342,361,379,397,9,9,9,9,9,,,,,4,0,4,0,0,8,8,40,,,,,num_4,1.1564546000445262,num_4,0.2,1.1,0.25,0.7,9.01073,25.23005,return,4.901576999924146,,,,,,,12,22,female,up_down_width,2023_Aug_28_1742,exp1,2021.2.3,59.98681490941918,
,,,,,,,,,,,,,,,,5,9,9.5,10,10.5,11,0.5,0.25,0.25,2.25,10,initial,36.05,324,342,361,379,397,9,9,9,9,9,,,,,4,0,4,0,0,9,9,38,,,,,num_5,1.5399441999616101,num_5,0.35,1.3,0.3,1.05,10.81288,37.84507,return,2.6133200000040233,,,,,,,12,22,female,up_down_width,2023_Aug_28_1742,exp1,2021.2.3,59.98681490941918,
,,,,,,,,,,,,,,,,4,9.5,9.833333333333334,10.166666666666666,10.5,0,0.33333333333333337,0.23333333333333336,0.1,1.1,10,match,36.05,342,354,367,379,0,9,9,9,9,0,,,,,4,0,4,0,0,10,10,1,,,,,num_4,1.1991434000665322,num_4,0.25,0.8,0.2,0.9,7.20859,32.43864,return,2.781540500000119,,,,,,,12,22,female,up_down_width,2023_Aug_28_1742,exp1,2021.2.3,59.98681490941918,
,,,,,,,,,,,,,,,,5,8.65,9.325,10,10.675,11.35,0.675,0.275,0.4,3.1,10,match,36.05,312,336,361,385,409,9,9,9,9,9,,,,,4,0,4,0,0,11,11,35,,,,,num_5,1.2558449000352994,num_5,0.25,0.5,0.3,0.65,10.81288,23.4279,return,3.5406742999330163,,,,,,,12,22,female,up_down_width,2023_Aug_28_1742,exp1,2021.2.3,59.98681490941918,
,,,,,,,,,,,,,,,,3,9.1,10,10.9,0,0,0.9,0.65,0.25,2.05,10,initial,36.05,328,361,393,0,0,9,9,9,0,0,,,,,4,0,4,0,0,12,12,14,,,,,num_3,1.288998999982141,num_3,0.45,0.8,0.35000000000000003,1.05,12.61502,37.84507,return,4.244193100021221,,,,,,,12,22,female,up_down_width,2023_Aug_28_1742,exp1,2021.2.3,59.98681490941918,
,,,,,,,,,,,,,,,,3,9.1,10,10.9,0,0,0.9,0.8,0.1,1.9000000000000001,10,initial,36.05,328,361,393,0,0,9,9,9,0,0,,,,,4,0,4,0,0,13,13,12,,,,,num_3,1.6238848000066355,num_3,0.45,0.7,0.25000000000000006,0.85,9.01073,30.63649,return,3.4769118999829516,,,,,,,12,22,female,up_down_width,2023_Aug_28_1742,exp1,2021.2.3,59.98681490941918,
,,,,,,,,,,,,,,,,5,9.175,9.5875,10,10.4125,10.825,0.4125,0.16249999999999998,0.25,1.9,10,match,36.05,331,346,361,375,390,9,9,9,9,9,,,,,4,0,4,0,0,14,14,23,,,,,num_5,1.002406199928373,num_5,0.25,0.8,0.25,0.7,9.01073,25.23005,return,3.5052607000106946,,,,,,,12,22,female,up_down_width,2023_Aug_28_1742,exp1,2021.2.3,59.98681490941918,
,,,,,,,,,,,,,,,,3,9.3,10,10.7,0,0,0.7,0.29999999999999993,0.4,1.8,10,initial,36.05,335,361,386,0,0,9,9,9,0,0,,,,,4,0,4,0,0,15,15,10,,,,,num_3,1.6300220999401063,num_3,0.1,1.2,0.35,1.05,12.61502,37.84507,return,4.140496599953622,,,,,,,12,22,female,up_down_width,2023_Aug_28_1742,exp1,2021.2.3,59.98681490941918,
,,,,,,,,,,,,,,,,3,8.2,10,11.8,0,0,1.7999999999999998,1.4,0.4,4,10,match,36.05,296,361,425,0,0,9,9,9,0,0,,,,,4,0,4,0,0,16,16,53,,,,,num_3,1.671962899970822,num_3,0.25,1.2,0.3,0.95,10.81288,34.24078,return,4.387870599981397,,,,,,,12,22,female,up_down_width,2023_Aug_28_1742,exp1,2021.2.3,59.98681490941918,
,,,,,,,,,,,,,,,,5,8.95,9.475,10,10.525,11.05,0.525,0.275,0.25,2.35,10,match,36.05,323,342,361,379,398,9,9,9,9,9,,,,,4,0,4,0,0,17,17,27,,,,,num_6,1.0690579999936745,num_6,0.35,0.8,0.25,0.6,9.01073,21.62576,return,5.296950399992056,,,,,,,12,22,female,up_down_width,2023_Aug_28_1742,exp1,2021.2.3,59.98681490941918,
,,,,,,,,,,,,,,,,3,9.1,10,10.9,0,0,0.9,0.5,0.4,2.2,10,initial,36.05,328,361,393,0,0,9,9,9,0,0,,,,,4,0,4,0,0,18,18,16,,,,,num_3,0.948007799917832,num_3,0.2,1.3,0.35,1.1,12.61502,39.64722,return,3.5806883999612182,,,,,,,12,22,female,up_down_width,2023_Aug_28_1742,exp1,2021.2.3,59.98681490941918,
,,,,,,,,,,,,,,,,3,8.525,10,11.475,0,0,1.475,1.225,0.25,3.2,10,match,36.05,307,361,414,0,0,9,9,9,0,0,,,,,4,0,4,0,0,19,19,47,,,,,num_4,1.3606074000708759,num_4,0.15,0.3,0.25,0.9,9.01073,32.43864,return,4.056641299976036,,,,,,,12,22,female,up_down_width,2023_Aug_28_1742,exp1,2021.2.3,59.98681490941918,
,,,,,,,,,,,,,,,,4,9.25,9.75,10.25,10.75,0,0.5,0.4,0.1,1.6,10,initial,36.05,333,351,370,388,0,9,9,9,9,0,,,,,4,0,4,0,0,20,20,18,,,,,num_4,1.01522180007305,num_4,0.15,1.0,0.2,1.0,7.20859,36.04293,return,2.638279299950227,,,,,,,12,22,female,up_down_width,2023_Aug_28_1742,exp1,2021.2.3,59.98681490941918,
,,,,,,,,,,,,,,,,4,9.425,9.808333333333334,10.191666666666666,10.575,0,0.3833333333333333,0.1333333333333333,0.25,1.4,10,match,36.05,340,354,367,381,0,9,9,9,9,0,,,,,4,0,4,0,0,21,21,5,,,,,num_4,1.6692796000279486,num_4,0.45,0.8,0.25000000000000006,0.8,9.01073,28.83434,return,2.176637399941683,,,,,,,12,22,female,up_down_width,2023_Aug_28_1742,exp1,2021.2.3,59.98681490941918,
,,,,,,,,,,,,,,,,5,8.6,9.3,10,10.7,11.4,0.7,0.29999999999999993,0.4,3.1999999999999997,10,initial,36.05,310,335,361,386,411,9,9,9,9,9,,,,,4,0,4,0,0,22,22,46,,,,,num_4,1.1486855000257492,num_4,0.2,0.7,0.25,0.7,9.01073,25.23005,return,3.179669399978593,,,,,,,12,22,female,up_down_width,2023_Aug_28_1742,exp1,2021.2.3,59.98681490941918,
,,,,,,,,,,,,,,,,4,8.95,9.65,10.35,11.05,0,0.7,0.6,0.1,2.1999999999999997,10,initial,36.05,323,348,373,398,0,9,9,9,9,0,,,,,4,0,4,0,0,23,23,24,,,,,num_4,0.8600789000047371,num_4,0.1,0.3,0.15000000000000002,1.0,5.40644,36.04293,return,2.9995317000430077,,,,,,,12,22,female,up_down_width,2023_Aug_28_1742,exp1,2021.2.3,59.98681490941918,
,,,,,,,,,,,,,,,,5,8.2,9.1,10,10.9,11.8,0.9,0.5,0.4,4,10,initial,36.05,296,328,361,393,425,9,9,9,9,9,,,,,4,0,4,0,0,24,24,52,,,,,num_5,0.9727388999890536,num_5,0.15,0.8,0.25,0.9,9.01073,32.43864,return,3.6047553999815136,,,,,,,12,22,female,up_down_width,2023_Aug_28_1742,exp1,2021.2.3,59.98681490941918,
,,,,,,,,,,,,,,,,5,9,9.5,10,10.5,11,0.5,0.4,0.1,2.1,10,initial,36.05,324,342,361,379,397,9,9,9,9,9,,,,,4,0,4,0,0,25,25,36,,,,,num_5,1.4051143999677151,num_5,0.4,1.1,0.20000000000000007,1.35,7.20859,48.65795,return,3.1084075000835583,,,,,,,12,22,female,up_down_width,2023_Aug_28_1742,exp1,2021.2.3,59.98681490941918,
,,,,,,,,,,,,,,,,4,8.65,9.55,10.45,11.35,0,0.9,0.65,0.25,2.95,10,initial,36.05,312,344,377,409,0,9,9,9,9,0,,,,,4,0,4,0,0,26,26,32,,,,,num_4,0.919826400000602,num_4,0.35,0.8,0.2,1.4,7.20859,50.4601,return,3.4871151000261307,,,,,,,12,22,female,up_down_width,2023_Aug_28_1742,exp1,2021.2.3,59.98681490941918,
,,,,,,,,,,,,,,,,4,9.25,9.75,10.25,10.75,0,0.5,0.25,0.25,1.75,10,initial,36.05,333,351,370,388,0,9,9,9,9,0,,,,,4,0,4,0,0,27,27,20,,,,,num_4,0.9823760000290349,num_4,0.2,0.8,0.2,1.1,7.20859,39.64722,return,3.758002100046724,,,,,,,12,22,female,up_down_width,2023_Aug_28_1742,exp1,2021.2.3,59.98681490941918,
,,,,,,,,,,,,,,,,4,9.1,9.7,10.3,10.9,0,0.6000000000000001,0.20000000000000004,0.4,2.2,10,match,36.05,328,350,371,393,0,9,9,9,9,0,,,,,4,0,4,0,0,28,28,17,,,,,num_4,0.8303619000362232,num_4,0.2,0.7,0.35,0.8,12.61502,28.83434,return,3.1813706000102684,,,,,,,12,22,female,up_down_width,2023_Aug_28_1742,exp1,2021.2.3,59.98681490941918,
,,,,,,,,,,,,,,,,3,9.5,10,10.5,0,0,0.5,0.25,0.25,1.25,10,initial,36.05,342,361,379,0,0,9,9,9,0,0,,,,,4,0,4,0,0,29,29,2,,,,,num_3,1.5818772999336943,num_3,0.3,1.1,0.3,0.9,10.81288,32.43864,return,2.7173226999584585,,,,,,,12,22,female,up_down_width,2023_Aug_28_1742,exp1,2021.2.3,59.98681490941918,
,,,,,,,,,,,,,,,,4,8.65,9.55,10.45,11.35,0,0.9,0.5,0.4,3.1,10,initial,36.05,312,344,377,409,0,9,9,9,9,0,,,,,4,0,4,0,0,30,30,34,,,,,num_4,0.8555968999862671,num_4,0.2,0.3,0.25,0.8,9.01073,28.83434,return,4.611215600045398,,,,,,,12,22,female,up_down_width,2023_Aug_28_1742,exp1,2021.2.3,59.98681490941918,
,,,,,,,,,,,,,,,,3,8.6,10,11.4,0,0,1.4,1.2999999999999998,0.1,2.9,10,match,36.05,310,361,411,0,0,9,9,9,0,0,,,,,4,0,4,0,0,31,31,43,,,,,num_3,1.1766919000074267,num_3,0.3,1.2,0.2,1.05,7.20859,37.84507,return,4.4239954999648035,,,,,,,12,22,female,up_down_width,2023_Aug_28_1742,exp1,2021.2.3,59.98681490941918,
,,,,,,,,,,,,,,,,3,9.3,10,10.7,0,0,0.7,0.44999999999999996,0.25,1.65,10,initial,36.05,335,361,386,0,0,9,9,9,0,0,,,,,4,0,4,0,0,32,32,8,,,,,num_3,0.9698194999946281,num_3,0.1,1.3,0.2,1.15,7.20859,41.44937,return,3.5222002000082284,,,,,,,12,22,female,up_down_width,2023_Aug_28_1742,exp1,2021.2.3,59.98681490941918,
,,,,,,,,,,,,,,,,3,9.5,10,10.5,0,0,0.5,0.4,0.1,1.1,10,initial,36.05,342,361,379,0,0,9,9,9,0,0,,,,,4,0,4,0,0,33,33,0,,,,,num_3,0.9620543000055477,num_3,0.25,0.7,0.15000000000000002,0.75,5.40644,27.0322,return,2.4739932999946177,,,,,,,12,22,female,up_down_width,2023_Aug_28_1742,exp1,2021.2.3,59.98681490941918,
,,,,,,,,,,,,,,,,5,8.65,9.325,10,10.675,11.35,0.6749999999999999,0.575,0.1,2.8,10,match,36.05,312,336,361,385,409,9,9,9,9,9,,,,,4,0,4,0,0,34,34,31,,,,,num_5,1.3698748999740928,num_5,0.4,0.6,0.20000000000000007,0.75,7.20859,27.0322,return,3.870880499947816,,,,,,,12,22,female,up_down_width,2023_Aug_28_1742,exp1,2021.2.3,59.98681490941918,
,,,,,,,,,,,,,,,,5,8.95,9.475,10,10.525,11.05,0.525,0.125,0.4,2.5,10,match,36.05,323,342,361,379,398,9,9,9,9,9,,,,,4,0,4,0,0,35,35,29,,,,,num_4,1.0528706000186503,num_4,0.4,1.2,0.25000000000000006,0.9,9.01073,32.43864,return,4.801215299987234,,,,,,,12,22,female,up_down_width,2023_Aug_28_1742,exp1,2021.2.3,59.98681490941918,
,,,,,,,,,,,,,,,,3,8.2,10,11.8,0,0,1.8,1.55,0.25,3.85,10,match,36.05,296,361,425,0,0,9,9,9,0,0,,,,,4,0,4,0,0,36,36,51,,,,,num_3,1.52950010006316,num_3,0.3,0.5,0.2,1.45,7.20859,52.26225,return,6.249711600015871,,,,,,,12,22,female,up_down_width,2023_Aug_28_1742,exp1,2021.2.3,59.98681490941918,
,,,,,,,,,,,,,,,,4,8.95,9.65,10.35,11.05,0,0.7,0.29999999999999993,0.4,2.5,10,initial,36.05,323,348,373,398,0,9,9,9,9,0,,,,,4,0,4,0,0,37,37,28,,,,,num_4,1.0855063000926748,num_4,0.35,1.3,0.35,1.3,12.61502,46.85581,return,0.9128793999552727,,,,,,,12,22,female,up_down_width,2023_Aug_28_1742,exp1,2021.2.3,59.98681490941918,
,,,,,,,,,,,,,,,,4,9.5,9.833333333333334,10.166666666666666,10.5,0,0.3333333333333333,0.08333333333333333,0.25,1.25,10,match,36.05,342,354,367,379,0,9,9,9,9,0,,,,,4,0,4,0,0,38,38,3,,,,,num_4,1.3281195999588817,num_4,0.15,0.4,0.25,0.4,9.01073,14.41717,return,3.848424000083469,,,,,,,12,22,female,up_down_width,2023_Aug_28_1742,exp1,2021.2.3,59.98681490941918,
,,,,,,,,,,,,,,,,5,8.6,9.3,10,10.7,11.4,0.7,0.6,0.1,2.9,10,initial,36.05,310,335,361,386,411,9,9,9,9,9,,,,,4,0,4,0,0,39,39,42,,,,,num_5,0.968764099990949,num_5,0.15,1.1,0.15,1.1,5.40644,39.64722,return,1.1848892000271007,,,,,,,12,22,female,up_down_width,2023_Aug_28_1742,exp1,2021.2.3,59.98681490941918,
,,,,,,,,,,,,,,,,3,9.3,10,10.7,0,0,0.7,0.6,0.1,1.5,10,initial,36.05,335,361,386,0,0,9,9,9,0,0,,,,,4,0,4,0,0,40,40,6,,,,,num_3,1.17790650005918,num_3,0.3,1.3,0.2,1.25,7.20859,45.05366,return,3.019171899999492,,,,,,,12,22,female,up_down_width,2023_Aug_28_1742,exp1,2021.2.3,59.98681490941918,
,,,,,,,,,,,,,,,,4,9.3,9.766666666666667,10.233333333333333,10.7,0,0.4666666666666667,0.06666666666666665,0.4,1.8,10,match,36.05,335,352,369,386,0,9,9,9,9,0,,,,,4,0,4,0,0,41,41,11,,,,,num_4,2.885411199997179,num_4,0.3,1.1,0.25,0.8,9.01073,28.83434,return,3.4707556000212207,,,,,,,12,22,female,up_down_width,2023_Aug_28_1742,exp1,2021.2.3,59.98681490941918,
,,,,,,,,,,,,,,,,4,9.3,9.766666666666667,10.233333333333333,10.7,0,0.4666666666666667,0.21666666666666665,0.25,1.65,10,match,36.05,335,352,369,386,0,9,9,9,9,0,,,,,4,0,4,0,0,42,42,9,,,,,num_3,1.2010163000086322,num_3,0.3,0.9,0.2,0.85,7.20859,30.63649,return,2.6143595998873934,,,,,,,12,22,female,up_down_width,2023_Aug_28_1742,exp1,2021.2.3,59.98681490941918,
,,,,,,,,,,,,,,,,3,8.2,10,11.8,0,0,1.8000000000000003,1.7000000000000002,0.1,3.7,10,match,36.05,296,361,425,0,0,9,9,9,0,0,,,,,4,0,4,0,0,43,43,49,,,,,num_3,1.1355282999575138,num_3,0.45,1.2,0.25000000000000006,1.2,9.01073,43.25151,return,2.5570761000271887,,,,,,,12,22,female,up_down_width,2023_Aug_28_1742,exp1,2021.2.3,59.98681490941918,
,,,,,,,,,,,,,,,,3,9,10,11,0,0,1,0.9,0.1,2.1,10,match,36.05,324,361,397,0,0,9,9,9,0,0,,,,,4,0,4,0,0,44,44,37,,,,,num_2,1.1140863000182435,num_2,0.4,1.6,0.20000000000000007,1.5,7.20859,54.06439,return,2.635919400025159,,,,,,,12,22,female,up_down_width,2023_Aug_28_1742,exp1,2021.2.3,59.98681490941918,
,,,,,,,,,,,,,,,,3,8.6,10,11.4,0,0,1.4,1.15,0.25,3.05,10,match,36.05,310,361,411,0,0,9,9,9,0,0,,,,,4,0,4,0,0,45,45,45,,,,,num_3,0.9003432999597862,num_3,0.45,0.5,0.20000000000000007,1.05,7.20859,37.84507,return,4.606795600033365,,,,,,,12,22,female,up_down_width,2023_Aug_28_1742,exp1,2021.2.3,59.98681490941918,
,,,,,,,,,,,,,,,,5,9.25,9.625,10,10.375,10.75,0.375,0.275,0.1,1.6,10,match,36.05,333,347,361,374,388,9,9,9,9,9,,,,,4,0,4,0,0,46,46,19,,,,,num_5,1.0592943000374362,num_5,0.2,1.1,0.15000000000000002,0.95,5.40644,34.24078,return,2.3749618000583723,,,,,,,12,22,female,up_down_width,2023_Aug_28_1742,exp1,2021.2.3,59.98681490941918,
,,,,,,,,,,,,,,,,4,9.3,9.766666666666667,10.233333333333333,10.7,0,0.4666666666666667,0.3666666666666667,0.1,1.5,10,match,36.05,335,352,369,386,0,9,9,9,9,0,,,,,4,0,4,0,0,47,47,7,,,,,num_4,1.1295326000545174,num_4,0.2,1.2,0.15000000000000002,0.9,5.40644,32.43864,return,2.186673999996856,,,,,,,12,22,female,up_down_width,2023_Aug_28_1742,exp1,2021.2.3,59.98681490941918,
,,,,,,,,,,,,,,,,5,8.6,9.3,10,10.7,11.4,0.7,0.44999999999999996,0.25,3.05,10,initial,36.05,310,335,361,386,411,9,9,9,9,9,,,,,4,0,4,0,0,48,48,44,,,,,num_5,0.9028332999441773,num_5,0.45,0.9,0.20000000000000007,0.9,7.20859,32.43864,return,3.6969117000699043,,,,,,,12,22,female,up_down_width,2023_Aug_28_1742,exp1,2021.2.3,59.98681490941918,
,,,,,,,,,,,,,,,,4,8.95,9.65,10.35,11.05,0,0.7,0.44999999999999996,0.25,2.3499999999999996,10,initial,36.05,323,348,373,398,0,9,9,9,9,0,,,,,4,0,4,0,0,49,49,26,,,,,num_4,0.8859183000167832,num_4,0.15,0.8,0.2,0.9,7.20859,32.43864,return,2.801323299994692,,,,,,,12,22,female,up_down_width,2023_Aug_28_1742,exp1,2021.2.3,59.98681490941918,
,,,,,,,,,,,,,,,,5,8.2,9.1,10,10.9,11.8,0.9,0.65,0.25,3.85,10,initial,36.05,296,328,361,393,425,9,9,9,9,9,,,,,4,0,4,0,0,50,50,50,,,,,num_5,0.9060690000187606,num_5,0.2,0.7,0.2,0.75,7.20859,27.0322,return,2.053375900024548,,,,,,,12,22,female,up_down_width,2023_Aug_28_1742,exp1,2021.2.3,59.98681490941918,
,,,,,,,,,,,,,,,,5,9.25,9.625,10,10.375,10.75,0.375,0.125,0.25,1.75,10,match,36.05,333,347,361,374,388,9,9,9,9,9,,,,,4,0,4,0,0,51,51,21,,,,,num_4,1.013463499955833,num_4,0.15,0.4,0.2,0.7,7.20859,25.23005,return,3.7570423999568447,,,,,,,12,22,female,up_down_width,2023_Aug_28_1742,exp1,2021.2.3,59.98681490941918,
,,,,,,,,,,,,,,,,3,9,10,11,0,0,1,0.75,0.25,2.25,10,match,36.05,324,361,397,0,0,9,9,9,0,0,,,,,4,0,4,0,0,52,52,39,,,,,num_3,1.2620272999629378,num_3,0.25,0.5,0.15000000000000002,0.8,5.40644,28.83434,return,4.057310500065796,,,,,,,12,22,female,up_down_width,2023_Aug_28_1742,exp1,2021.2.3,59.98681490941918,
,,,,,,,,,,,,,,,,4,8.65,9.55,10.45,11.35,0,0.9,0.8,0.1,2.8000000000000003,10,initial,36.05,312,344,377,409,0,9,9,9,9,0,,,,,4,0,4,0,0,53,53,30,,,,,num_4,0.862808599951677,num_4,0.1,0.3,0.15000000000000002,0.9,5.40644,32.43864,return,3.180676900083199,,,,,,,12,22,female,up_down_width,2023_Aug_28_1742,exp1,2021.2.3,59.98681490941918,
,,,,,,,,,,,,,,,,,,,,,,,,,,,,,,,,,,,,,,,,,,,4,0,4,0,,,,,,,,,,,,,,,,,,,,,,2879.053299599909,None,2879.053299599909,None,12,22,female,up_down_width,2023_Aug_28_1742,exp1,2021.2.3,59.98681490941918,
,,,,,,,,,,,,,,,,4,9.25,9.75,10.25,10.75,0,0.5,0.25,0.25,1.75,10,initial,36.05,333,351,370,388,0,9,9,9,9,0,,,,,5,0,5,0,0,0,0,20,,,,,num_5,1.346121000009589,num_5,0.3,0.6,0.25,0.6,9.01073,21.62576,return,1.753836699994281,,,,,,,12,22,female,up_down_width,2023_Aug_28_1742,exp1,2021.2.3,59.98681490941918,
,,,,,,,,,,,,,,,,3,8.2,10,11.8,0,0,1.8000000000000003,1.7000000000000002,0.1,3.7,10,match,36.05,296,361,425,0,0,9,9,9,0,0,,,,,5,0,5,0,0,1,1,49,,,,,num_3,1.309442099998705,num_3,0.25,0.7,0.15000000000000002,1.15,5.40644,41.44937,return,3.366787899984047,,,,,,,12,22,female,up_down_width,2023_Aug_28_1742,exp1,2021.2.3,59.98681490941918,
,,,,,,,,,,,,,,,,5,8.6,9.3,10,10.7,11.4,0.7,0.44999999999999996,0.25,3.05,10,initial,36.05,310,335,361,386,411,9,9,9,9,9,,,,,5,0,5,0,0,2,2,44,,,,,num_5,0.8499580000061542,num_5,0.1,0.5,0.15000000000000002,0.75,5.40644,27.0322,return,3.3418977999826893,,,,,,,12,22,female,up_down_width,2023_Aug_28_1742,exp1,2021.2.3,59.98681490941918,
,,,,,,,,,,,,,,,,4,9.1,9.7,10.3,10.9,0,0.6,0.5,0.1,1.9,10,match,36.05,328,350,371,393,0,9,9,9,9,0,,,,,5,0,5,0,0,3,3,13,,,,,num_3,0.9621450999984518,num_3,0.1,0.4,0.15000000000000002,0.85,5.40644,30.63649,return,3.088113300036639,,,,,,,12,22,female,up_down_width,2023_Aug_28_1742,exp1,2021.2.3,59.98681490941918,
,,,,,,,,,,,,,,,,5,8.2,9.1,10,10.9,11.8,0.9,0.5,0.4,4,10,initial,36.05,296,328,361,393,425,9,9,9,9,9,,,,,5,0,5,0,0,4,4,52,,,,,num_5,0.9019809999736026,num_5,0.2,1.0,0.25,1.0,9.01073,36.04293,return,2.0639668999938294,,,,,,,12,22,female,up_down_width,2023_Aug_28_1742,exp1,2021.2.3,59.98681490941918,
,,,,,,,,,,,,,,,,3,9.5,10,10.5,0,0,0.5,0.09999999999999998,0.4,1.4000000000000001,10,initial,36.05,342,361,379,0,0,9,9,9,0,0,,,,,5,0,5,0,0,5,5,4,,,,,num_3,1.045504300040193,num_3,0.3,1.3,0.3,0.45,10.81288,16.21932,return,5.929470699978992,,,,,,,12,22,female,up_down_width,2023_Aug_28_1742,exp1,2021.2.3,59.98681490941918,
,,,,,,,,,,,,,,,,3,8.2,10,11.8,0,0,1.8,1.55,0.25,3.85,10,match,36.05,296,361,425,0,0,9,9,9,0,0,,,,,5,0,5,0,0,6,6,51,,,,,num_4,2.7992321000201628,num_4,0.25,1.0,0.25,1.6,9.01073,57.66869,return,2.3633567000506446,,,,,,,12,22,female,up_down_width,2023_Aug_28_1742,exp1,2021.2.3,59.98681490941918,
,,,,,,,,,,,,,,,,4,8.95,9.65,10.35,11.05,0,0.7,0.6,0.1,2.1999999999999997,10,initial,36.05,323,348,373,398,0,9,9,9,9,0,,,,,5,0,5,0,0,7,7,24,,,,,num_4,1.0442265999736264,num_4,0.2,1.3,0.15000000000000002,1.3,5.40644,46.85581,return,1.6083502999972552,,,,,,,12,22,female,up_down_width,2023_Aug_28_1742,exp1,2021.2.3,59.98681490941918,
,,,,,,,,,,,,,,,,5,9,9.5,10,10.5,11,0.5,0.09999999999999998,0.4,2.4,10,initial,36.05,324,342,361,379,397,9,9,9,9,9,,,,,5,0,5,0,0,8,8,40,,,,,num_4,1.898598299943842,num_4,0.25,1.0,0.25,0.7,9.01073,25.23005,return,3.8376255999319255,,,,,,,12,22,female,up_down_width,2023_Aug_28_1742,exp1,2021.2.3,59.98681490941918,
,,,,,,,,,,,,,,,,4,8.65,9.55,10.45,11.35,0,0.9,0.5,0.4,3.1,10,initial,36.05,312,344,377,409,0,9,9,9,9,0,,,,,5,0,5,0,0,9,9,34,,,,,num_4,0.9786258999956772,num_4,0.1,0.9,0.3,0.9,10.81288,32.43864,return,2.3290572999976575,,,,,,,12,22,female,up_down_width,2023_Aug_28_1742,exp1,2021.2.3,59.98681490941918,
,,,,,,,,,,,,,,,,5,9.25,9.625,10,10.375,10.75,0.375,0.125,0.25,1.75,10,match,36.05,333,347,361,374,388,9,9,9,9,9,,,,,5,0,5,0,0,10,10,21,,,,,num_5,1.0618316000327468,num_5,0.2,1.0,0.3,0.8,10.81288,28.83434,return,2.438680800027214,,,,,,,12,22,female,up_down_width,2023_Aug_28_1742,exp1,2021.2.3,59.98681490941918,
,,,,,,,,,,,,,,,,4,9.425,9.808333333333334,10.191666666666666,10.575,0,0.3833333333333333,0.1333333333333333,0.25,1.4,10,match,36.05,340,354,367,381,0,9,9,9,9,0,,,,,5,0,5,0,0,11,11,5,,,,,num_4,1.562706100055948,num_4,0.2,0.6,0.3,0.6,10.81288,21.62576,return,2.5531032999278978,,,,,,,12,22,female,up_down_width,2023_Aug_28_1742,exp1,2021.2.3,59.98681490941918,
,,,,,,,,,,,,,,,,4,9.3,9.766666666666667,10.233333333333333,10.7,0,0.4666666666666667,0.21666666666666665,0.25,1.65,10,match,36.05,335,352,369,386,0,9,9,9,9,0,,,,,5,0,5,0,0,12,12,9,,,,,num_3,1.3307562998961657,num_3,0.4,0.7,0.25000000000000006,0.7,9.01073,25.23005,return,1.9163806000724435,,,,,,,12,22,female,up_down_width,2023_Aug_28_1742,exp1,2021.2.3,59.98681490941918,
,,,,,,,,,,,,,,,,4,8.95,9.65,10.35,11.05,0,0.7,0.44999999999999996,0.25,2.3499999999999996,10,initial,36.05,323,348,373,398,0,9,9,9,9,0,,,,,5,0,5,0,0,13,13,26,,,,,num_4,0.9786885000066832,num_4,0.3,1.2,0.2,0.8,7.20859,28.83434,return,2.761004599975422,,,,,,,12,22,female,up_down_width,2023_Aug_28_1742,exp1,2021.2.3,59.98681490941918,
,,,,,,,,,,,,,,,,3,9.1,10,10.9,0,0,0.9,0.5,0.4,2.2,10,initial,36.05,328,361,393,0,0,9,9,9,0,0,,,,,5,0,5,0,0,14,14,16,,,,,num_3,1.140445900033228,num_3,0.15,0.7,0.25,0.7,9.01073,25.23005,return,2.469128500088118,,,,,,,12,22,female,up_down_width,2023_Aug_28_1742,exp1,2021.2.3,59.98681490941918,
,,,,,,,,,,,,,,,,4,9.5,9.833333333333334,10.166666666666666,10.5,0,0.3333333333333333,0.08333333333333333,0.25,1.25,10,match,36.05,342,354,367,379,0,9,9,9,9,0,,,,,5,0,5,0,0,15,15,3,,,,,num_4,1.0038191999774426,num_4,0.25,0.8,0.2,0.6,7.20859,21.62576,return,3.3302110000513494,,,,,,,12,22,female,up_down_width,2023_Aug_28_1742,exp1,2021.2.3,59.98681490941918,
,,,,,,,,,,,,,,,,4,8.65,9.55,10.45,11.35,0,0.9,0.65,0.25,2.95,10,initial,36.05,312,344,377,409,0,9,9,9,9,0,,,,,5,0,5,0,0,16,16,32,,,,,num_4,0.9600710000377148,num_4,0.15,0.9,0.2,0.9,7.20859,32.43864,return,2.056193400057964,,,,,,,12,22,female,up_down_width,2023_Aug_28_1742,exp1,2021.2.3,59.98681490941918,
,,,,,,,,,,,,,,,,5,9.175,9.5875,10,10.4125,10.825,0.4125,0.16249999999999998,0.25,1.9,10,match,36.05,331,346,361,375,390,9,9,9,9,9,,,,,5,0,5,0,0,17,17,23,,,,,num_5,0.904485399951227,num_5,0.1,0.7,0.2,0.7,7.20859,25.23005,return,2.7227231999859214,,,,,,,12,22,female,up_down_width,2023_Aug_28_1742,exp1,2021.2.3,59.98681490941918,
,,,,,,,,,,,,,,,,3,9,10,11,0,0,0.9999999999999999,0.5999999999999999,0.4,2.4,10,match,36.05,324,361,397,0,0,9,9,9,0,0,,,,,5,0,5,0,0,18,18,41,,,,,num_3,1.0486642000032589,num_3,0.45,0.6,0.35000000000000003,0.7,12.61502,25.23005,return,2.9240207999246195,,,,,,,12,22,female,up_down_width,2023_Aug_28_1742,exp1,2021.2.3,59.98681490941918,
,,,,,,,,,,,,,,,,3,9.5,10,10.5,0,0,0.5,0.25,0.25,1.25,10,initial,36.05,342,361,379,0,0,9,9,9,0,0,,,,,5,0,5,0,0,19,19,2,,,,,num_3,1.093407899956219,num_3,0.4,1.3,0.30000000000000004,1.0,10.81288,36.04293,return,4.935747299925424,,,,,,,12,22,female,up_down_width,2023_Aug_28_1742,exp1,2021.2.3,59.98681490941918,
,,,,,,,,,,,,,,,,5,8.65,9.325,10,10.675,11.35,0.6749999999999999,0.575,0.1,2.8,10,match,36.05,312,336,361,385,409,9,9,9,9,9,,,,,5,0,5,0,0,20,20,31,,,,,num_4,1.1199620000552386,num_4,0.4,0.9,0.25000000000000006,1.1,9.01073,39.64722,return,3.024940099916421,,,,,,,12,22,female,up_down_width,2023_Aug_28_1742,exp1,2021.2.3,59.98681490941918,
,,,,,,,,,,,,,,,,4,9.1,9.7,10.3,10.9,0,0.6000000000000001,0.20000000000000004,0.4,2.2,10,match,36.05,328,350,371,393,0,9,9,9,9,0,,,,,5,0,5,0,0,21,21,17,,,,,num_4,0.8633131999522448,num_4,0.3,0.8,0.3,0.8,10.81288,28.83434,return,0.8926672000670806,,,,,,,12,22,female,up_down_width,2023_Aug_28_1742,exp1,2021.2.3,59.98681490941918,
,,,,,,,,,,,,,,,,5,8.6,9.3,10,10.7,11.4,0.7,0.6,0.1,2.9,10,initial,36.05,310,335,361,386,411,9,9,9,9,9,,,,,5,0,5,0,0,22,22,42,,,,,num_5,0.9607441000407562,num_5,0.2,0.9,0.15000000000000002,0.95,5.40644,34.24078,return,2.0728544000303373,,,,,,,12,22,female,up_down_width,2023_Aug_28_1742,exp1,2021.2.3,59.98681490941918,
,,,,,,,,,,,,,,,,4,9.1,9.7,10.3,10.9,0,0.5999999999999999,0.3499999999999999,0.25,2.05,10,match,36.05,328,350,371,393,0,9,9,9,9,0,,,,,5,0,5,0,0,23,23,15,,,,,num_4,1.0206252000061795,num_4,0.15,1.0,0.2,1.0,7.20859,36.04293,return,2.261631599976681,,,,,,,12,22,female,up_down_width,2023_Aug_28_1742,exp1,2021.2.3,59.98681490941918,
,,,,,,,,,,,,,,,,4,9.3,9.766666666666667,10.233333333333333,10.7,0,0.4666666666666667,0.3666666666666667,0.1,1.5,10,match,36.05,335,352,369,386,0,9,9,9,9,0,,,,,5,0,5,0,0,24,24,7,,,,,num_4,1.5527932000113651,num_4,0.35,0.9,0.2,1.0,7.20859,36.04293,return,2.3855530000291765,,,,,,,12,22,female,up_down_width,2023_Aug_28_1742,exp1,2021.2.3,59.98681490941918,
