amount_p,posx1_p,posx2_p,posx3_p,posx4_p,posx5_p,center_to_center_p,edge_to_edge_p,w_p,stim_lengt_p,eccentricity_p,line1_p,line2_p,line3_p,line4_p,line5_p,amount,posx1,posx2,posx3,posx4,posx5,center_to_center,edge_to_edge,w,stim_length,eccentricity,trial_type,deg_to_pix_index,posx1_in_pix,posx2_in_pix,posx3_in_pix,posx4_in_pix,posx5_in_pix,line1,line2,line3,line4,line5,trials.thisRepN,trials.thisTrialN,trials.thisN,trials.thisIndex,blocks.thisRepN,blocks.thisTrialN,blocks.thisN,blocks.thisIndex,loop.thisRepN,loop.thisTrialN,loop.thisN,loop.thisIndex,key_resp_3.keys,key_resp_3.rt,key_resp_3.started,key_resp_3.stopped,key_resp.keys,key_resp.rt,response,starting_width_deg,starting_space_deg,response_width_degree,response_spacing_degree,response_width_pixel,response_spacing_pixel,next_5.keys,next_5.rt,key_resp_4.keys,key_resp_4.rt,text_3.started,text_3.stopped,text_4.started,text_4.stopped,participant,age,gender,resp_group,date,expName,psychopyVersion,frameRate,
,,,,,,,,,,,,,,,,,,,,,,,,,,,,,,,,,,,,,,,,,,,,,,,,,,,c,97.25797220000004,33.959956499999976,None,,,,,,,,,,,,,,,,,,13,21,female,left_right_width,2023_Oct_10_1333,exp1,2021.2.3,60.06283774085927,
4,9.25,9.75,10.25,10.75,0,0.5,0.25,0.25,1.75,10,9,9,9,9,0,,,,,,,,,,,,,,,,,,,,,,,,0,0,0,4,,,,,,,,,,,,,num_3,4.437144199999921,num_3,0.25,1.2,0.10000000000000002,0.7,3.60429,25.23005,return,19.07373789999997,,,,,,,13,21,female,left_right_width,2023_Oct_10_1333,exp1,2021.2.3,60.06283774085927,
4,8.65,9.55,10.45,11.35,0,0.9,0.5,0.4,3.1,10,9,9,9,9,0,,,,,,,,,,,,,,,,,,,,,,,,0,1,1,5,,,,,,,,,,,,,num_3,4.631958499999882,num_3,0.35,0.5,0.25,0.6,9.01073,21.62576,return,4.860911999999871,,,,,,,13,21,female,left_right_width,2023_Oct_10_1333,exp1,2021.2.3,60.06283774085927,
3,9,10,11,0,0,1,0.9,0.1,2.1,10,9,9,9,0,0,,,,,,,,,,,,,,,,,,,,,,,,0,2,2,1,,,,,,,,,,,,,num_2,3.9237717000000885,num_2,0.1,1.6,0.05,1.0,1.80215,36.04293,return,3.3349086999999145,,,,,,,13,21,female,left_right_width,2023_Oct_10_1333,exp1,2021.2.3,60.06283774085927,
5,9.25,9.625,10,10.375,10.75,0.375,0.125,0.25,1.75,10,9,9,9,9,9,,,,,,,,,,,,,,,,,,,,,,,,0,3,3,6,,,,,,,,,,,,,num_4,1.8850502000000233,num_4,0.4,1.0,0.25000000000000006,0.6,9.01073,21.62576,return,4.846650899999986,,,,,,,13,21,female,left_right_width,2023_Oct_10_1333,exp1,2021.2.3,60.06283774085927,
3,9.5,10,10.5,0,0,0.5,0.4,0.1,1.1,10,9,9,9,0,0,,,,,,,,,,,,,,,,,,,,,,,,0,4,4,0,,,,,,,,,,,,,num_3,0.9835768000000371,num_3,0.4,1,0.15000000000000008,0.85,5.40644,30.63649,return,3.98188140000002,,,,,,,13,21,female,left_right_width,2023_Oct_10_1333,exp1,2021.2.3,60.06283774085927,
5,8.6,9.3,10,10.7,11.4,0.7,0.29999999999999993,0.4,3.1999999999999997,10,9,9,9,9,9,,,,,,,,,,,,,,,,,,,,,,,,0,5,5,7,,,,,,,,,,,,,num_4,2.6152291999999306,num_4,0.3,1.2,0.44999999999999996,1.0,16.21932,36.04293,return,3.0534276000000773,,,,,,,13,21,female,left_right_width,2023_Oct_10_1333,exp1,2021.2.3,60.06283774085927,
4,9.5,9.833333333333334,10.166666666666666,10.5,0,0.33333333333333337,0.23333333333333336,0.1,1.1,10,9,9,9,9,0,,,,,,,,,,,,,,,,,,,,,,,,0,6,6,3,,,,,,,,,,,,,num_4,1.6684126000000106,num_4,0.4,0.7,0.10000000000000007,0.6,3.60429,21.62576,return,3.600576799999999,,,,,,,13,21,female,left_right_width,2023_Oct_10_1333,exp1,2021.2.3,60.06283774085927,
5,9,9.5,10,10.5,11,0.5,0.09999999999999998,0.4,2.4,10,9,9,9,9,9,,,,,,,,,,,,,,,,,,,,,,,,0,7,7,8,,,,,,,,,,,,,num_4,1.7835621000001538,num_4,0.1,1.1,0.39999999999999997,0.8,14.41717,28.83434,return,3.823451499999919,,,,,,,13,21,female,left_right_width,2023_Oct_10_1333,exp1,2021.2.3,60.06283774085927,
3,8.2,10,11.8,0,0,1.7999999999999998,1.4,0.4,4,10,9,9,9,0,0,,,,,,,,,,,,,,,,,,,,,,,,0,8,8,2,,,,,,,,,,,,,num_2,1.0211699999999837,num_2,0.35,1.6,0.44999999999999996,1.3,16.21932,46.85581,return,3.2485461000001123,,,,,,,13,21,female,left_right_width,2023_Oct_10_1333,exp1,2021.2.3,60.06283774085927,
,,,,,,,,,,,,,,,,,,,,,,,,,,,,,,,,,,,,,,,,,,,,,,,,,,,,,,,,,,,,,,,,,,c,94.67112929999985,,,,,13,21,female,left_right_width,2023_Oct_10_1333,exp1,2021.2.3,60.06283774085927,
,,,,,,,,,,,,,,,,5,8.65,9.325,10,10.675,11.35,0.6749999999999999,0.575,0.1,2.8,10,match,36.05,312,336,361,385,409,9,9,9,9,9,,,,,0,0,0,0,0,0,0,31,,,,,num_4,1.562001999999893,num_4,0.4,1.0,0.10000000000000007,1.0,3.60429,36.04293,return,3.24153739999997,,,,,,,13,21,female,left_right_width,2023_Oct_10_1333,exp1,2021.2.3,60.06283774085927,
,,,,,,,,,,,,,,,,3,9.1,10,10.9,0,0,0.9,0.65,0.25,2.05,10,initial,36.05,328,361,393,0,0,9,9,9,0,0,,,,,0,0,0,0,0,1,1,14,,,,,num_3,1.8011300000000574,num_3,0.1,0.7,0.35,0.7,12.61502,25.23005,return,2.4621936999999434,,,,,,,13,21,female,left_right_width,2023_Oct_10_1333,exp1,2021.2.3,60.06283774085927,
,,,,,,,,,,,,,,,,5,8.65,9.325,10,10.675,11.35,0.675,0.42500000000000004,0.25,2.95,10,match,36.05,312,336,361,385,409,9,9,9,9,9,,,,,0,0,0,0,0,2,2,33,,,,,num_4,1.446625099999892,num_4,0.2,1.3,0.2,1.1,7.20859,39.64722,return,3.2744764999999916,,,,,,,13,21,female,left_right_width,2023_Oct_10_1333,exp1,2021.2.3,60.06283774085927,
,,,,,,,,,,,,,,,,4,9.3,9.766666666666667,10.233333333333333,10.7,0,0.4666666666666667,0.3666666666666667,0.1,1.5,10,match,36.05,335,352,369,386,0,9,9,9,9,0,,,,,0,0,0,0,0,3,3,7,,,,,num_4,1.5510377999999037,num_4,0.15,1.3,0.09999999999999999,1.3,3.60429,46.85581,return,1.9839730999999574,,,,,,,13,21,female,left_right_width,2023_Oct_10_1333,exp1,2021.2.3,60.06283774085927,
,,,,,,,,,,,,,,,,3,8.6,10,11.4,0,0,1.4,1.2999999999999998,0.1,2.9,10,match,36.05,310,361,411,0,0,9,9,9,0,0,,,,,0,0,0,0,0,4,4,43,,,,,num_2,1.441790699999956,num_2,0.2,1.6,0.10000000000000002,1.6,3.60429,57.66869,return,2.132700300000124,,,,,,,13,21,female,left_right_width,2023_Oct_10_1333,exp1,2021.2.3,60.06283774085927,
,,,,,,,,,,,,,,,,3,9.3,10,10.7,0,0,0.7,0.29999999999999993,0.4,1.8,10,initial,36.05,335,361,386,0,0,9,9,9,0,0,,,,,0,0,0,0,0,5,5,10,,,,,num_3,1.2465678000000935,num_3,0.25,0.3,0.25,0.5,9.01073,18.02146,return,4.284357600000021,,,,,,,13,21,female,left_right_width,2023_Oct_10_1333,exp1,2021.2.3,60.06283774085927,
,,,,,,,,,,,,,,,,3,9.3,10,10.7,0,0,0.7,0.6,0.1,1.5,10,initial,36.05,335,361,386,0,0,9,9,9,0,0,,,,,0,0,0,0,0,6,6,6,,,,,num_3,1.1651699000001372,num_3,0.4,1.2,0.15000000000000008,1.05,5.40644,37.84507,return,3.1629582000000482,,,,,,,13,21,female,left_right_width,2023_Oct_10_1333,exp1,2021.2.3,60.06283774085927,
,,,,,,,,,,,,,,,,4,8.65,9.55,10.45,11.35,0,0.9,0.8,0.1,2.8000000000000003,10,initial,36.05,312,344,377,409,0,9,9,9,9,0,,,,,0,0,0,0,0,7,7,30,,,,,num_4,1.441682000000128,num_4,0.35,0.7,0.15000000000000002,0.7,5.40644,25.23005,return,4.0375481999999465,,,,,,,13,21,female,left_right_width,2023_Oct_10_1333,exp1,2021.2.3,60.06283774085927,
,,,,,,,,,,,,,,,,3,9.1,10,10.9,0,0,0.9,0.8,0.1,1.9000000000000001,10,initial,36.05,328,361,393,0,0,9,9,9,0,0,,,,,0,0,0,0,0,8,8,12,,,,,num_3,1.2878057000000354,num_3,0.2,1,0.15000000000000002,1,5.40644,36.04293,return,1.9202038000000812,,,,,,,13,21,female,left_right_width,2023_Oct_10_1333,exp1,2021.2.3,60.06283774085927,
,,,,,,,,,,,,,,,,4,9.1,9.7,10.3,10.9,0,0.6000000000000001,0.20000000000000004,0.4,2.2,10,match,36.05,328,350,371,393,0,9,9,9,9,0,,,,,0,0,0,0,0,9,9,17,,,,,num_4,1.0543604000001778,num_4,0.15,1.1,0.39999999999999997,0.8,14.41717,28.83434,return,4.706950200000165,,,,,,,13,21,female,left_right_width,2023_Oct_10_1333,exp1,2021.2.3,60.06283774085927,
,,,,,,,,,,,,,,,,3,9.5,10,10.5,0,0,0.5,0.25,0.25,1.25,10,initial,36.05,342,361,379,0,0,9,9,9,0,0,,,,,0,0,0,0,0,10,10,2,,,,,num_3,1.1192407000000912,num_3,0.1,1.3,0.3,0.7,10.81288,25.23005,return,4.398984500000097,,,,,,,13,21,female,left_right_width,2023_Oct_10_1333,exp1,2021.2.3,60.06283774085927,
,,,,,,,,,,,,,,,,4,8.95,9.65,10.35,11.05,0,0.7,0.6,0.1,2.1999999999999997,10,initial,36.05,323,348,373,398,0,9,9,9,9,0,,,,,0,0,0,0,0,11,11,24,,,,,num_4,1.2197329000000536,num_4,0.25,0.9,0.15000000000000002,0.9,5.40644,32.43864,return,1.730362600000035,,,,,,,13,21,female,left_right_width,2023_Oct_10_1333,exp1,2021.2.3,60.06283774085927,
,,,,,,,,,,,,,,,,4,8.95,9.65,10.35,11.05,0,0.7,0.29999999999999993,0.4,2.5,10,initial,36.05,323,348,373,398,0,9,9,9,9,0,,,,,0,0,0,0,0,12,12,28,,,,,num_4,1.0530131000000438,num_4,0.1,0.3,0.39999999999999997,0.6,14.41717,21.62576,return,4.895504599999867,,,,,,,13,21,female,left_right_width,2023_Oct_10_1333,exp1,2021.2.3,60.06283774085927,
,,,,,,,,,,,,,,,,4,9.1,9.7,10.3,10.9,0,0.5999999999999999,0.3499999999999999,0.25,2.05,10,match,36.05,328,350,371,393,0,9,9,9,9,0,,,,,0,0,0,0,0,13,13,15,,,,,num_4,1.2306186000000707,num_4,0.1,1.1,0.3,0.7,10.81288,25.23005,return,3.5975064000001566,,,,,,,13,21,female,left_right_width,2023_Oct_10_1333,exp1,2021.2.3,60.06283774085927,
,,,,,,,,,,,,,,,,3,8.525,10,11.475,0,0,1.475,1.225,0.25,3.2,10,match,36.05,307,361,414,0,0,9,9,9,0,0,,,,,0,0,0,0,0,14,14,47,,,,,num_3,1.0452408000001014,num_3,0.3,0.6,0.3,0.75,10.81288,27.0322,return,4.522441000000072,,,,,,,13,21,female,left_right_width,2023_Oct_10_1333,exp1,2021.2.3,60.06283774085927,
,,,,,,,,,,,,,,,,4,9.5,9.833333333333334,10.166666666666666,10.5,0,0.3333333333333333,0.08333333333333333,0.25,1.25,10,match,36.05,342,354,367,379,0,9,9,9,9,0,,,,,0,0,0,0,0,15,15,3,,,,,num_3,1.0959803000000647,num_3,0.3,1.1,0.39999999999999997,0.7,14.41717,25.23005,return,4.5535101999998915,,,,,,,13,21,female,left_right_width,2023_Oct_10_1333,exp1,2021.2.3,60.06283774085927,
,,,,,,,,,,,,,,,,5,8.95,9.475,10,10.525,11.05,0.525,0.125,0.4,2.5,10,match,36.05,323,342,361,379,398,9,9,9,9,9,,,,,0,0,0,0,0,16,16,29,,,,,num_4,1.0532446999998228,num_4,0.1,0.8,0.39999999999999997,0.6,14.41717,21.62576,return,2.7843072999999094,,,,,,,13,21,female,left_right_width,2023_Oct_10_1333,exp1,2021.2.3,60.06283774085927,
,,,,,,,,,,,,,,,,3,9.3,10,10.7,0,0,0.7,0.44999999999999996,0.25,1.65,10,initial,36.05,335,361,386,0,0,9,9,9,0,0,,,,,0,0,0,0,0,17,17,8,,,,,num_3,1.113189999999804,num_3,0.3,1.1,0.3,0.8,10.81288,28.83434,return,8.346580200000062,,,,,,,13,21,female,left_right_width,2023_Oct_10_1333,exp1,2021.2.3,60.06283774085927,
,,,,,,,,,,,,,,,,4,9.1,9.7,10.3,10.9,0,0.6,0.5,0.1,1.9,10,match,36.05,328,350,371,393,0,9,9,9,9,0,,,,,0,0,0,0,0,18,18,13,,,,,num_3,1.7426025000002028,num_3,0.2,0.5,0.2,0.6,7.20859,21.62576,return,2.3425928000001477,,,,,,,13,21,female,left_right_width,2023_Oct_10_1333,exp1,2021.2.3,60.06283774085927,
,,,,,,,,,,,,,,,,3,9.5,10,10.5,0,0,0.5,0.4,0.1,1.1,10,initial,36.05,342,361,379,0,0,9,9,9,0,0,,,,,0,0,0,0,0,19,19,0,,,,,num_3,1.0084623000000192,num_3,0.45,0.5,0.15000000000000008,0.6,5.40644,21.62576,return,5.447336899999982,,,,,,,13,21,female,left_right_width,2023_Oct_10_1333,exp1,2021.2.3,60.06283774085927,
,,,,,,,,,,,,,,,,4,8.65,9.55,10.45,11.35,0,0.9,0.5,0.4,3.1,10,initial,36.05,312,344,377,409,0,9,9,9,9,0,,,,,0,0,0,0,0,20,20,34,,,,,num_3,1.1516240000000835,num_3,0.45,1.2,0.4,0.85,14.41717,30.63649,return,3.2149778000000424,,,,,,,13,21,female,left_right_width,2023_Oct_10_1333,exp1,2021.2.3,60.06283774085927,
,,,,,,,,,,,,,,,,5,8.65,9.325,10,10.675,11.35,0.675,0.275,0.4,3.1,10,match,36.05,312,336,361,385,409,9,9,9,9,9,,,,,0,0,0,0,0,21,21,35,,,,,num_4,1.207183399999849,num_4,0.15,1.2,0.44999999999999996,0.8,16.21932,28.83434,return,2.693052800000032,,,,,,,13,21,female,left_right_width,2023_Oct_10_1333,exp1,2021.2.3,60.06283774085927,
,,,,,,,,,,,,,,,,5,9.175,9.5875,10,10.4125,10.825,0.4125,0.16249999999999998,0.25,1.9,10,match,36.05,331,346,361,375,390,9,9,9,9,9,,,,,0,0,0,0,0,22,22,23,,,,,num_4,1.0265302000000247,num_4,0.3,0.9,0.39999999999999997,0.7,14.41717,25.23005,return,5.208720399999947,,,,,,,13,21,female,left_right_width,2023_Oct_10_1333,exp1,2021.2.3,60.06283774085927,
,,,,,,,,,,,,,,,,5,9,9.5,10,10.5,11,0.5,0.09999999999999998,0.4,2.4,10,initial,36.05,324,342,361,379,397,9,9,9,9,9,,,,,0,0,0,0,0,23,23,40,,,,,num_4,1.2003502000000026,num_4,0.35,0.6,0.35,0.6,12.61502,21.62576,return,0.8636555000000499,,,,,,,13,21,female,left_right_width,2023_Oct_10_1333,exp1,2021.2.3,60.06283774085927,
,,,,,,,,,,,,,,,,3,9.1,10,10.9,0,0,0.9,0.5,0.4,2.2,10,initial,36.05,328,361,393,0,0,9,9,9,0,0,,,,,0,0,0,0,0,24,24,16,,,,,num_3,1.1676602000000003,num_3,0.2,0.7,0.35,0.75,12.61502,27.0322,return,2.081270800000084,,,,,,,13,21,female,left_right_width,2023_Oct_10_1333,exp1,2021.2.3,60.06283774085927,
,,,,,,,,,,,,,,,,5,8.6,9.3,10,10.7,11.4,0.7,0.6,0.1,2.9,10,initial,36.05,310,335,361,386,411,9,9,9,9,9,,,,,0,0,0,0,0,25,25,42,,,,,num_5,1.727951800000028,num_5,0.1,1.1,0.1,0.95,3.60429,34.24078,return,2.79042319999985,,,,,,,13,21,female,left_right_width,2023_Oct_10_1333,exp1,2021.2.3,60.06283774085927,
,,,,,,,,,,,,,,,,4,9.25,9.75,10.25,10.75,0,0.5,0.4,0.1,1.6,10,initial,36.05,333,351,370,388,0,9,9,9,9,0,,,,,0,0,0,0,0,26,26,18,,,,,num_3,1.1106305000000702,num_3,0.4,0.6,0.10000000000000007,0.7,3.60429,25.23005,return,3.67391090000001,,,,,,,13,21,female,left_right_width,2023_Oct_10_1333,exp1,2021.2.3,60.06283774085927,
,,,,,,,,,,,,,,,,5,8.2,9.1,10,10.9,11.8,0.9,0.5,0.4,4,10,initial,36.05,296,328,361,393,425,9,9,9,9,9,,,,,0,0,0,0,0,27,27,52,,,,,num_5,1.1065676999999141,num_5,0.25,1.1,0.35,1.1,12.61502,39.64722,return,1.5421924999998282,,,,,,,13,21,female,left_right_width,2023_Oct_10_1333,exp1,2021.2.3,60.06283774085927,
,,,,,,,,,,,,,,,,3,8.6,10,11.4,0,0,1.4,1.15,0.25,3.05,10,match,36.05,310,361,411,0,0,9,9,9,0,0,,,,,0,0,0,0,0,28,28,45,,,,,num_2,1.1876239000000623,num_2,0.15,1.6,0.3,1.2,10.81288,43.25151,return,2.8664707000000362,,,,,,,13,21,female,left_right_width,2023_Oct_10_1333,exp1,2021.2.3,60.06283774085927,
,,,,,,,,,,,,,,,,5,8.6,9.3,10,10.7,11.4,0.7,0.44999999999999996,0.25,3.05,10,initial,36.05,310,335,361,386,411,9,9,9,9,9,,,,,0,0,0,0,0,29,29,44,,,,,num_4,1.1912359999998898,num_4,0.1,0.4,0.2,0.7,7.20859,25.23005,return,2.053065300000071,,,,,,,13,21,female,left_right_width,2023_Oct_10_1333,exp1,2021.2.3,60.06283774085927,
,,,,,,,,,,,,,,,,4,9.425,9.808333333333334,10.191666666666666,10.575,0,0.3833333333333333,0.1333333333333333,0.25,1.4,10,match,36.05,340,354,367,381,0,9,9,9,9,0,,,,,0,0,0,0,0,30,30,5,,,,,num_4,1.9572026999999252,num_4,0.45,1.1,0.25000000000000006,0.9,9.01073,32.43864,return,2.9823989000001347,,,,,,,13,21,female,left_right_width,2023_Oct_10_1333,exp1,2021.2.3,60.06283774085927,
,,,,,,,,,,,,,,,,4,9.3,9.766666666666667,10.233333333333333,10.7,0,0.4666666666666667,0.06666666666666665,0.4,1.8,10,match,36.05,335,352,369,386,0,9,9,9,9,0,,,,,0,0,0,0,0,31,31,11,,,,,num_4,1.3551982999999836,num_4,0.25,0.6,0.39999999999999997,0.7,14.41717,25.23005,return,2.7206382000001668,,,,,,,13,21,female,left_right_width,2023_Oct_10_1333,exp1,2021.2.3,60.06283774085927,
,,,,,,,,,,,,,,,,4,9.5,9.833333333333334,10.166666666666666,10.5,0,0.33333333333333337,0.23333333333333336,0.1,1.1,10,match,36.05,342,354,367,379,0,9,9,9,9,0,,,,,0,0,0,0,0,32,32,1,,,,,num_4,1.9270940000001247,num_4,0.2,0.9,0.25,0.9,9.01073,32.43864,return,2.857666899999913,,,,,,,13,21,female,left_right_width,2023_Oct_10_1333,exp1,2021.2.3,60.06283774085927,
,,,,,,,,,,,,,,,,5,8.95,9.475,10,10.525,11.05,0.525,0.275,0.25,2.35,10,match,36.05,323,342,361,379,398,9,9,9,9,9,,,,,0,0,0,0,0,33,33,27,,,,,num_4,1.1551354000000629,num_4,0.4,0.8,0.25000000000000006,0.8,9.01073,28.83434,return,2.5599494000000504,,,,,,,13,21,female,left_right_width,2023_Oct_10_1333,exp1,2021.2.3,60.06283774085927,
,,,,,,,,,,,,,,,,3,9.5,10,10.5,0,0,0.5,0.09999999999999998,0.4,1.4000000000000001,10,initial,36.05,342,361,379,0,0,9,9,9,0,0,,,,,0,0,0,0,0,34,34,4,,,,,num_3,1.301844699999947,num_3,0.1,1.1,0.39999999999999997,0.85,14.41717,30.63649,return,5.1503212999998595,,,,,,,13,21,female,left_right_width,2023_Oct_10_1333,exp1,2021.2.3,60.06283774085927,
,,,,,,,,,,,,,,,,4,8.95,9.65,10.35,11.05,0,0.7,0.44999999999999996,0.25,2.3499999999999996,10,initial,36.05,323,348,373,398,0,9,9,9,9,0,,,,,0,0,0,0,0,35,35,26,,,,,num_4,2.1112213999999767,num_4,0.2,1.1,0.3,1.1,10.81288,39.64722,return,1.8173213000000032,,,,,,,13,21,female,left_right_width,2023_Oct_10_1333,exp1,2021.2.3,60.06283774085927,
,,,,,,,,,,,,,,,,3,8.2,10,11.8,0,0,1.7999999999999998,1.4,0.4,4,10,match,36.05,296,361,425,0,0,9,9,9,0,0,,,,,0,0,0,0,0,36,36,53,,,,,num_2,1.0599452000001293,num_2,0.2,1.6,0.35,2.3,12.61502,82.89874,return,3.015822099999923,,,,,,,13,21,female,left_right_width,2023_Oct_10_1333,exp1,2021.2.3,60.06283774085927,
,,,,,,,,,,,,,,,,3,9,10,11,0,0,1,0.9,0.1,2.1,10,match,36.05,324,361,397,0,0,9,9,9,0,0,,,,,0,0,0,0,0,37,37,37,,,,,num_3,1.040300299999899,num_3,0.4,0.5,0.10000000000000007,0.85,3.60429,30.63649,return,4.982487999999876,,,,,,,13,21,female,left_right_width,2023_Oct_10_1333,exp1,2021.2.3,60.06283774085927,
,,,,,,,,,,,,,,,,3,8.2,10,11.8,0,0,1.8000000000000003,1.7000000000000002,0.1,3.7,10,match,36.05,296,361,425,0,0,9,9,9,0,0,,,,,0,0,0,0,0,38,38,49,,,,,num_2,1.191213800000014,num_2,0.2,1.6,0.10000000000000002,2.5,3.60429,90.10732,return,7.2226570000000265,,,,,,,13,21,female,left_right_width,2023_Oct_10_1333,exp1,2021.2.3,60.06283774085927,
,,,,,,,,,,,,,,,,5,9.25,9.625,10,10.375,10.75,0.375,0.125,0.25,1.75,10,match,36.05,333,347,361,374,388,9,9,9,9,9,,,,,0,0,0,0,0,39,39,21,,,,,num_4,1.1959463000000596,num_4,0.2,0.8,0.2,0.5,7.20859,18.02146,return,3.162086600000066,,,,,,,13,21,female,left_right_width,2023_Oct_10_1333,exp1,2021.2.3,60.06283774085927,
,,,,,,,,,,,,,,,,3,8.2,10,11.8,0,0,1.8,1.55,0.25,3.85,10,match,36.05,296,361,425,0,0,9,9,9,0,0,,,,,0,0,0,0,0,40,40,51,,,,,num_2,1.1651509000000715,num_2,0.15,1.6,0.15,3.0,5.40644,108.12878,return,3.8535855999998603,,,,,,,13,21,female,left_right_width,2023_Oct_10_1333,exp1,2021.2.3,60.06283774085927,
,,,,,,,,,,,,,,,,5,8.2,9.1,10,10.9,11.8,0.9,0.8,0.1,3.7,10,initial,36.05,296,328,361,393,425,9,9,9,9,9,,,,,0,0,0,0,0,41,41,48,,,,,num_4,1.0843988000001445,num_4,0.2,0.5,0.15000000000000002,1.0,5.40644,36.04293,return,4.992356900000004,,,,,,,13,21,female,left_right_width,2023_Oct_10_1333,exp1,2021.2.3,60.06283774085927,
,,,,,,,,,,,,,,,,5,8.95,9.475,10,10.525,11.05,0.525,0.42500000000000004,0.1,2.2,10,match,36.05,323,342,361,379,398,9,9,9,9,9,,,,,0,0,0,0,0,42,42,25,,,,,num_4,1.2632344999999532,num_4,0.3,1.3,0.15000000000000002,1.3,5.40644,46.85581,return,3.1303563999999824,,,,,,,13,21,female,left_right_width,2023_Oct_10_1333,exp1,2021.2.3,60.06283774085927,
,,,,,,,,,,,,,,,,4,9.3,9.766666666666667,10.233333333333333,10.7,0,0.4666666666666667,0.21666666666666665,0.25,1.65,10,match,36.05,335,352,369,386,0,9,9,9,9,0,,,,,0,0,0,0,0,43,43,9,,,,,num_4,1.2372422999999344,num_4,0.35,1.1,0.35,0.6,12.61502,21.62576,return,5.891001599999981,,,,,,,13,21,female,left_right_width,2023_Oct_10_1333,exp1,2021.2.3,60.06283774085927,
,,,,,,,,,,,,,,,,3,9,10,11,0,0,1,0.75,0.25,2.25,10,match,36.05,324,361,397,0,0,9,9,9,0,0,,,,,0,0,0,0,0,44,44,39,,,,,num_4,1.8792418000000453,num_4,0.25,1.1,0.25,0.9,9.01073,32.43864,return,4.217946499999925,,,,,,,13,21,female,left_right_width,2023_Oct_10_1333,exp1,2021.2.3,60.06283774085927,
,,,,,,,,,,,,,,,,5,8.2,9.1,10,10.9,11.8,0.9,0.65,0.25,3.85,10,initial,36.05,296,328,361,393,425,9,9,9,9,9,,,,,0,0,0,0,0,45,45,50,,,,,num_5,0.8592197999998916,num_5,0.1,0.3,0.2,0.5,7.20859,18.02146,return,5.351371500000141,,,,,,,13,21,female,left_right_width,2023_Oct_10_1333,exp1,2021.2.3,60.06283774085927,
,,,,,,,,,,,,,,,,5,9,9.5,10,10.5,11,0.5,0.4,0.1,2.1,10,initial,36.05,324,342,361,379,397,9,9,9,9,9,,,,,0,0,0,0,0,46,46,36,,,,,num_4,3.490392100000008,num_4,0.1,1.1,0.2,1.1,7.20859,39.64722,return,4.019899000000123,,,,,,,13,21,female,left_right_width,2023_Oct_10_1333,exp1,2021.2.3,60.06283774085927,
,,,,,,,,,,,,,,,,4,9.25,9.75,10.25,10.75,0,0.5,0.25,0.25,1.75,10,initial,36.05,333,351,370,388,0,9,9,9,9,0,,,,,0,0,0,0,0,47,47,20,,,,,num_4,1.0312473999999838,num_4,0.15,1.3,0.2,0.9,7.20859,32.43864,return,6.0432943999999225,,,,,,,13,21,female,left_right_width,2023_Oct_10_1333,exp1,2021.2.3,60.06283774085927,
,,,,,,,,,,,,,,,,5,8.6,9.3,10,10.7,11.4,0.7,0.29999999999999993,0.4,3.1999999999999997,10,initial,36.05,310,335,361,386,411,9,9,9,9,9,,,,,0,0,0,0,0,48,48,46,,,,,num_4,1.2179776000000402,num_4,0.2,1.2,0.3,0.7,10.81288,25.23005,return,3.935202200000049,,,,,,,13,21,female,left_right_width,2023_Oct_10_1333,exp1,2021.2.3,60.06283774085927,
,,,,,,,,,,,,,,,,5,9,9.5,10,10.5,11,0.5,0.25,0.25,2.25,10,initial,36.05,324,342,361,379,397,9,9,9,9,9,,,,,0,0,0,0,0,49,49,38,,,,,num_4,1.0078957999999147,num_4,0.15,1.1,0.35,0.8,12.61502,28.83434,return,2.73934220000001,,,,,,,13,21,female,left_right_width,2023_Oct_10_1333,exp1,2021.2.3,60.06283774085927,
,,,,,,,,,,,,,,,,5,9.25,9.625,10,10.375,10.75,0.375,0.275,0.1,1.6,10,match,36.05,333,347,361,374,388,9,9,9,9,9,,,,,0,0,0,0,0,50,50,19,,,,,num_4,0.9932685000001129,num_4,0.2,1.1,0.10000000000000002,1.1,3.60429,39.64722,return,2.886265199999798,,,,,,,13,21,female,left_right_width,2023_Oct_10_1333,exp1,2021.2.3,60.06283774085927,
,,,,,,,,,,,,,,,,3,9,10,11,0,0,0.9999999999999999,0.5999999999999999,0.4,2.4,10,match,36.05,324,361,397,0,0,9,9,9,0,0,,,,,0,0,0,0,0,51,51,41,,,,,num_3,1.0772515999999541,num_3,0.1,0.7,0.3,0.85,10.81288,30.63649,return,2.0577694000000974,,,,,,,13,21,female,left_right_width,2023_Oct_10_1333,exp1,2021.2.3,60.06283774085927,
,,,,,,,,,,,,,,,,4,9.25,9.75,10.25,10.75,0,0.5,0.09999999999999998,0.4,1.9,10,initial,36.05,333,351,370,388,0,9,9,9,9,0,,,,,0,0,0,0,0,52,52,22,,,,,num_3,1.1133824999999433,num_3,0.3,0.5,0.39999999999999997,0.65,14.41717,23.4279,return,3.275976200000059,,,,,,,13,21,female,left_right_width,2023_Oct_10_1333,exp1,2021.2.3,60.06283774085927,
,,,,,,,,,,,,,,,,4,8.65,9.55,10.45,11.35,0,0.9,0.65,0.25,2.95,10,initial,36.05,312,344,377,409,0,9,9,9,9,0,,,,,0,0,0,0,0,53,53,32,,,,,num_4,0.9773276000000806,num_4,0.2,0.6,0.2,1.0,7.20859,36.04293,return,2.6160652999999456,,,,,,,13,21,female,left_right_width,2023_Oct_10_1333,exp1,2021.2.3,60.06283774085927,
,,,,,,,,,,,,,,,,,,,,,,,,,,,,,,,,,,,,,,,,,,,0,0,0,0,,,,,,,,,,,,,,,,,,,,,,669.9075692,None,669.9075692,None,13,21,female,left_right_width,2023_Oct_10_1333,exp1,2021.2.3,60.06283774085927,
,,,,,,,,,,,,,,,,5,8.65,9.325,10,10.675,11.35,0.6749999999999999,0.575,0.1,2.8,10,match,36.05,312,336,361,385,409,9,9,9,9,9,,,,,1,0,1,0,0,0,0,31,,,,,num_4,1.142622799999799,num_4,0.35,0.5,0.10000000000000002,0.9,3.60429,32.43864,return,2.3908814000001257,,,,,,,13,21,female,left_right_width,2023_Oct_10_1333,exp1,2021.2.3,60.06283774085927,
,,,,,,,,,,,,,,,,4,9.3,9.766666666666667,10.233333333333333,10.7,0,0.4666666666666667,0.21666666666666665,0.25,1.65,10,match,36.05,335,352,369,386,0,9,9,9,9,0,,,,,1,0,1,0,0,1,1,9,,,,,num_4,0.9386927999998989,num_4,0.35,1.1,0.25,0.6,9.01073,21.62576,return,2.9461990999998307,,,,,,,13,21,female,left_right_width,2023_Oct_10_1333,exp1,2021.2.3,60.06283774085927,
,,,,,,,,,,,,,,,,5,8.65,9.325,10,10.675,11.35,0.675,0.42500000000000004,0.25,2.95,10,match,36.05,312,336,361,385,409,9,9,9,9,9,,,,,1,0,1,0,0,2,2,33,,,,,num_4,0.9966550999999981,num_4,0.45,0.8,0.25000000000000006,0.9,9.01073,32.43864,return,2.971624199999951,,,,,,,13,21,female,left_right_width,2023_Oct_10_1333,exp1,2021.2.3,60.06283774085927,
,,,,,,,,,,,,,,,,3,8.6,10,11.4,0,0,1.4,1.15,0.25,3.05,10,match,36.05,310,361,411,0,0,9,9,9,0,0,,,,,1,0,1,0,0,3,3,45,,,,,num_3,1.0099838000001,num_3,0.2,1.1,0.3,1.15,10.81288,41.44937,return,3.079674300000079,,,,,,,13,21,female,left_right_width,2023_Oct_10_1333,exp1,2021.2.3,60.06283774085927,
,,,,,,,,,,,,,,,,3,9.5,10,10.5,0,0,0.5,0.25,0.25,1.25,10,initial,36.05,342,361,379,0,0,9,9,9,0,0,,,,,1,0,1,0,0,4,4,2,,,,,num_3,0.9798977000000377,num_3,0.2,0.5,0.2,0.5,7.20859,18.02146,return,0.9393074999998134,,,,,,,13,21,female,left_right_width,2023_Oct_10_1333,exp1,2021.2.3,60.06283774085927,
,,,,,,,,,,,,,,,,5,8.95,9.475,10,10.525,11.05,0.525,0.125,0.4,2.5,10,match,36.05,323,342,361,379,398,9,9,9,9,9,,,,,1,0,1,0,0,5,5,29,,,,,num_4,1.0213042000000314,num_4,0.1,0.3,0.3,0.5,10.81288,18.02146,return,4.400136900000007,,,,,,,13,21,female,left_right_width,2023_Oct_10_1333,exp1,2021.2.3,60.06283774085927,
,,,,,,,,,,,,,,,,4,8.95,9.65,10.35,11.05,0,0.7,0.6,0.1,2.1999999999999997,10,initial,36.05,323,348,373,398,0,9,9,9,9,0,,,,,1,0,1,0,0,6,6,24,,,,,num_4,1.0658192000000781,num_4,0.4,0.7,0.05000000000000007,0.5,1.80215,18.02146,return,3.7728016000000935,,,,,,,13,21,female,left_right_width,2023_Oct_10_1333,exp1,2021.2.3,60.06283774085927,
,,,,,,,,,,,,,,,,5,8.2,9.1,10,10.9,11.8,0.9,0.5,0.4,4,10,initial,36.05,296,328,361,393,425,9,9,9,9,9,,,,,1,0,1,0,0,7,7,52,,,,,num_5,0.9803366000001006,num_5,0.15,0.5,0.3,0.7,10.81288,25.23005,return,2.6034113000000616,,,,,,,13,21,female,left_right_width,2023_Oct_10_1333,exp1,2021.2.3,60.06283774085927,
,,,,,,,,,,,,,,,,3,9.5,10,10.5,0,0,0.5,0.09999999999999998,0.4,1.4000000000000001,10,initial,36.05,342,361,379,0,0,9,9,9,0,0,,,,,1,0,1,0,0,8,8,4,,,,,num_3,1.6552682999999888,num_3,0.35,0.5,0.39999999999999997,0.7,14.41717,25.23005,return,1.8897938999998587,,,,,,,13,21,female,left_right_width,2023_Oct_10_1333,exp1,2021.2.3,60.06283774085927,
,,,,,,,,,,,,,,,,4,9.25,9.75,10.25,10.75,0,0.5,0.4,0.1,1.6,10,initial,36.05,333,351,370,388,0,9,9,9,9,0,,,,,1,0,1,0,0,9,9,18,,,,,num_3,1.1605348000000504,num_3,0.2,0.4,0.10000000000000002,0.6,3.60429,21.62576,return,2.7280889999999545,,,,,,,13,21,female,left_right_width,2023_Oct_10_1333,exp1,2021.2.3,60.06283774085927,
,,,,,,,,,,,,,,,,3,9,10,11,0,0,0.9999999999999999,0.5999999999999999,0.4,2.4,10,match,36.05,324,361,397,0,0,9,9,9,0,0,,,,,1,0,1,0,0,10,10,41,,,,,num_2,5.538615200000095,num_2,0.4,1.6,0.15000000000000008,1.6,5.40644,57.66869,return,3.508431400000063,,,,,,,13,21,female,left_right_width,2023_Oct_10_1333,exp1,2021.2.3,60.06283774085927,
,,,,,,,,,,,,,,,,5,9,9.5,10,10.5,11,0.5,0.4,0.1,2.1,10,initial,36.05,324,342,361,379,397,9,9,9,9,9,,,,,1,0,1,0,0,11,11,36,,,,,num_4,1.0657249999999294,num_4,0.2,1.3,0.10000000000000002,1.1,3.60429,39.64722,return,3.3561511000000337,,,,,,,13,21,female,left_right_width,2023_Oct_10_1333,exp1,2021.2.3,60.06283774085927,
,,,,,,,,,,,,,,,,5,8.6,9.3,10,10.7,11.4,0.7,0.29999999999999993,0.4,3.1999999999999997,10,initial,36.05,310,335,361,386,411,9,9,9,9,9,,,,,1,0,1,0,0,12,12,46,,,,,num_5,0.954554299999927,num_5,0.2,1.2,0.3,0.95,10.81288,34.24078,return,6.718751699999984,,,,,,,13,21,female,left_right_width,2023_Oct_10_1333,exp1,2021.2.3,60.06283774085927,
,,,,,,,,,,,,,,,,3,9,10,11,0,0,1,0.9,0.1,2.1,10,match,36.05,324,361,397,0,0,9,9,9,0,0,,,,,1,0,1,0,0,13,13,37,,,,,num_2,1.0164025999999922,num_2,0.1,1.6,0.1,1.6,3.60429,57.66869,return,0.7818680000000313,,,,,,,13,21,female,left_right_width,2023_Oct_10_1333,exp1,2021.2.3,60.06283774085927,
,,,,,,,,,,,,,,,,4,8.65,9.55,10.45,11.35,0,0.9,0.5,0.4,3.1,10,initial,36.05,312,344,377,409,0,9,9,9,9,0,,,,,1,0,1,0,0,14,14,34,,,,,num_4,1.0165608999998312,num_4,0.35,0.4,0.25,1.0,9.01073,36.04293,return,4.156011899999839,,,,,,,13,21,female,left_right_width,2023_Oct_10_1333,exp1,2021.2.3,60.06283774085927,
,,,,,,,,,,,,,,,,5,9,9.5,10,10.5,11,0.5,0.25,0.25,2.25,10,initial,36.05,324,342,361,379,397,9,9,9,9,9,,,,,1,0,1,0,0,15,15,38,,,,,num_5,1.0735039999999572,num_5,0.2,0.9,0.25,0.7,9.01073,25.23005,return,4.562686799999938,,,,,,,13,21,female,left_right_width,2023_Oct_10_1333,exp1,2021.2.3,60.06283774085927,
,,,,,,,,,,,,,,,,5,9.25,9.625,10,10.375,10.75,0.375,0.125,0.25,1.75,10,match,36.05,333,347,361,374,388,9,9,9,9,9,,,,,1,0,1,0,0,16,16,21,,,,,num_5,1.0156731000001855,num_5,0.3,0.9,0.3,0.6,10.81288,21.62576,return,3.8523145999999997,,,,,,,13,21,female,left_right_width,2023_Oct_10_1333,exp1,2021.2.3,60.06283774085927,
,,,,,,,,,,,,,,,,4,9.5,9.833333333333334,10.166666666666666,10.5,0,0.33333333333333337,0.23333333333333336,0.1,1.1,10,match,36.05,342,354,367,379,0,9,9,9,9,0,,,,,1,0,1,0,0,17,17,1,,,,,num_3,1.3287295000000086,num_3,0.15,1,0.25,0.85,9.01073,30.63649,return,3.4011235000000397,,,,,,,13,21,female,left_right_width,2023_Oct_10_1333,exp1,2021.2.3,60.06283774085927,
,,,,,,,,,,,,,,,,3,9.5,10,10.5,0,0,0.5,0.4,0.1,1.1,10,initial,36.05,342,361,379,0,0,9,9,9,0,0,,,,,1,0,1,0,0,18,18,0,,,,,num_3,0.9273306000000048,num_3,0.25,0.7,0.10000000000000002,0.65,3.60429,23.4279,return,3.320458199999848,,,,,,,13,21,female,left_right_width,2023_Oct_10_1333,exp1,2021.2.3,60.06283774085927,
,,,,,,,,,,,,,,,,5,8.2,9.1,10,10.9,11.8,0.9,0.65,0.25,3.85,10,initial,36.05,296,328,361,393,425,9,9,9,9,9,,,,,1,0,1,0,0,19,19,50,,,,,num_5,2.4293534999999338,num_5,0.15,0.9,0.25,0.8,9.01073,28.83434,return,2.8256275000001096,,,,,,,13,21,female,left_right_width,2023_Oct_10_1333,exp1,2021.2.3,60.06283774085927,
,,,,,,,,,,,,,,,,3,9.1,10,10.9,0,0,0.9,0.8,0.1,1.9000000000000001,10,initial,36.05,328,361,393,0,0,9,9,9,0,0,,,,,1,0,1,0,0,20,20,12,,,,,num_3,1.1647356999999374,num_3,0.35,1.1,0.10000000000000002,1.1,3.60429,39.64722,return,3.4360944000000018,,,,,,,13,21,female,left_right_width,2023_Oct_10_1333,exp1,2021.2.3,60.06283774085927,
,,,,,,,,,,,,,,,,5,9,9.5,10,10.5,11,0.5,0.09999999999999998,0.4,2.4,10,initial,36.05,324,342,361,379,397,9,9,9,9,9,,,,,1,0,1,0,0,21,21,40,,,,,num_5,0.9725628000001052,num_5,0.25,0.7,0.49999999999999994,0.65,18.02146,23.4279,return,2.1472133999998277,,,,,,,13,21,female,left_right_width,2023_Oct_10_1333,exp1,2021.2.3,60.06283774085927,
,,,,,,,,,,,,,,,,4,9.1,9.7,10.3,10.9,0,0.6,0.5,0.1,1.9,10,match,36.05,328,350,371,393,0,9,9,9,9,0,,,,,1,0,1,0,0,22,22,13,,,,,num_3,0.9756779000001643,num_3,0.35,0.5,0.3,0.5,10.81288,18.02146,return,1.2707762999998522,,,,,,,13,21,female,left_right_width,2023_Oct_10_1333,exp1,2021.2.3,60.06283774085927,
,,,,,,,,,,,,,,,,3,8.525,10,11.475,0,0,1.475,1.225,0.25,3.2,10,match,36.05,307,361,414,0,0,9,9,9,0,0,,,,,1,0,1,0,0,23,23,47,,,,,num_3,1.3010673999999653,num_3,0.2,1.3,0.15000000000000002,1.3,5.40644,46.85581,return,1.8396109000000251,,,,,,,13,21,female,left_right_width,2023_Oct_10_1333,exp1,2021.2.3,60.06283774085927,
,,,,,,,,,,,,,,,,3,9.3,10,10.7,0,0,0.7,0.29999999999999993,0.4,1.8,10,initial,36.05,335,361,386,0,0,9,9,9,0,0,,,,,1,0,1,0,0,24,24,10,,,,,num_3,0.9372883999999431,num_3,0.2,1.3,0.39999999999999997,0.85,14.41717,30.63649,return,3.2179393999999775,,,,,,,13,21,female,left_right_width,2023_Oct_10_1333,exp1,2021.2.3,60.06283774085927,
,,,,,,,,,,,,,,,,4,9.3,9.766666666666667,10.233333333333333,10.7,0,0.4666666666666667,0.3666666666666667,0.1,1.5,10,match,36.05,335,352,369,386,0,9,9,9,9,0,,,,,1,0,1,0,0,25,25,7,,,,,num_3,1.0744858999998996,num_3,0.2,1.2,0.3,0.85,10.81288,30.63649,return,6.116584799999828,,,,,,,13,21,female,left_right_width,2023_Oct_10_1333,exp1,2021.2.3,60.06283774085927,
,,,,,,,,,,,,,,,,4,9.1,9.7,10.3,10.9,0,0.5999999999999999,0.3499999999999999,0.25,2.05,10,match,36.05,328,350,371,393,0,9,9,9,9,0,,,,,1,0,1,0,0,26,26,15,,,,,num_4,1.3045376000000033,num_4,0.15,0.9,0.3,0.7,10.81288,25.23005,return,4.0951581000001624,,,,,,,13,21,female,left_right_width,2023_Oct_10_1333,exp1,2021.2.3,60.06283774085927,
,,,,,,,,,,,,,,,,5,8.65,9.325,10,10.675,11.35,0.675,0.275,0.4,3.1,10,match,36.05,312,336,361,385,409,9,9,9,9,9,,,,,1,0,1,0,0,27,27,35,,,,,num_5,1.1117395000001125,num_5,0.4,0.8,0.4,0.8,14.41717,28.83434,return,0.9368235000001732,,,,,,,13,21,female,left_right_width,2023_Oct_10_1333,exp1,2021.2.3,60.06283774085927,
,,,,,,,,,,,,,,,,3,9.1,10,10.9,0,0,0.9,0.5,0.4,2.2,10,initial,36.05,328,361,393,0,0,9,9,9,0,0,,,,,1,0,1,0,0,28,28,16,,,,,num_3,0.9012909000000491,num_3,0.15,1.2,0.35,0.95,12.61502,34.24078,return,2.303068200000098,,,,,,,13,21,female,left_right_width,2023_Oct_10_1333,exp1,2021.2.3,60.06283774085927,
,,,,,,,,,,,,,,,,5,9.175,9.5875,10,10.4125,10.825,0.4125,0.16249999999999998,0.25,1.9,10,match,36.05,331,346,361,375,390,9,9,9,9,9,,,,,1,0,1,0,0,29,29,23,,,,,num_5,1.0573303999999553,num_5,0.35,0.6,0.35,0.6,12.61502,21.62576,return,0.7571669999999813,,,,,,,13,21,female,left_right_width,2023_Oct_10_1333,exp1,2021.2.3,60.06283774085927,
,,,,,,,,,,,,,,,,5,9.25,9.625,10,10.375,10.75,0.375,0.275,0.1,1.6,10,match,36.05,333,347,361,374,388,9,9,9,9,9,,,,,1,0,1,0,0,30,30,19,,,,,num_3,1.2623658999998497,num_3,0.45,0.7,0.30000000000000004,0.55,10.81288,19.82361,return,2.745068100000026,,,,,,,13,21,female,left_right_width,2023_Oct_10_1333,exp1,2021.2.3,60.06283774085927,
,,,,,,,,,,,,,,,,5,8.2,9.1,10,10.9,11.8,0.9,0.8,0.1,3.7,10,initial,36.05,296,328,361,393,425,9,9,9,9,9,,,,,1,0,1,0,0,31,31,48,,,,,num_4,2.079523999999992,num_4,0.2,1.0,0.15000000000000002,1.0,5.40644,36.04293,return,5.674807800000053,,,,,,,13,21,female,left_right_width,2023_Oct_10_1333,exp1,2021.2.3,60.06283774085927,
,,,,,,,,,,,,,,,,4,9.1,9.7,10.3,10.9,0,0.6000000000000001,0.20000000000000004,0.4,2.2,10,match,36.05,328,350,371,393,0,9,9,9,9,0,,,,,1,0,1,0,0,32,32,17,,,,,num_4,1.0347983999999997,num_4,0.1,0.9,0.49999999999999994,0.7,18.02146,25.23005,return,3.5037777999998525,,,,,,,13,21,female,left_right_width,2023_Oct_10_1333,exp1,2021.2.3,60.06283774085927,
,,,,,,,,,,,,,,,,3,8.2,10,11.8,0,0,1.8,1.55,0.25,3.85,10,match,36.05,296,361,425,0,0,9,9,9,0,0,,,,,1,0,1,0,0,33,33,51,,,,,num_3,1.450488899999982,num_3,0.4,0.6,0.15000000000000008,1.1,5.40644,39.64722,return,4.975320600000032,,,,,,,13,21,female,left_right_width,2023_Oct_10_1333,exp1,2021.2.3,60.06283774085927,
,,,,,,,,,,,,,,,,3,9.3,10,10.7,0,0,0.7,0.44999999999999996,0.25,1.65,10,initial,36.05,335,361,386,0,0,9,9,9,0,0,,,,,1,0,1,0,0,34,34,8,,,,,num_3,0.9230152999998609,num_3,0.2,1.3,0.2,1.1,7.20859,39.64722,return,2.0174560000000383,,,,,,,13,21,female,left_right_width,2023_Oct_10_1333,exp1,2021.2.3,60.06283774085927,
,,,,,,,,,,,,,,,,3,9,10,11,0,0,1,0.75,0.25,2.25,10,match,36.05,324,361,397,0,0,9,9,9,0,0,,,,,1,0,1,0,0,35,35,39,,,,,num_3,0.9492185000001427,num_3,0.45,0.7,0.20000000000000007,1.0,7.20859,36.04293,return,3.8536649000000125,,,,,,,13,21,female,left_right_width,2023_Oct_10_1333,exp1,2021.2.3,60.06283774085927,
,,,,,,,,,,,,,,,,4,9.25,9.75,10.25,10.75,0,0.5,0.09999999999999998,0.4,1.9,10,initial,36.05,333,351,370,388,0,9,9,9,9,0,,,,,1,0,1,0,0,36,36,22,,,,,num_3,0.9246700999999575,num_3,0.4,0.6,0.30000000000000004,0.9,10.81288,32.43864,return,3.862840199999937,,,,,,,13,21,female,left_right_width,2023_Oct_10_1333,exp1,2021.2.3,60.06283774085927,
,,,,,,,,,,,,,,,,4,8.65,9.55,10.45,11.35,0,0.9,0.65,0.25,2.95,10,initial,36.05,312,344,377,409,0,9,9,9,9,0,,,,,1,0,1,0,0,37,37,32,,,,,num_3,1.0712265000001935,num_3,0.1,0.5,0.3,0.8,10.81288,28.83434,return,2.5152276000001166,,,,,,,13,21,female,left_right_width,2023_Oct_10_1333,exp1,2021.2.3,60.06283774085927,
,,,,,,,,,,,,,,,,3,8.2,10,11.8,0,0,1.8000000000000003,1.7000000000000002,0.1,3.7,10,match,36.05,296,361,425,0,0,9,9,9,0,0,,,,,1,0,1,0,0,38,38,49,,,,,num_3,1.8941984000000502,num_3,0.1,1.3,0.10000000000000002,1.35,3.60429,48.65795,return,4.137244799999962,,,,,,,13,21,female,left_right_width,2023_Oct_10_1333,exp1,2021.2.3,60.06283774085927,
,,,,,,,,,,,,,,,,3,8.6,10,11.4,0,0,1.4,1.2999999999999998,0.1,2.9,10,match,36.05,310,361,411,0,0,9,9,9,0,0,,,,,1,0,1,0,0,39,39,43,,,,,num_3,0.8773459000001367,num_3,0.2,0.3,0.05000000000000002,1.0,1.80215,36.04293,return,4.121364200000016,,,,,,,13,21,female,left_right_width,2023_Oct_10_1333,exp1,2021.2.3,60.06283774085927,
,,,,,,,,,,,,,,,,4,8.65,9.55,10.45,11.35,0,0.9,0.8,0.1,2.8000000000000003,10,initial,36.05,312,344,377,409,0,9,9,9,9,0,,,,,1,0,1,0,0,40,40,30,,,,,num_3,1.061629499999981,num_3,0.35,0.8,0.10000000000000002,0.8,3.60429,28.83434,return,1.3685461000000032,,,,,,,13,21,female,left_right_width,2023_Oct_10_1333,exp1,2021.2.3,60.06283774085927,
,,,,,,,,,,,,,,,,4,9.5,9.833333333333334,10.166666666666666,10.5,0,0.3333333333333333,0.08333333333333333,0.25,1.25,10,match,36.05,342,354,367,379,0,9,9,9,9,0,,,,,1,0,1,0,0,41,41,3,,,,,num_3,1.1367109999998775,num_3,0.1,0.5,0.1,0.25,3.60429,9.01073,return,2.482096499999898,,,,,,,13,21,female,left_right_width,2023_Oct_10_1333,exp1,2021.2.3,60.06283774085927,
,,,,,,,,,,,,,,,,3,9.3,10,10.7,0,0,0.7,0.6,0.1,1.5,10,initial,36.05,335,361,386,0,0,9,9,9,0,0,,,,,1,0,1,0,0,42,42,6,,,,,num_3,1.0143201000000772,num_3,0.45,1.1,0.10000000000000007,1.0,3.60429,36.04293,return,3.404813600000125,,,,,,,13,21,female,left_right_width,2023_Oct_10_1333,exp1,2021.2.3,60.06283774085927,
,,,,,,,,,,,,,,,,4,8.95,9.65,10.35,11.05,0,0.7,0.29999999999999993,0.4,2.5,10,initial,36.05,323,348,373,398,0,9,9,9,9,0,,,,,1,0,1,0,0,43,43,28,,,,,num_3,1.045457499999884,num_3,0.15,1.2,0.39999999999999997,1.0,14.41717,36.04293,return,3.3228736000000936,,,,,,,13,21,female,left_right_width,2023_Oct_10_1333,exp1,2021.2.3,60.06283774085927,
,,,,,,,,,,,,,,,,5,8.6,9.3,10,10.7,11.4,0.7,0.6,0.1,2.9,10,initial,36.05,310,335,361,386,411,9,9,9,9,9,,,,,1,0,1,0,0,44,44,42,,,,,num_6,2.610850600000049,num_6,0.25,1.0,0.3,1.1,10.81288,39.64722,return,2.665879200000063,,,,,,,13,21,female,left_right_width,2023_Oct_10_1333,exp1,2021.2.3,60.06283774085927,
,,,,,,,,,,,,,,,,3,9.1,10,10.9,0,0,0.9,0.65,0.25,2.05,10,initial,36.05,328,361,393,0,0,9,9,9,0,0,,,,,1,0,1,0,0,45,45,14,,,,,num_3,1.1163881999998466,num_3,0.2,0.7,0.35,0.8,12.61502,28.83434,return,3.0232134000000315,,,,,,,13,21,female,left_right_width,2023_Oct_10_1333,exp1,2021.2.3,60.06283774085927,
,,,,,,,,,,,,,,,,4,9.3,9.766666666666667,10.233333333333333,10.7,0,0.4666666666666667,0.06666666666666665,0.4,1.8,10,match,36.05,335,352,369,386,0,9,9,9,9,0,,,,,1,0,1,0,0,46,46,11,,,,,num_4,1.2705207999999857,num_4,0.45,1.3,0.45,0.6,16.21932,21.62576,return,3.4581591000001026,,,,,,,13,21,female,left_right_width,2023_Oct_10_1333,exp1,2021.2.3,60.06283774085927,
,,,,,,,,,,,,,,,,5,8.95,9.475,10,10.525,11.05,0.525,0.42500000000000004,0.1,2.2,10,match,36.05,323,342,361,379,398,9,9,9,9,9,,,,,1,0,1,0,0,47,47,25,,,,,num_5,0.9651821999998447,num_5,0.25,0.7,0.05000000000000002,0.65,1.80215,23.4279,return,3.052263499999981,,,,,,,13,21,female,left_right_width,2023_Oct_10_1333,exp1,2021.2.3,60.06283774085927,
,,,,,,,,,,,,,,,,4,8.95,9.65,10.35,11.05,0,0.7,0.44999999999999996,0.25,2.3499999999999996,10,initial,36.05,323,348,373,398,0,9,9,9,9,0,,,,,1,0,1,0,0,48,48,26,,,,,num_4,1.0446114999999736,num_4,0.35,0.7,0.25,0.6,9.01073,21.62576,return,2.649314500000173,,,,,,,13,21,female,left_right_width,2023_Oct_10_1333,exp1,2021.2.3,60.06283774085927,
,,,,,,,,,,,,,,,,4,9.425,9.808333333333334,10.191666666666666,10.575,0,0.3833333333333333,0.1333333333333333,0.25,1.4,10,match,36.05,340,354,367,381,0,9,9,9,9,0,,,,,1,0,1,0,0,49,49,5,,,,,num_4,1.1205964999999196,num_4,0.25,1.2,0.25,1.2,9.01073,43.25151,return,1.7612283000000843,,,,,,,13,21,female,left_right_width,2023_Oct_10_1333,exp1,2021.2.3,60.06283774085927,
,,,,,,,,,,,,,,,,5,8.6,9.3,10,10.7,11.4,0.7,0.44999999999999996,0.25,3.05,10,initial,36.05,310,335,361,386,411,9,9,9,9,9,,,,,1,0,1,0,0,50,50,44,,,,,num_5,1.0071097000000009,num_5,0.1,1.3,0.25,0.75,9.01073,27.0322,return,3.717554199999995,,,,,,,13,21,female,left_right_width,2023_Oct_10_1333,exp1,2021.2.3,60.06283774085927,
,,,,,,,,,,,,,,,,3,8.2,10,11.8,0,0,1.7999999999999998,1.4,0.4,4,10,match,36.05,296,361,425,0,0,9,9,9,0,0,,,,,1,0,1,0,0,51,51,53,,,,,num_2,2.3014957000000322,num_2,0.1,1.6,0.1,1.1,3.60429,39.64722,return,1.9043825000001107,,,,,,,13,21,female,left_right_width,2023_Oct_10_1333,exp1,2021.2.3,60.06283774085927,
,,,,,,,,,,,,,,,,4,9.25,9.75,10.25,10.75,0,0.5,0.25,0.25,1.75,10,initial,36.05,333,351,370,388,0,9,9,9,9,0,,,,,1,0,1,0,0,52,52,20,,,,,num_4,0.9673943000000236,num_4,0.15,1.3,0.3,0.6,10.81288,21.62576,return,2.621069499999976,,,,,,,13,21,female,left_right_width,2023_Oct_10_1333,exp1,2021.2.3,60.06283774085927,
,,,,,,,,,,,,,,,,5,8.95,9.475,10,10.525,11.05,0.525,0.275,0.25,2.35,10,match,36.05,323,342,361,379,398,9,9,9,9,9,,,,,1,0,1,0,0,53,53,27,,,,,num_4,1.0752893999999742,num_4,0.4,1.3,0.30000000000000004,0.7,10.81288,25.23005,return,2.8865407000000687,,,,,,,13,21,female,left_right_width,2023_Oct_10_1333,exp1,2021.2.3,60.06283774085927,
,,,,,,,,,,,,,,,,,,,,,,,,,,,,,,,,,,,,,,,,,,,1,0,1,0,,,,,,,,,,,,,,,,,,,,,,1000.6220162000001,None,1000.6220162000001,None,13,21,female,left_right_width,2023_Oct_10_1333,exp1,2021.2.3,60.06283774085927,
,,,,,,,,,,,,,,,,4,8.65,9.55,10.45,11.35,0,0.9,0.5,0.4,3.1,10,initial,36.05,312,344,377,409,0,9,9,9,9,0,,,,,2,0,2,0,0,0,0,34,,,,,num_4,1.0125997000000098,num_4,0.15,0.9,0.35,0.8,12.61502,28.83434,return,2.9534935000001497,,,,,,,13,21,female,left_right_width,2023_Oct_10_1333,exp1,2021.2.3,60.06283774085927,
,,,,,,,,,,,,,,,,3,8.6,10,11.4,0,0,1.4,1.15,0.25,3.05,10,match,36.05,310,361,411,0,0,9,9,9,0,0,,,,,2,0,2,0,0,1,1,45,,,,,num_2,1.0792292999999518,num_2,0.35,1.6,0.2,1.4,7.20859,50.4601,return,2.457517199999984,,,,,,,13,21,female,left_right_width,2023_Oct_10_1333,exp1,2021.2.3,60.06283774085927,
,,,,,,,,,,,,,,,,3,9.5,10,10.5,0,0,0.5,0.4,0.1,1.1,10,initial,36.05,342,361,379,0,0,9,9,9,0,0,,,,,2,0,2,0,0,2,2,0,,,,,num_3,1.0236100999998143,num_3,0.3,0.9,0.10000000000000002,0.85,3.60429,30.63649,return,1.9084993000001305,,,,,,,13,21,female,left_right_width,2023_Oct_10_1333,exp1,2021.2.3,60.06283774085927,
,,,,,,,,,,,,,,,,4,9.3,9.766666666666667,10.233333333333333,10.7,0,0.4666666666666667,0.06666666666666665,0.4,1.8,10,match,36.05,335,352,369,386,0,9,9,9,9,0,,,,,2,0,2,0,0,3,3,11,,,,,num_4,1.5352038000000903,num_4,0.4,0.5,0.4,0.5,14.41717,18.02146,return,1.184192899999971,,,,,,,13,21,female,left_right_width,2023_Oct_10_1333,exp1,2021.2.3,60.06283774085927,
,,,,,,,,,,,,,,,,3,8.6,10,11.4,0,0,1.4,1.2999999999999998,0.1,2.9,10,match,36.05,310,361,411,0,0,9,9,9,0,0,,,,,2,0,2,0,0,4,4,43,,,,,num_3,1.405811500000027,num_3,0.3,1.2,0.15000000000000002,1.2,5.40644,43.25151,return,2.099794700000075,,,,,,,13,21,female,left_right_width,2023_Oct_10_1333,exp1,2021.2.3,60.06283774085927,
,,,,,,,,,,,,,,,,3,8.2,10,11.8,0,0,1.7999999999999998,1.4,0.4,4,10,match,36.05,296,361,425,0,0,9,9,9,0,0,,,,,2,0,2,0,0,5,5,53,,,,,num_3,1.1213030000001254,num_3,0.1,1.3,0.25,1.25,9.01073,45.05366,return,2.4180524000000787,,,,,,,13,21,female,left_right_width,2023_Oct_10_1333,exp1,2021.2.3,60.06283774085927,
,,,,,,,,,,,,,,,,3,8.525,10,11.475,0,0,1.475,1.225,0.25,3.2,10,match,36.05,307,361,414,0,0,9,9,9,0,0,,,,,2,0,2,0,0,6,6,47,,,,,num_3,1.2752636999998685,num_3,0.1,0.3,0.2,0.85,7.20859,30.63649,return,4.214770200000203,,,,,,,13,21,female,left_right_width,2023_Oct_10_1333,exp1,2021.2.3,60.06283774085927,
,,,,,,,,,,,,,,,,5,8.2,9.1,10,10.9,11.8,0.9,0.5,0.4,4,10,initial,36.05,296,328,361,393,425,9,9,9,9,9,,,,,2,0,2,0,0,7,7,52,,,,,num_4,1.0072470000000067,num_4,0.3,0.8,0.39999999999999997,1.1,14.41717,39.64722,return,2.2454447999998592,,,,,,,13,21,female,left_right_width,2023_Oct_10_1333,exp1,2021.2.3,60.06283774085927,
,,,,,,,,,,,,,,,,5,8.6,9.3,10,10.7,11.4,0.7,0.6,0.1,2.9,10,initial,36.05,310,335,361,386,411,9,9,9,9,9,,,,,2,0,2,0,0,8,8,42,,,,,num_4,2.6527279999997972,num_4,0.1,0.7,0.15000000000000002,1.1,5.40644,39.64722,return,1.8250610000000052,,,,,,,13,21,female,left_right_width,2023_Oct_10_1333,exp1,2021.2.3,60.06283774085927,
,,,,,,,,,,,,,,,,5,8.95,9.475,10,10.525,11.05,0.525,0.275,0.25,2.35,10,match,36.05,323,342,361,379,398,9,9,9,9,9,,,,,2,0,2,0,0,9,9,27,,,,,num_4,1.0165749999998752,num_4,0.15,0.3,0.2,0.9,7.20859,32.43864,return,1.9675098000000162,,,,,,,13,21,female,left_right_width,2023_Oct_10_1333,exp1,2021.2.3,60.06283774085927,
,,,,,,,,,,,,,,,,5,8.2,9.1,10,10.9,11.8,0.9,0.8,0.1,3.7,10,initial,36.05,296,328,361,393,425,9,9,9,9,9,,,,,2,0,2,0,0,10,10,48,,,,,num_5,0.8614262999999482,num_5,0.4,1.0,0.15000000000000008,1.05,5.40644,37.84507,return,4.2815509999998085,,,,,,,13,21,female,left_right_width,2023_Oct_10_1333,exp1,2021.2.3,60.06283774085927,
,,,,,,,,,,,,,,,,5,9.25,9.625,10,10.375,10.75,0.375,0.125,0.25,1.75,10,match,36.05,333,347,361,374,388,9,9,9,9,9,,,,,2,0,2,0,0,11,11,21,,,,,num_5,0.9512183000001642,num_5,0.2,0.4,0.2,0.4,7.20859,14.41717,return,1.3585746000001109,,,,,,,13,21,female,left_right_width,2023_Oct_10_1333,exp1,2021.2.3,60.06283774085927,
,,,,,,,,,,,,,,,,4,9.25,9.75,10.25,10.75,0,0.5,0.09999999999999998,0.4,1.9,10,initial,36.05,333,351,370,388,0,9,9,9,9,0,,,,,2,0,2,0,0,12,12,22,,,,,num_4,0.9626929000000928,num_4,0.15,0.6,0.35,0.4,12.61502,14.41717,return,3.1929454000000987,,,,,,,13,21,female,left_right_width,2023_Oct_10_1333,exp1,2021.2.3,60.06283774085927,
,,,,,,,,,,,,,,,,4,8.95,9.65,10.35,11.05,0,0.7,0.29999999999999993,0.4,2.5,10,initial,36.05,323,348,373,398,0,9,9,9,9,0,,,,,2,0,2,0,0,13,13,28,,,,,num_4,1.0120334999999159,num_4,0.4,0.8,0.45,0.8,16.21932,28.83434,return,1.1932156000000305,,,,,,,13,21,female,left_right_width,2023_Oct_10_1333,exp1,2021.2.3,60.06283774085927,
,,,,,,,,,,,,,,,,3,9,10,11,0,0,1,0.75,0.25,2.25,10,match,36.05,324,361,397,0,0,9,9,9,0,0,,,,,2,0,2,0,0,14,14,39,,,,,num_3,1.1011183000000528,num_3,0.1,0.8,0.3,0.8,10.81288,28.83434,return,1.791982100000041,,,,,,,13,21,female,left_right_width,2023_Oct_10_1333,exp1,2021.2.3,60.06283774085927,
,,,,,,,,,,,,,,,,3,9.1,10,10.9,0,0,0.9,0.65,0.25,2.05,10,initial,36.05,328,361,393,0,0,9,9,9,0,0,,,,,2,0,2,0,0,15,15,14,,,,,num_3,0.9392883999998958,num_3,0.2,0.9,0.25,0.9,9.01073,32.43864,return,1.3965493000000606,,,,,,,13,21,female,left_right_width,2023_Oct_10_1333,exp1,2021.2.3,60.06283774085927,
,,,,,,,,,,,,,,,,5,8.2,9.1,10,10.9,11.8,0.9,0.65,0.25,3.85,10,initial,36.05,296,328,361,393,425,9,9,9,9,9,,,,,2,0,2,0,0,16,16,50,,,,,num_5,0.8613651999999092,num_5,0.45,0.8,0.20000000000000007,0.9,7.20859,32.43864,return,3.5446365000002515,,,,,,,13,21,female,left_right_width,2023_Oct_10_1333,exp1,2021.2.3,60.06283774085927,
,,,,,,,,,,,,,,,,3,9.3,10,10.7,0,0,0.7,0.44999999999999996,0.25,1.65,10,initial,36.05,335,361,386,0,0,9,9,9,0,0,,,,,2,0,2,0,0,17,17,8,,,,,num_3,0.8404684000001907,num_3,0.4,0.9,0.25000000000000006,0.9,9.01073,32.43864,return,1.7646974999997838,,,,,,,13,21,female,left_right_width,2023_Oct_10_1333,exp1,2021.2.3,60.06283774085927,
,,,,,,,,,,,,,,,,4,8.95,9.65,10.35,11.05,0,0.7,0.44999999999999996,0.25,2.3499999999999996,10,initial,36.05,323,348,373,398,0,9,9,9,9,0,,,,,2,0,2,0,0,18,18,26,,,,,num_3,0.928067700000156,num_3,0.15,1.3,0.3,1.3,10.81288,46.85581,return,1.6717450000001008,,,,,,,13,21,female,left_right_width,2023_Oct_10_1333,exp1,2021.2.3,60.06283774085927,
,,,,,,,,,,,,,,,,5,8.65,9.325,10,10.675,11.35,0.6749999999999999,0.575,0.1,2.8,10,match,36.05,312,336,361,385,409,9,9,9,9,9,,,,,2,0,2,0,0,19,19,31,,,,,num_4,0.8192215999997643,num_4,0.35,1.2,0.15000000000000002,0.9,5.40644,32.43864,return,2.128036200000224,,,,,,,13,21,female,left_right_width,2023_Oct_10_1333,exp1,2021.2.3,60.06283774085927,
,,,,,,,,,,,,,,,,5,8.65,9.325,10,10.675,11.35,0.675,0.42500000000000004,0.25,2.95,10,match,36.05,312,336,361,385,409,9,9,9,9,9,,,,,2,0,2,0,0,20,20,33,,,,,num_5,0.9365056999999979,num_5,0.15,1.3,0.2,1.05,7.20859,37.84507,return,3.634100100000069,,,,,,,13,21,female,left_right_width,2023_Oct_10_1333,exp1,2021.2.3,60.06283774085927,
,,,,,,,,,,,,,,,,5,8.6,9.3,10,10.7,11.4,0.7,0.29999999999999993,0.4,3.1999999999999997,10,initial,36.05,310,335,361,386,411,9,9,9,9,9,,,,,2,0,2,0,0,21,21,46,,,,,num_5,0.8293986999997287,num_5,0.45,0.7,0.35000000000000003,0.75,12.61502,27.0322,return,5.4187340999997105,,,,,,,13,21,female,left_right_width,2023_Oct_10_1333,exp1,2021.2.3,60.06283774085927,
,,,,,,,,,,,,,,,,5,9,9.5,10,10.5,11,0.5,0.25,0.25,2.25,10,initial,36.05,324,342,361,379,397,9,9,9,9,9,,,,,2,0,2,0,0,22,22,38,,,,,num_5,1.3209578999999394,num_5,0.2,0.6,0.3,0.6,10.81288,21.62576,return,1.5716847999997299,,,,,,,13,21,female,left_right_width,2023_Oct_10_1333,exp1,2021.2.3,60.06283774085927,
,,,,,,,,,,,,,,,,4,9.5,9.833333333333334,10.166666666666666,10.5,0,0.33333333333333337,0.23333333333333336,0.1,1.1,10,match,36.05,342,354,367,379,0,9,9,9,9,0,,,,,2,0,2,0,0,23,23,1,,,,,num_4,1.2973420000002989,num_4,0.1,0.5,0.05,0.5,1.80215,18.02146,return,1.2757860000001529,,,,,,,13,21,female,left_right_width,2023_Oct_10_1333,exp1,2021.2.3,60.06283774085927,
,,,,,,,,,,,,,,,,5,8.65,9.325,10,10.675,11.35,0.675,0.275,0.4,3.1,10,match,36.05,312,336,361,385,409,9,9,9,9,9,,,,,2,0,2,0,0,24,24,35,,,,,num_5,0.8801923000000897,num_5,0.1,0.6,0.35,0.6,12.61502,21.62576,return,1.417388800000026,,,,,,,13,21,female,left_right_width,2023_Oct_10_1333,exp1,2021.2.3,60.06283774085927,
,,,,,,,,,,,,,,,,4,9.1,9.7,10.3,10.9,0,0.6000000000000001,0.20000000000000004,0.4,2.2,10,match,36.05,328,350,371,393,0,9,9,9,9,0,,,,,2,0,2,0,0,25,25,17,,,,,num_5,0.9339802999998028,num_5,0.1,1.1,0.3,0.6,10.81288,21.62576,return,4.126402600000347,,,,,,,13,21,female,left_right_width,2023_Oct_10_1333,exp1,2021.2.3,60.06283774085927,
,,,,,,,,,,,,,,,,5,9.175,9.5875,10,10.4125,10.825,0.4125,0.16249999999999998,0.25,1.9,10,match,36.05,331,346,361,375,390,9,9,9,9,9,,,,,2,0,2,0,0,26,26,23,,,,,num_4,0.817504099999951,num_4,0.15,1.0,0.35,0.7,12.61502,25.23005,return,2.400914599999851,,,,,,,13,21,female,left_right_width,2023_Oct_10_1333,exp1,2021.2.3,60.06283774085927,
,,,,,,,,,,,,,,,,3,9,10,11,0,0,0.9999999999999999,0.5999999999999999,0.4,2.4,10,match,36.05,324,361,397,0,0,9,9,9,0,0,,,,,2,0,2,0,0,27,27,41,,,,,num_3,0.9147255000002588,num_3,0.2,1,0.35,0.9,12.61502,32.43864,return,2.444353200000023,,,,,,,13,21,female,left_right_width,2023_Oct_10_1333,exp1,2021.2.3,60.06283774085927,
,,,,,,,,,,,,,,,,4,9.1,9.7,10.3,10.9,0,0.6,0.5,0.1,1.9,10,match,36.05,328,350,371,393,0,9,9,9,9,0,,,,,2,0,2,0,0,28,28,13,,,,,num_3,0.9297993000000133,num_3,0.1,1,0.2,0.8,7.20859,28.83434,return,2.7942011000000093,,,,,,,13,21,female,left_right_width,2023_Oct_10_1333,exp1,2021.2.3,60.06283774085927,
,,,,,,,,,,,,,,,,3,9,10,11,0,0,1,0.9,0.1,2.1,10,match,36.05,324,361,397,0,0,9,9,9,0,0,,,,,2,0,2,0,0,29,29,37,,,,,num_3,1.0045651000000362,num_3,0.25,1.1,0.10000000000000002,1.0,3.60429,36.04293,return,1.903157999999621,,,,,,,13,21,female,left_right_width,2023_Oct_10_1333,exp1,2021.2.3,60.06283774085927,
,,,,,,,,,,,,,,,,4,9.3,9.766666666666667,10.233333333333333,10.7,0,0.4666666666666667,0.3666666666666667,0.1,1.5,10,match,36.05,335,352,369,386,0,9,9,9,9,0,,,,,2,0,2,0,0,30,30,7,,,,,num_3,0.9030518999998094,num_3,0.1,0.8,0.1,0.8,3.60429,28.83434,return,1.585334999999759,,,,,,,13,21,female,left_right_width,2023_Oct_10_1333,exp1,2021.2.3,60.06283774085927,
,,,,,,,,,,,,,,,,3,9.3,10,10.7,0,0,0.7,0.6,0.1,1.5,10,initial,36.05,335,361,386,0,0,9,9,9,0,0,,,,,2,0,2,0,0,31,31,6,,,,,num_3,1.4553827999998248,num_3,0.35,0.4,0.10000000000000002,0.65,3.60429,23.4279,return,4.033699500000239,,,,,,,13,21,female,left_right_width,2023_Oct_10_1333,exp1,2021.2.3,60.06283774085927,
,,,,,,,,,,,,,,,,5,9,9.5,10,10.5,11,0.5,0.09999999999999998,0.4,2.4,10,initial,36.05,324,342,361,379,397,9,9,9,9,9,,,,,2,0,2,0,0,32,32,40,,,,,num_4,1.0672916999997142,num_4,0.3,0.3,0.35,0.5,12.61502,18.02146,return,3.4540084000000206,,,,,,,13,21,female,left_right_width,2023_Oct_10_1333,exp1,2021.2.3,60.06283774085927,
,,,,,,,,,,,,,,,,3,9.5,10,10.5,0,0,0.5,0.25,0.25,1.25,10,initial,36.05,342,361,379,0,0,9,9,9,0,0,,,,,2,0,2,0,0,33,33,2,,,,,num_3,1.0640333999999712,num_3,0.15,0.9,0.35,0.7,12.61502,25.23005,return,2.2512136000000282,,,,,,,13,21,female,left_right_width,2023_Oct_10_1333,exp1,2021.2.3,60.06283774085927,
,,,,,,,,,,,,,,,,4,8.65,9.55,10.45,11.35,0,0.9,0.8,0.1,2.8000000000000003,10,initial,36.05,312,344,377,409,0,9,9,9,9,0,,,,,2,0,2,0,0,34,34,30,,,,,num_4,1.1953897999997025,num_4,0.4,1.1,0.15000000000000008,0.6,5.40644,21.62576,return,2.760707800000091,,,,,,,13,21,female,left_right_width,2023_Oct_10_1333,exp1,2021.2.3,60.06283774085927,
,,,,,,,,,,,,,,,,4,8.95,9.65,10.35,11.05,0,0.7,0.6,0.1,2.1999999999999997,10,initial,36.05,323,348,373,398,0,9,9,9,9,0,,,,,2,0,2,0,0,35,35,24,,,,,num_3,1.1609595999998419,num_3,0.15,0.3,0.05000000000000002,0.55,1.80215,19.82361,return,4.2485836000000745,,,,,,,13,21,female,left_right_width,2023_Oct_10_1333,exp1,2021.2.3,60.06283774085927,
,,,,,,,,,,,,,,,,4,9.1,9.7,10.3,10.9,0,0.5999999999999999,0.3499999999999999,0.25,2.05,10,match,36.05,328,350,371,393,0,9,9,9,9,0,,,,,2,0,2,0,0,36,36,15,,,,,num_4,1.1426308000000063,num_4,0.2,1.1,0.15000000000000002,0.7,5.40644,25.23005,return,2.215089100000114,,,,,,,13,21,female,left_right_width,2023_Oct_10_1333,exp1,2021.2.3,60.06283774085927,
,,,,,,,,,,,,,,,,3,9.3,10,10.7,0,0,0.7,0.29999999999999993,0.4,1.8,10,initial,36.05,335,361,386,0,0,9,9,9,0,0,,,,,2,0,2,0,0,37,37,10,,,,,num_3,1.157966000000215,num_3,0.45,1.2,0.30000000000000004,1.05,10.81288,37.84507,return,2.1973987000001216,,,,,,,13,21,female,left_right_width,2023_Oct_10_1333,exp1,2021.2.3,60.06283774085927,
,,,,,,,,,,,,,,,,3,9.1,10,10.9,0,0,0.9,0.8,0.1,1.9000000000000001,10,initial,36.05,328,361,393,0,0,9,9,9,0,0,,,,,2,0,2,0,0,38,38,12,,,,,num_3,0.8632947000000968,num_3,0.25,0.4,0.10000000000000002,0.6,3.60429,21.62576,return,3.4522486999999273,,,,,,,13,21,female,left_right_width,2023_Oct_10_1333,exp1,2021.2.3,60.06283774085927,
,,,,,,,,,,,,,,,,3,8.2,10,11.8,0,0,1.8,1.55,0.25,3.85,10,match,36.05,296,361,425,0,0,9,9,9,0,0,,,,,2,0,2,0,0,39,39,51,,,,,num_3,0.9486919000000853,num_3,0.25,0.4,0.15000000000000002,0.65,5.40644,23.4279,return,2.7011155999998664,,,,,,,13,21,female,left_right_width,2023_Oct_10_1333,exp1,2021.2.3,60.06283774085927,
,,,,,,,,,,,,,,,,4,9.3,9.766666666666667,10.233333333333333,10.7,0,0.4666666666666667,0.21666666666666665,0.25,1.65,10,match,36.05,335,352,369,386,0,9,9,9,9,0,,,,,2,0,2,0,0,40,40,9,,,,,num_3,0.8885041000003184,num_3,0.15,1.1,0.2,0.85,7.20859,30.63649,return,3.279866899999888,,,,,,,13,21,female,left_right_width,2023_Oct_10_1333,exp1,2021.2.3,60.06283774085927,
,,,,,,,,,,,,,,,,5,9,9.5,10,10.5,11,0.5,0.4,0.1,2.1,10,initial,36.05,324,342,361,379,397,9,9,9,9,9,,,,,2,0,2,0,0,41,41,36,,,,,num_4,0.9372894000002816,num_4,0.1,0.6,0.1,0.5,3.60429,18.02146,return,3.0244179999999687,,,,,,,13,21,female,left_right_width,2023_Oct_10_1333,exp1,2021.2.3,60.06283774085927,
,,,,,,,,,,,,,,,,3,8.2,10,11.8,0,0,1.8000000000000003,1.7000000000000002,0.1,3.7,10,match,36.05,296,361,425,0,0,9,9,9,0,0,,,,,2,0,2,0,0,42,42,49,,,,,num_3,0.784035700000004,num_3,0.15,1.2,0.10000000000000002,1.25,3.60429,45.05366,return,2.7822840999997425,,,,,,,13,21,female,left_right_width,2023_Oct_10_1333,exp1,2021.2.3,60.06283774085927,
,,,,,,,,,,,,,,,,5,8.95,9.475,10,10.525,11.05,0.525,0.42500000000000004,0.1,2.2,10,match,36.05,323,342,361,379,398,9,9,9,9,9,,,,,2,0,2,0,0,43,43,25,,,,,num_4,0.9253601000000344,num_4,0.15,1.2,0.09999999999999999,1.2,3.60429,43.25151,return,2.678239299999859,,,,,,,13,21,female,left_right_width,2023_Oct_10_1333,exp1,2021.2.3,60.06283774085927,
,,,,,,,,,,,,,,,,4,9.25,9.75,10.25,10.75,0,0.5,0.25,0.25,1.75,10,initial,36.05,333,351,370,388,0,9,9,9,9,0,,,,,2,0,2,0,0,44,44,20,,,,,num_4,0.8930722999998579,num_4,0.15,0.4,0.2,0.5,7.20859,18.02146,return,4.198734300000069,,,,,,,13,21,female,left_right_width,2023_Oct_10_1333,exp1,2021.2.3,60.06283774085927,
,,,,,,,,,,,,,,,,3,9.1,10,10.9,0,0,0.9,0.5,0.4,2.2,10,initial,36.05,328,361,393,0,0,9,9,9,0,0,,,,,2,0,2,0,0,45,45,16,,,,,num_3,1.052709600000071,num_3,0.4,1.1,0.4,1.1,14.41717,39.64722,return,1.3451639999998406,,,,,,,13,21,female,left_right_width,2023_Oct_10_1333,exp1,2021.2.3,60.06283774085927,
,,,,,,,,,,,,,,,,4,9.5,9.833333333333334,10.166666666666666,10.5,0,0.3333333333333333,0.08333333333333333,0.25,1.25,10,match,36.05,342,354,367,379,0,9,9,9,9,0,,,,,2,0,2,0,0,46,46,3,,,,,num_3,0.8238484999997127,num_3,0.1,0.3,0.25,0.4,9.01073,14.41717,return,2.820777899999939,,,,,,,13,21,female,left_right_width,2023_Oct_10_1333,exp1,2021.2.3,60.06283774085927,
,,,,,,,,,,,,,,,,4,9.25,9.75,10.25,10.75,0,0.5,0.4,0.1,1.6,10,initial,36.05,333,351,370,388,0,9,9,9,9,0,,,,,2,0,2,0,0,47,47,18,,,,,num_4,0.8652168000003257,num_4,0.4,1.3,0.20000000000000007,0.7,7.20859,25.23005,return,3.3547429999998712,,,,,,,13,21,female,left_right_width,2023_Oct_10_1333,exp1,2021.2.3,60.06283774085927,
,,,,,,,,,,,,,,,,5,8.6,9.3,10,10.7,11.4,0.7,0.44999999999999996,0.25,3.05,10,initial,36.05,310,335,361,386,411,9,9,9,9,9,,,,,2,0,2,0,0,48,48,44,,,,,num_5,1.055916000000252,num_5,0.35,0.4,0.2,0.8,7.20859,28.83434,return,5.34639849999985,,,,,,,13,21,female,left_right_width,2023_Oct_10_1333,exp1,2021.2.3,60.06283774085927,
,,,,,,,,,,,,,,,,4,9.425,9.808333333333334,10.191666666666666,10.575,0,0.3833333333333333,0.1333333333333333,0.25,1.4,10,match,36.05,340,354,367,381,0,9,9,9,9,0,,,,,2,0,2,0,0,49,49,5,,,,,num_4,1.077419700000064,num_4,0.15,1.1,0.25,0.6,9.01073,21.62576,return,3.072642099999939,,,,,,,13,21,female,left_right_width,2023_Oct_10_1333,exp1,2021.2.3,60.06283774085927,
,,,,,,,,,,,,,,,,3,9.5,10,10.5,0,0,0.5,0.09999999999999998,0.4,1.4000000000000001,10,initial,36.05,342,361,379,0,0,9,9,9,0,0,,,,,2,0,2,0,0,50,50,4,,,,,num_3,0.9296281000001727,num_3,0.25,1,0.3,0.7,10.81288,25.23005,return,4.394056300000102,,,,,,,13,21,female,left_right_width,2023_Oct_10_1333,exp1,2021.2.3,60.06283774085927,
,,,,,,,,,,,,,,,,4,8.65,9.55,10.45,11.35,0,0.9,0.65,0.25,2.95,10,initial,36.05,312,344,377,409,0,9,9,9,9,0,,,,,2,0,2,0,0,51,51,32,,,,,num_4,1.1276677000000745,num_4,0.3,0.3,0.3,0.3,10.81288,10.81288,return,7.271467699999903,,,,,,,13,21,female,left_right_width,2023_Oct_10_1333,exp1,2021.2.3,60.06283774085927,
,,,,,,,,,,,,,,,,5,9.25,9.625,10,10.375,10.75,0.375,0.275,0.1,1.6,10,match,36.05,333,347,361,374,388,9,9,9,9,9,,,,,2,0,2,0,0,52,52,19,,,,,num_4,0.8554126999997607,num_4,0.45,1.2,0.15000000000000008,0.7,5.40644,25.23005,return,2.833771600000091,,,,,,,13,21,female,left_right_width,2023_Oct_10_1333,exp1,2021.2.3,60.06283774085927,
,,,,,,,,,,,,,,,,5,8.95,9.475,10,10.525,11.05,0.525,0.125,0.4,2.5,10,match,36.05,323,342,361,379,398,9,9,9,9,9,,,,,2,0,2,0,0,53,53,29,,,,,num_5,0.959366399999908,num_5,0.2,0.6,0.35,0.6,12.61502,21.62576,return,2.1511295000000246,,,,,,,13,21,female,left_right_width,2023_Oct_10_1333,exp1,2021.2.3,60.06283774085927,
,,,,,,,,,,,,,,,,,,,,,,,,,,,,,,,,,,,,,,,,,,,2,0,2,0,,,,,,,,,,,,,,,,,,,,,,1351.8719716,None,1351.8719716,None,13,21,female,left_right_width,2023_Oct_10_1333,exp1,2021.2.3,60.06283774085927,
,,,,,,,,,,,,,,,,4,9.3,9.766666666666667,10.233333333333333,10.7,0,0.4666666666666667,0.3666666666666667,0.1,1.5,10,match,36.05,335,352,369,386,0,9,9,9,9,0,,,,,3,0,3,0,0,0,0,7,,,,,num_5,1.38146930000039,num_5,0.25,0.4,0.15000000000000002,0.4,5.40644,14.41717,return,2.541045999999824,,,,,,,13,21,female,left_right_width,2023_Oct_10_1333,exp1,2021.2.3,60.06283774085927,
,,,,,,,,,,,,,,,,5,8.65,9.325,10,10.675,11.35,0.675,0.42500000000000004,0.25,2.95,10,match,36.05,312,336,361,385,409,9,9,9,9,9,,,,,3,0,3,0,0,1,1,33,,,,,num_5,0.8301265000000058,num_5,0.15,0.6,0.3,0.75,10.81288,27.0322,return,1.6770939000002727,,,,,,,13,21,female,left_right_width,2023_Oct_10_1333,exp1,2021.2.3,60.06283774085927,
,,,,,,,,,,,,,,,,3,9.3,10,10.7,0,0,0.7,0.29999999999999993,0.4,1.8,10,initial,36.05,335,361,386,0,0,9,9,9,0,0,,,,,3,0,3,0,0,2,2,10,,,,,num_3,0.9052956000000449,num_3,0.45,0.5,0.35000000000000003,0.6,12.61502,21.62576,return,3.253594400000111,,,,,,,13,21,female,left_right_width,2023_Oct_10_1333,exp1,2021.2.3,60.06283774085927,
,,,,,,,,,,,,,,,,3,9.3,10,10.7,0,0,0.7,0.44999999999999996,0.25,1.65,10,initial,36.05,335,361,386,0,0,9,9,9,0,0,,,,,3,0,3,0,0,3,3,8,,,,,num_3,0.9647960000002058,num_3,0.15,0.3,0.25,0.6,9.01073,21.62576,return,2.3157639999999446,,,,,,,13,21,female,left_right_width,2023_Oct_10_1333,exp1,2021.2.3,60.06283774085927,
,,,,,,,,,,,,,,,,5,9,9.5,10,10.5,11,0.5,0.09999999999999998,0.4,2.4,10,initial,36.05,324,342,361,379,397,9,9,9,9,9,,,,,3,0,3,0,0,4,4,40,,,,,num_5,1.4152658000002702,num_5,0.4,0.9,0.45,0.55,16.21932,19.82361,return,3.5662695000000895,,,,,,,13,21,female,left_right_width,2023_Oct_10_1333,exp1,2021.2.3,60.06283774085927,
,,,,,,,,,,,,,,,,4,9.3,9.766666666666667,10.233333333333333,10.7,0,0.4666666666666667,0.21666666666666665,0.25,1.65,10,match,36.05,335,352,369,386,0,9,9,9,9,0,,,,,3,0,3,0,0,5,5,9,,,,,num_4,1.090313000000151,num_4,0.35,0.8,0.39999999999999997,0.7,14.41717,25.23005,return,4.342182099999718,,,,,,,13,21,female,left_right_width,2023_Oct_10_1333,exp1,2021.2.3,60.06283774085927,
,,,,,,,,,,,,,,,,3,9.1,10,10.9,0,0,0.9,0.65,0.25,2.05,10,initial,36.05,328,361,393,0,0,9,9,9,0,0,,,,,3,0,3,0,0,6,6,14,,,,,num_3,1.0398055000000568,num_3,0.1,0.3,0.3,0.55,10.81288,19.82361,return,2.5808138000002145,,,,,,,13,21,female,left_right_width,2023_Oct_10_1333,exp1,2021.2.3,60.06283774085927,
,,,,,,,,,,,,,,,,3,9.1,10,10.9,0,0,0.9,0.5,0.4,2.2,10,initial,36.05,328,361,393,0,0,9,9,9,0,0,,,,,3,0,3,0,0,7,7,16,,,,,num_3,0.9665978999996696,num_3,0.2,0.5,0.35,0.75,12.61502,27.0322,return,2.559020099999998,,,,,,,13,21,female,left_right_width,2023_Oct_10_1333,exp1,2021.2.3,60.06283774085927,
,,,,,,,,,,,,,,,,4,9.5,9.833333333333334,10.166666666666666,10.5,0,0.33333333333333337,0.23333333333333336,0.1,1.1,10,match,36.05,342,354,367,379,0,9,9,9,9,0,,,,,3,0,3,0,0,8,8,1,,,,,num_4,1.2152108000000226,num_4,0.4,0.9,0.20000000000000007,0.6,7.20859,21.62576,return,2.2386578999999074,,,,,,,13,21,female,left_right_width,2023_Oct_10_1333,exp1,2021.2.3,60.06283774085927,
,,,,,,,,,,,,,,,,4,9.5,9.833333333333334,10.166666666666666,10.5,0,0.3333333333333333,0.08333333333333333,0.25,1.25,10,match,36.05,342,354,367,379,0,9,9,9,9,0,,,,,3,0,3,0,0,9,9,3,,,,,num_4,0.9651777999997648,num_4,0.35,0.7,0.25,0.5,9.01073,18.02146,return,2.3970103000001473,,,,,,,13,21,female,left_right_width,2023_Oct_10_1333,exp1,2021.2.3,60.06283774085927,
,,,,,,,,,,,,,,,,5,8.2,9.1,10,10.9,11.8,0.9,0.8,0.1,3.7,10,initial,36.05,296,328,361,393,425,9,9,9,9,9,,,,,3,0,3,0,0,10,10,48,,,,,num_5,0.922843699999703,num_5,0.45,1.3,0.15000000000000008,1.05,5.40644,37.84507,return,2.6609400000002097,,,,,,,13,21,female,left_right_width,2023_Oct_10_1333,exp1,2021.2.3,60.06283774085927,
,,,,,,,,,,,,,,,,3,8.2,10,11.8,0,0,1.8,1.55,0.25,3.85,10,match,36.05,296,361,425,0,0,9,9,9,0,0,,,,,3,0,3,0,0,11,11,51,,,,,num_4,1.1744597000001704,num_4,0.15,1.3,0.2,1.3,7.20859,46.85581,return,2.4373642000000473,,,,,,,13,21,female,left_right_width,2023_Oct_10_1333,exp1,2021.2.3,60.06283774085927,
,,,,,,,,,,,,,,,,4,9.425,9.808333333333334,10.191666666666666,10.575,0,0.3833333333333333,0.1333333333333333,0.25,1.4,10,match,36.05,340,354,367,381,0,9,9,9,9,0,,,,,3,0,3,0,0,12,12,5,,,,,num_4,0.9815074999996796,num_4,0.2,0.6,0.2,0.8,7.20859,28.83434,return,3.4222116000000824,,,,,,,13,21,female,left_right_width,2023_Oct_10_1333,exp1,2021.2.3,60.06283774085927,
,,,,,,,,,,,,,,,,4,9.3,9.766666666666667,10.233333333333333,10.7,0,0.4666666666666667,0.06666666666666665,0.4,1.8,10,match,36.05,335,352,369,386,0,9,9,9,9,0,,,,,3,0,3,0,0,13,13,11,,,,,num_4,0.8693520000001627,num_4,0.35,0.5,0.39999999999999997,0.5,14.41717,18.02146,return,3.2539786000002096,,,,,,,13,21,female,left_right_width,2023_Oct_10_1333,exp1,2021.2.3,60.06283774085927,
,,,,,,,,,,,,,,,,3,9,10,11,0,0,1,0.9,0.1,2.1,10,match,36.05,324,361,397,0,0,9,9,9,0,0,,,,,3,0,3,0,0,14,14,37,,,,,num_3,0.8120199999998476,num_3,0.15,0.5,0.04999999999999999,0.75,1.80215,27.0322,return,2.778494199999841,,,,,,,13,21,female,left_right_width,2023_Oct_10_1333,exp1,2021.2.3,60.06283774085927,
,,,,,,,,,,,,,,,,4,9.25,9.75,10.25,10.75,0,0.5,0.09999999999999998,0.4,1.9,10,initial,36.05,333,351,370,388,0,9,9,9,9,0,,,,,3,0,3,0,0,15,15,22,,,,,num_3,0.9419852999999421,num_3,0.15,1,0.44999999999999996,0.85,16.21932,30.63649,return,4.038879499999894,,,,,,,13,21,female,left_right_width,2023_Oct_10_1333,exp1,2021.2.3,60.06283774085927,
,,,,,,,,,,,,,,,,3,9.5,10,10.5,0,0,0.5,0.25,0.25,1.25,10,initial,36.05,342,361,379,0,0,9,9,9,0,0,,,,,3,0,3,0,0,16,16,2,,,,,num_3,0.93007149999994,num_3,0.15,0.3,0.25,0.5,9.01073,18.02146,return,2.394771799999944,,,,,,,13,21,female,left_right_width,2023_Oct_10_1333,exp1,2021.2.3,60.06283774085927,
,,,,,,,,,,,,,,,,4,9.25,9.75,10.25,10.75,0,0.5,0.25,0.25,1.75,10,initial,36.05,333,351,370,388,0,9,9,9,9,0,,,,,3,0,3,0,0,17,17,20,,,,,num_4,1.0648135999999795,num_4,0.3,1.2,0.35,0.7,12.61502,25.23005,return,2.8939617999999427,,,,,,,13,21,female,left_right_width,2023_Oct_10_1333,exp1,2021.2.3,60.06283774085927,
,,,,,,,,,,,,,,,,5,8.65,9.325,10,10.675,11.35,0.675,0.275,0.4,3.1,10,match,36.05,312,336,361,385,409,9,9,9,9,9,,,,,3,0,3,0,0,18,18,35,,,,,num_5,0.8381585000001905,num_5,0.2,0.4,0.35,0.65,12.61502,23.4279,return,3.0761779999998,,,,,,,13,21,female,left_right_width,2023_Oct_10_1333,exp1,2021.2.3,60.06283774085927,
,,,,,,,,,,,,,,,,5,8.6,9.3,10,10.7,11.4,0.7,0.44999999999999996,0.25,3.05,10,initial,36.05,310,335,361,386,411,9,9,9,9,9,,,,,3,0,3,0,0,19,19,44,,,,,num_4,1.9146874000002754,num_4,0.2,0.7,0.3,0.7,10.81288,25.23005,return,1.6124955000000227,,,,,,,13,21,female,left_right_width,2023_Oct_10_1333,exp1,2021.2.3,60.06283774085927,
,,,,,,,,,,,,,,,,5,8.6,9.3,10,10.7,11.4,0.7,0.29999999999999993,0.4,3.1999999999999997,10,initial,36.05,310,335,361,386,411,9,9,9,9,9,,,,,3,0,3,0,0,20,20,46,,,,,num_5,0.8374987000001965,num_5,0.1,0.5,0.3,0.65,10.81288,23.4279,return,1.7291955000000598,,,,,,,13,21,female,left_right_width,2023_Oct_10_1333,exp1,2021.2.3,60.06283774085927,
,,,,,,,,,,,,,,,,3,9.1,10,10.9,0,0,0.9,0.8,0.1,1.9000000000000001,10,initial,36.05,328,361,393,0,0,9,9,9,0,0,,,,,3,0,3,0,0,21,21,12,,,,,num_2,0.9419453000000431,num_2,0.45,1.6,0.25000000000000006,1.2,9.01073,43.25151,return,2.424523799999861,,,,,,,13,21,female,left_right_width,2023_Oct_10_1333,exp1,2021.2.3,60.06283774085927,
,,,,,,,,,,,,,,,,4,8.65,9.55,10.45,11.35,0,0.9,0.8,0.1,2.8000000000000003,10,initial,36.05,312,344,377,409,0,9,9,9,9,0,,,,,3,0,3,0,0,22,22,30,,,,,num_4,0.9786944000002222,num_4,0.35,0.4,0.35,0.8,12.61502,28.83434,return,10.360976500000106,,,,,,,13,21,female,left_right_width,2023_Oct_10_1333,exp1,2021.2.3,60.06283774085927,
,,,,,,,,,,,,,,,,5,8.95,9.475,10,10.525,11.05,0.525,0.125,0.4,2.5,10,match,36.05,323,342,361,379,398,9,9,9,9,9,,,,,3,0,3,0,0,23,23,29,,,,,num_5,1.0587273999999525,num_5,0.45,0.6,0.35000000000000003,0.6,12.61502,21.62576,return,2.488043199999993,,,,,,,13,21,female,left_right_width,2023_Oct_10_1333,exp1,2021.2.3,60.06283774085927,
,,,,,,,,,,,,,,,,5,9,9.5,10,10.5,11,0.5,0.4,0.1,2.1,10,initial,36.05,324,342,361,379,397,9,9,9,9,9,,,,,3,0,3,0,0,24,24,36,,,,,num_4,0.9825504999998884,num_4,0.15,0.4,0.15000000000000002,0.8,5.40644,28.83434,return,2.5552231000001484,,,,,,,13,21,female,left_right_width,2023_Oct_10_1333,exp1,2021.2.3,60.06283774085927,
,,,,,,,,,,,,,,,,3,9.3,10,10.7,0,0,0.7,0.6,0.1,1.5,10,initial,36.05,335,361,386,0,0,9,9,9,0,0,,,,,3,0,3,0,0,25,25,6,,,,,num_3,1.049107499999991,num_3,0.2,0.5,0.10000000000000002,0.6,3.60429,21.62576,return,1.5812863999999536,,,,,,,13,21,female,left_right_width,2023_Oct_10_1333,exp1,2021.2.3,60.06283774085927,
,,,,,,,,,,,,,,,,5,9.175,9.5875,10,10.4125,10.825,0.4125,0.16249999999999998,0.25,1.9,10,match,36.05,331,346,361,375,390,9,9,9,9,9,,,,,3,0,3,0,0,26,26,23,,,,,num_5,0.8981121000001622,num_5,0.3,1.3,0.2,0.75,7.20859,27.0322,return,4.125897099999747,,,,,,,13,21,female,left_right_width,2023_Oct_10_1333,exp1,2021.2.3,60.06283774085927,
,,,,,,,,,,,,,,,,5,8.95,9.475,10,10.525,11.05,0.525,0.42500000000000004,0.1,2.2,10,match,36.05,323,342,361,379,398,9,9,9,9,9,,,,,3,0,3,0,0,27,27,25,,,,,num_5,0.9649501000003511,num_5,0.45,0.9,0.15000000000000008,0.8,5.40644,28.83434,return,2.0925090999999156,,,,,,,13,21,female,left_right_width,2023_Oct_10_1333,exp1,2021.2.3,60.06283774085927,
,,,,,,,,,,,,,,,,3,8.525,10,11.475,0,0,1.475,1.225,0.25,3.2,10,match,36.05,307,361,414,0,0,9,9,9,0,0,,,,,3,0,3,0,0,28,28,47,,,,,num_3,0.9145182000002023,num_3,0.1,0.7,0.25,1.2,9.01073,43.25151,return,3.0680382000000463,,,,,,,13,21,female,left_right_width,2023_Oct_10_1333,exp1,2021.2.3,60.06283774085927,
,,,,,,,,,,,,,,,,3,9,10,11,0,0,1,0.75,0.25,2.25,10,match,36.05,324,361,397,0,0,9,9,9,0,0,,,,,3,0,3,0,0,29,29,39,,,,,num_3,0.9627554999997301,num_3,0.25,0.3,0.3,0.85,10.81288,30.63649,return,4.026580800000374,,,,,,,13,21,female,left_right_width,2023_Oct_10_1333,exp1,2021.2.3,60.06283774085927,
,,,,,,,,,,,,,,,,3,8.6,10,11.4,0,0,1.4,1.2999999999999998,0.1,2.9,10,match,36.05,310,361,411,0,0,9,9,9,0,0,,,,,3,0,3,0,0,30,30,43,,,,,num_2,1.0147964999996475,num_2,0.4,1.6,0.20000000000000007,1.6,7.20859,57.66869,return,1.3736779999999271,,,,,,,13,21,female,left_right_width,2023_Oct_10_1333,exp1,2021.2.3,60.06283774085927,
,,,,,,,,,,,,,,,,5,8.2,9.1,10,10.9,11.8,0.9,0.5,0.4,4,10,initial,36.05,296,328,361,393,425,9,9,9,9,9,,,,,3,0,3,0,0,31,31,52,,,,,num_5,1.0843502000002445,num_5,0.25,0.4,0.3,0.75,10.81288,27.0322,return,3.152942499999881,,,,,,,13,21,female,left_right_width,2023_Oct_10_1333,exp1,2021.2.3,60.06283774085927,
,,,,,,,,,,,,,,,,4,9.1,9.7,10.3,10.9,0,0.5999999999999999,0.3499999999999999,0.25,2.05,10,match,36.05,328,350,371,393,0,9,9,9,9,0,,,,,3,0,3,0,0,32,32,15,,,,,num_4,0.9715246000000661,num_4,0.4,0.9,0.35000000000000003,1.1,12.61502,39.64722,return,2.3382385999998405,,,,,,,13,21,female,left_right_width,2023_Oct_10_1333,exp1,2021.2.3,60.06283774085927,
,,,,,,,,,,,,,,,,4,8.95,9.65,10.35,11.05,0,0.7,0.44999999999999996,0.25,2.3499999999999996,10,initial,36.05,323,348,373,398,0,9,9,9,9,0,,,,,3,0,3,0,0,33,33,26,,,,,num_4,0.9338956999999937,num_4,0.35,0.5,0.25,1.2,9.01073,43.25151,return,2.7836107999996784,,,,,,,13,21,female,left_right_width,2023_Oct_10_1333,exp1,2021.2.3,60.06283774085927,
,,,,,,,,,,,,,,,,4,8.95,9.65,10.35,11.05,0,0.7,0.29999999999999993,0.4,2.5,10,initial,36.05,323,348,373,398,0,9,9,9,9,0,,,,,3,0,3,0,0,34,34,28,,,,,num_5,1.0649490000000696,num_5,0.3,1.1,0.3,0.75,10.81288,27.0322,return,3.3734149000001707,,,,,,,13,21,female,left_right_width,2023_Oct_10_1333,exp1,2021.2.3,60.06283774085927,
,,,,,,,,,,,,,,,,5,8.95,9.475,10,10.525,11.05,0.525,0.275,0.25,2.35,10,match,36.05,323,342,361,379,398,9,9,9,9,9,,,,,3,0,3,0,0,35,35,27,,,,,num_5,1.090647699999863,num_5,0.25,0.5,0.25,0.75,9.01073,27.0322,return,2.085811299999932,,,,,,,13,21,female,left_right_width,2023_Oct_10_1333,exp1,2021.2.3,60.06283774085927,
,,,,,,,,,,,,,,,,5,9,9.5,10,10.5,11,0.5,0.25,0.25,2.25,10,initial,36.05,324,342,361,379,397,9,9,9,9,9,,,,,3,0,3,0,0,36,36,38,,,,,num_5,0.8061797000000297,num_5,0.15,0.9,0.3,0.65,10.81288,23.4279,return,2.883310100000017,,,,,,,13,21,female,left_right_width,2023_Oct_10_1333,exp1,2021.2.3,60.06283774085927,
,,,,,,,,,,,,,,,,3,8.2,10,11.8,0,0,1.8000000000000003,1.7000000000000002,0.1,3.7,10,match,36.05,296,361,425,0,0,9,9,9,0,0,,,,,3,0,3,0,0,37,37,49,,,,,num_3,0.9531971999999769,num_3,0.1,0.3,0.05,1.2,1.80215,43.25151,return,7.409472899999855,,,,,,,13,21,female,left_right_width,2023_Oct_10_1333,exp1,2021.2.3,60.06283774085927,
,,,,,,,,,,,,,,,,4,9.1,9.7,10.3,10.9,0,0.6,0.5,0.1,1.9,10,match,36.05,328,350,371,393,0,9,9,9,9,0,,,,,3,0,3,0,0,38,38,13,,,,,num_3,1.5782902000000831,num_3,0.25,0.3,0.05000000000000002,0.8,1.80215,28.83434,return,4.233535899999879,,,,,,,13,21,female,left_right_width,2023_Oct_10_1333,exp1,2021.2.3,60.06283774085927,
,,,,,,,,,,,,,,,,5,9.25,9.625,10,10.375,10.75,0.375,0.125,0.25,1.75,10,match,36.05,333,347,361,374,388,9,9,9,9,9,,,,,3,0,3,0,0,39,39,21,,,,,num_4,1.587326700000176,num_4,0.3,0.7,0.3,0.7,10.81288,25.23005,return,0.9297741000000315,,,,,,,13,21,female,left_right_width,2023_Oct_10_1333,exp1,2021.2.3,60.06283774085927,
,,,,,,,,,,,,,,,,4,8.95,9.65,10.35,11.05,0,0.7,0.6,0.1,2.1999999999999997,10,initial,36.05,323,348,373,398,0,9,9,9,9,0,,,,,3,0,3,0,0,40,40,24,,,,,num_3,1.157951199999843,num_3,0.3,1.2,0.10000000000000002,1.0,3.60429,36.04293,return,3.0908367000001817,,,,,,,13,21,female,left_right_width,2023_Oct_10_1333,exp1,2021.2.3,60.06283774085927,
,,,,,,,,,,,,,,,,3,9.5,10,10.5,0,0,0.5,0.09999999999999998,0.4,1.4000000000000001,10,initial,36.05,342,361,379,0,0,9,9,9,0,0,,,,,3,0,3,0,0,41,41,4,,,,,num_4,1.0031693999999334,num_4,0.4,1.1,0.4,0.6,14.41717,21.62576,return,3.6821060000002035,,,,,,,13,21,female,left_right_width,2023_Oct_10_1333,exp1,2021.2.3,60.06283774085927,
,,,,,,,,,,,,,,,,4,9.1,9.7,10.3,10.9,0,0.6000000000000001,0.20000000000000004,0.4,2.2,10,match,36.05,328,350,371,393,0,9,9,9,9,0,,,,,3,0,3,0,0,42,42,17,,,,,num_4,0.8693680999999742,num_4,0.4,1.3,0.30000000000000004,0.6,10.81288,21.62576,return,4.241623699999764,,,,,,,13,21,female,left_right_width,2023_Oct_10_1333,exp1,2021.2.3,60.06283774085927,
,,,,,,,,,,,,,,,,4,8.65,9.55,10.45,11.35,0,0.9,0.5,0.4,3.1,10,initial,36.05,312,344,377,409,0,9,9,9,9,0,,,,,3,0,3,0,0,43,43,34,,,,,num_4,0.9960952000001271,num_4,0.1,1.0,0.35,0.6,12.61502,21.62576,return,2.764479100000244,,,,,,,13,21,female,left_right_width,2023_Oct_10_1333,exp1,2021.2.3,60.06283774085927,
,,,,,,,,,,,,,,,,3,8.2,10,11.8,0,0,1.7999999999999998,1.4,0.4,4,10,match,36.05,296,361,425,0,0,9,9,9,0,0,,,,,3,0,3,0,0,44,44,53,,,,,num_4,0.957082100000207,num_4,0.4,0.5,0.5,0.8,18.02146,28.83434,return,2.45384839999997,,,,,,,13,21,female,left_right_width,2023_Oct_10_1333,exp1,2021.2.3,60.06283774085927,
,,,,,,,,,,,,,,,,4,8.65,9.55,10.45,11.35,0,0.9,0.65,0.25,2.95,10,initial,36.05,312,344,377,409,0,9,9,9,9,0,,,,,3,0,3,0,0,45,45,32,,,,,num_4,0.7144638999998278,num_4,0.45,0.6,0.30000000000000004,0.9,10.81288,32.43864,return,5.083206599999812,,,,,,,13,21,female,left_right_width,2023_Oct_10_1333,exp1,2021.2.3,60.06283774085927,
,,,,,,,,,,,,,,,,4,9.25,9.75,10.25,10.75,0,0.5,0.4,0.1,1.6,10,initial,36.05,333,351,370,388,0,9,9,9,9,0,,,,,3,0,3,0,0,46,46,18,,,,,num_5,1.01672839999992,num_5,0.15,1.2,0.09999999999999999,0.85,3.60429,30.63649,return,3.711166300000059,,,,,,,13,21,female,left_right_width,2023_Oct_10_1333,exp1,2021.2.3,60.06283774085927,
,,,,,,,,,,,,,,,,3,8.6,10,11.4,0,0,1.4,1.15,0.25,3.05,10,match,36.05,310,361,411,0,0,9,9,9,0,0,,,,,3,0,3,0,0,47,47,45,,,,,num_3,0.7914184000001114,num_3,0.2,1,0.2,1.1,7.20859,39.64722,return,1.4142761000002793,,,,,,,13,21,female,left_right_width,2023_Oct_10_1333,exp1,2021.2.3,60.06283774085927,
,,,,,,,,,,,,,,,,5,8.65,9.325,10,10.675,11.35,0.6749999999999999,0.575,0.1,2.8,10,match,36.05,312,336,361,385,409,9,9,9,9,9,,,,,3,0,3,0,0,48,48,31,,,,,num_5,2.9026951000000736,num_5,0.4,1.1,0.15000000000000008,1.05,5.40644,37.84507,return,2.5615742999998474,,,,,,,13,21,female,left_right_width,2023_Oct_10_1333,exp1,2021.2.3,60.06283774085927,
,,,,,,,,,,,,,,,,5,9.25,9.625,10,10.375,10.75,0.375,0.275,0.1,1.6,10,match,36.05,333,347,361,374,388,9,9,9,9,9,,,,,3,0,3,0,0,49,49,19,,,,,num_5,1.2033166000001074,num_5,0.15,1.1,0.15,1.1,5.40644,39.64722,return,1.1865134000004218,,,,,,,13,21,female,left_right_width,2023_Oct_10_1333,exp1,2021.2.3,60.06283774085927,
,,,,,,,,,,,,,,,,5,8.2,9.1,10,10.9,11.8,0.9,0.65,0.25,3.85,10,initial,36.05,296,328,361,393,425,9,9,9,9,9,,,,,3,0,3,0,0,50,50,50,,,,,num_5,0.8630937999996604,num_5,0.3,0.6,0.15000000000000002,0.8,5.40644,28.83434,return,3.4180129999999735,,,,,,,13,21,female,left_right_width,2023_Oct_10_1333,exp1,2021.2.3,60.06283774085927,
,,,,,,,,,,,,,,,,5,8.6,9.3,10,10.7,11.4,0.7,0.6,0.1,2.9,10,initial,36.05,310,335,361,386,411,9,9,9,9,9,,,,,3,0,3,0,0,51,51,42,,,,,num_5,1.0527994999997645,num_5,0.35,0.7,0.15000000000000002,0.7,5.40644,25.23005,return,3.391511100000116,,,,,,,13,21,female,left_right_width,2023_Oct_10_1333,exp1,2021.2.3,60.06283774085927,
,,,,,,,,,,,,,,,,3,9.5,10,10.5,0,0,0.5,0.4,0.1,1.1,10,initial,36.05,342,361,379,0,0,9,9,9,0,0,,,,,3,0,3,0,0,52,52,0,,,,,num_3,0.9342283999999381,num_3,0.45,1.1,0.20000000000000007,0.95,7.20859,34.24078,return,2.270924599999944,,,,,,,13,21,female,left_right_width,2023_Oct_10_1333,exp1,2021.2.3,60.06283774085927,
,,,,,,,,,,,,,,,,3,9,10,11,0,0,0.9999999999999999,0.5999999999999999,0.4,2.4,10,match,36.05,324,361,397,0,0,9,9,9,0,0,,,,,3,0,3,0,0,53,53,41,,,,,num_2,1.0614159000001564,num_2,0.25,1.6,0.25,1.6,9.01073,57.66869,return,1.0170956000001752,,,,,,,13,21,female,left_right_width,2023_Oct_10_1333,exp1,2021.2.3,60.06283774085927,
,,,,,,,,,,,,,,,,,,,,,,,,,,,,,,,,,,,,,,,,,,,3,0,3,0,,,,,,,,,,,,,,,,,,,,,,1664.6921409000001,None,1664.6921409000001,None,13,21,female,left_right_width,2023_Oct_10_1333,exp1,2021.2.3,60.06283774085927,
,,,,,,,,,,,,,,,,5,9,9.5,10,10.5,11,0.5,0.4,0.1,2.1,10,initial,36.05,324,342,361,379,397,9,9,9,9,9,,,,,4,0,4,0,0,0,0,36,,,,,num_4,1.6865644000004067,num_4,0.15,1.3,0.15,1.3,5.40644,46.85581,return,1.6339622999998937,,,,,,,13,21,female,left_right_width,2023_Oct_10_1333,exp1,2021.2.3,60.06283774085927,
,,,,,,,,,,,,,,,,4,8.65,9.55,10.45,11.35,0,0.9,0.8,0.1,2.8000000000000003,10,initial,36.05,312,344,377,409,0,9,9,9,9,0,,,,,4,0,4,0,0,1,1,30,,,,,num_4,0.9194166000002042,num_4,0.2,0.5,0.2,0.6,7.20859,21.62576,return,3.2340745999999854,,,,,,,13,21,female,left_right_width,2023_Oct_10_1333,exp1,2021.2.3,60.06283774085927,
,,,,,,,,,,,,,,,,5,9,9.5,10,10.5,11,0.5,0.25,0.25,2.25,10,initial,36.05,324,342,361,379,397,9,9,9,9,9,,,,,4,0,4,0,0,2,2,38,,,,,num_4,1.0247699999999895,num_4,0.45,0.7,0.10000000000000007,0.8,3.60429,28.83434,return,4.7245051999998395,,,,,,,13,21,female,left_right_width,2023_Oct_10_1333,exp1,2021.2.3,60.06283774085927,
,,,,,,,,,,,,,,,,4,9.425,9.808333333333334,10.191666666666666,10.575,0,0.3833333333333333,0.1333333333333333,0.25,1.4,10,match,36.05,340,354,367,381,0,9,9,9,9,0,,,,,4,0,4,0,0,3,3,5,,,,,num_4,0.8984405999999581,num_4,0.1,1.2,0.25,0.6,9.01073,21.62576,return,2.4786302999996224,,,,,,,13,21,female,left_right_width,2023_Oct_10_1333,exp1,2021.2.3,60.06283774085927,
,,,,,,,,,,,,,,,,5,8.2,9.1,10,10.9,11.8,0.9,0.8,0.1,3.7,10,initial,36.05,296,328,361,393,425,9,9,9,9,9,,,,,4,0,4,0,0,4,4,48,,,,,num_5,0.8009355000003779,num_5,0.3,0.8,0.2,0.85,7.20859,30.63649,return,3.119284500000049,,,,,,,13,21,female,left_right_width,2023_Oct_10_1333,exp1,2021.2.3,60.06283774085927,
,,,,,,,,,,,,,,,,4,8.65,9.55,10.45,11.35,0,0.9,0.65,0.25,2.95,10,initial,36.05,312,344,377,409,0,9,9,9,9,0,,,,,4,0,4,0,0,5,5,32,,,,,num_3,0.8961387999997896,num_3,0.4,1,0.20000000000000007,1.15,7.20859,41.44937,return,2.8603963000000476,,,,,,,13,21,female,left_right_width,2023_Oct_10_1333,exp1,2021.2.3,60.06283774085927,
,,,,,,,,,,,,,,,,3,9.1,10,10.9,0,0,0.9,0.5,0.4,2.2,10,initial,36.05,328,361,393,0,0,9,9,9,0,0,,,,,4,0,4,0,0,6,6,16,,,,,num_3,0.8214021000003413,num_3,0.25,1.1,0.35,1.15,12.61502,41.44937,return,1.5221596000001227,,,,,,,13,21,female,left_right_width,2023_Oct_10_1333,exp1,2021.2.3,60.06283774085927,
,,,,,,,,,,,,,,,,5,9.25,9.625,10,10.375,10.75,0.375,0.275,0.1,1.6,10,match,36.05,333,347,361,374,388,9,9,9,9,9,,,,,4,0,4,0,0,7,7,19,,,,,num_5,0.8149310000003425,num_5,0.1,1.2,0.05,0.55,1.80215,19.82361,return,4.670001500000126,,,,,,,13,21,female,left_right_width,2023_Oct_10_1333,exp1,2021.2.3,60.06283774085927,
,,,,,,,,,,,,,,,,4,8.95,9.65,10.35,11.05,0,0.7,0.29999999999999993,0.4,2.5,10,initial,36.05,323,348,373,398,0,9,9,9,9,0,,,,,4,0,4,0,0,8,8,28,,,,,num_5,0.9373411000001397,num_5,0.1,0.9,0.25,0.65,9.01073,23.4279,return,3.5222803000001477,,,,,,,13,21,female,left_right_width,2023_Oct_10_1333,exp1,2021.2.3,60.06283774085927,
,,,,,,,,,,,,,,,,3,9.5,10,10.5,0,0,0.5,0.09999999999999998,0.4,1.4000000000000001,10,initial,36.05,342,361,379,0,0,9,9,9,0,0,,,,,4,0,4,0,0,9,9,4,,,,,num_3,0.9200556000000688,num_3,0.35,1,0.35,0.55,12.61502,19.82361,return,4.0820268000002216,,,,,,,13,21,female,left_right_width,2023_Oct_10_1333,exp1,2021.2.3,60.06283774085927,
,,,,,,,,,,,,,,,,4,9.3,9.766666666666667,10.233333333333333,10.7,0,0.4666666666666667,0.3666666666666667,0.1,1.5,10,match,36.05,335,352,369,386,0,9,9,9,9,0,,,,,4,0,4,0,0,10,10,7,,,,,num_4,0.8976078999999118,num_4,0.15,1.2,0.2,0.6,7.20859,21.62576,return,4.266106099999888,,,,,,,13,21,female,left_right_width,2023_Oct_10_1333,exp1,2021.2.3,60.06283774085927,
,,,,,,,,,,,,,,,,5,8.6,9.3,10,10.7,11.4,0.7,0.44999999999999996,0.25,3.05,10,initial,36.05,310,335,361,386,411,9,9,9,9,9,,,,,4,0,4,0,0,11,11,44,,,,,num_5,0.8747183000000405,num_5,0.2,0.6,0.2,0.7,7.20859,25.23005,return,2.8384439000001294,,,,,,,13,21,female,left_right_width,2023_Oct_10_1333,exp1,2021.2.3,60.06283774085927,
,,,,,,,,,,,,,,,,4,8.65,9.55,10.45,11.35,0,0.9,0.5,0.4,3.1,10,initial,36.05,312,344,377,409,0,9,9,9,9,0,,,,,4,0,4,0,0,12,12,34,,,,,num_5,0.8331840000000739,num_5,0.25,1.2,0.35,0.8,12.61502,28.83434,return,2.813291399999798,,,,,,,13,21,female,left_right_width,2023_Oct_10_1333,exp1,2021.2.3,60.06283774085927,
,,,,,,,,,,,,,,,,3,8.525,10,11.475,0,0,1.475,1.225,0.25,3.2,10,match,36.05,307,361,414,0,0,9,9,9,0,0,,,,,4,0,4,0,0,13,13,47,,,,,num_3,0.8053949000000102,num_3,0.25,0.6,0.3,1.05,10.81288,37.84507,return,2.59679449999976,,,,,,,13,21,female,left_right_width,2023_Oct_10_1333,exp1,2021.2.3,60.06283774085927,
,,,,,,,,,,,,,,,,3,8.2,10,11.8,0,0,1.8,1.55,0.25,3.85,10,match,36.05,296,361,425,0,0,9,9,9,0,0,,,,,4,0,4,0,0,14,14,51,,,,,num_3,0.7648395999999593,num_3,0.25,0.3,0.25,1.85,9.01073,66.67942,return,10.622242899999947,,,,,,,13,21,female,left_right_width,2023_Oct_10_1333,exp1,2021.2.3,60.06283774085927,
,,,,,,,,,,,,,,,,3,8.6,10,11.4,0,0,1.4,1.15,0.25,3.05,10,match,36.05,310,361,411,0,0,9,9,9,0,0,,,,,4,0,4,0,0,15,15,45,,,,,num_3,1.0477190999999948,num_3,0.1,1.2,0.25,1.25,9.01073,45.05366,return,2.9092525000000933,,,,,,,13,21,female,left_right_width,2023_Oct_10_1333,exp1,2021.2.3,60.06283774085927,
,,,,,,,,,,,,,,,,4,9.3,9.766666666666667,10.233333333333333,10.7,0,0.4666666666666667,0.21666666666666665,0.25,1.65,10,match,36.05,335,352,369,386,0,9,9,9,9,0,,,,,4,0,4,0,0,16,16,9,,,,,num_4,0.8649507000000085,num_4,0.1,1.3,0.25,1.5,9.01073,54.06439,return,3.934138300000086,,,,,,,13,21,female,left_right_width,2023_Oct_10_1333,exp1,2021.2.3,60.06283774085927,
,,,,,,,,,,,,,,,,4,9.1,9.7,10.3,10.9,0,0.6,0.5,0.1,1.9,10,match,36.05,328,350,371,393,0,9,9,9,9,0,,,,,4,0,4,0,0,17,17,13,,,,,num_4,0.9351915000002009,num_4,0.25,0.3,0.10000000000000002,0.8,3.60429,28.83434,return,3.1674707999995917,,,,,,,13,21,female,left_right_width,2023_Oct_10_1333,exp1,2021.2.3,60.06283774085927,
,,,,,,,,,,,,,,,,5,8.2,9.1,10,10.9,11.8,0.9,0.65,0.25,3.85,10,initial,36.05,296,328,361,393,425,9,9,9,9,9,,,,,4,0,4,0,0,18,18,50,,,,,num_5,1.0801894999999604,num_5,0.15,0.6,0.25,0.8,9.01073,28.83434,return,1.9656386999999995,,,,,,,13,21,female,left_right_width,2023_Oct_10_1333,exp1,2021.2.3,60.06283774085927,
,,,,,,,,,,,,,,,,4,9.5,9.833333333333334,10.166666666666666,10.5,0,0.3333333333333333,0.08333333333333333,0.25,1.25,10,match,36.05,342,354,367,379,0,9,9,9,9,0,,,,,4,0,4,0,0,19,19,3,,,,,num_4,0.9023055000002387,num_4,0.45,0.9,0.35000000000000003,0.5,12.61502,18.02146,return,2.7669495000000097,,,,,,,13,21,female,left_right_width,2023_Oct_10_1333,exp1,2021.2.3,60.06283774085927,
,,,,,,,,,,,,,,,,4,9.25,9.75,10.25,10.75,0,0.5,0.25,0.25,1.75,10,initial,36.05,333,351,370,388,0,9,9,9,9,0,,,,,4,0,4,0,0,20,20,20,,,,,num_4,0.7534169999998994,num_4,0.45,0.8,0.30000000000000004,0.7,10.81288,25.23005,return,2.4874045999999908,,,,,,,13,21,female,left_right_width,2023_Oct_10_1333,exp1,2021.2.3,60.06283774085927,
,,,,,,,,,,,,,,,,3,8.2,10,11.8,0,0,1.8000000000000003,1.7000000000000002,0.1,3.7,10,match,36.05,296,361,425,0,0,9,9,9,0,0,,,,,4,0,4,0,0,21,21,49,,,,,num_3,0.9239552999997613,num_3,0.45,0.7,0.05000000000000007,1.7,1.80215,61.27298,return,5.926177499999994,,,,,,,13,21,female,left_right_width,2023_Oct_10_1333,exp1,2021.2.3,60.06283774085927,
,,,,,,,,,,,,,,,,4,9.25,9.75,10.25,10.75,0,0.5,0.4,0.1,1.6,10,initial,36.05,333,351,370,388,0,9,9,9,9,0,,,,,4,0,4,0,0,22,22,18,,,,,num_4,1.4573200999998335,num_4,0.3,0.6,0.10000000000000002,1.2,3.60429,43.25151,return,2.4322597000000314,,,,,,,13,21,female,left_right_width,2023_Oct_10_1333,exp1,2021.2.3,60.06283774085927,
,,,,,,,,,,,,,,,,5,8.65,9.325,10,10.675,11.35,0.675,0.42500000000000004,0.25,2.95,10,match,36.05,312,336,361,385,409,9,9,9,9,9,,,,,4,0,4,0,0,23,23,33,,,,,num_5,0.7794844999998531,num_5,0.15,0.5,0.15,0.8,5.40644,28.83434,return,1.9467282000000523,,,,,,,13,21,female,left_right_width,2023_Oct_10_1333,exp1,2021.2.3,60.06283774085927,
,,,,,,,,,,,,,,,,3,9.3,10,10.7,0,0,0.7,0.29999999999999993,0.4,1.8,10,initial,36.05,335,361,386,0,0,9,9,9,0,0,,,,,4,0,4,0,0,24,24,10,,,,,num_3,0.7818766999998843,num_3,0.35,1.3,0.25,1.0,9.01073,36.04293,return,4.157633799999985,,,,,,,13,21,female,left_right_width,2023_Oct_10_1333,exp1,2021.2.3,60.06283774085927,
,,,,,,,,,,,,,,,,3,8.6,10,11.4,0,0,1.4,1.2999999999999998,0.1,2.9,10,match,36.05,310,361,411,0,0,9,9,9,0,0,,,,,4,0,4,0,0,25,25,43,,,,,num_3,0.8580609999999069,num_3,0.2,1,0.05000000000000002,1.15,1.80215,41.44937,return,1.6546719000002668,,,,,,,13,21,female,left_right_width,2023_Oct_10_1333,exp1,2021.2.3,60.06283774085927,
,,,,,,,,,,,,,,,,5,8.65,9.325,10,10.675,11.35,0.6749999999999999,0.575,0.1,2.8,10,match,36.05,312,336,361,385,409,9,9,9,9,9,,,,,4,0,4,0,0,26,26,31,,,,,num_5,0.8814942000003612,num_5,0.4,0.6,0.15000000000000008,0.7,5.40644,25.23005,return,2.7337930000003325,,,,,,,13,21,female,left_right_width,2023_Oct_10_1333,exp1,2021.2.3,60.06283774085927,
,,,,,,,,,,,,,,,,5,8.2,9.1,10,10.9,11.8,0.9,0.5,0.4,4,10,initial,36.05,296,328,361,393,425,9,9,9,9,9,,,,,4,0,4,0,0,27,27,52,,,,,num_5,0.8727488999998059,num_5,0.15,1.1,0.39999999999999997,0.95,14.41717,34.24078,return,2.018998399999873,,,,,,,13,21,female,left_right_width,2023_Oct_10_1333,exp1,2021.2.3,60.06283774085927,
,,,,,,,,,,,,,,,,3,9.1,10,10.9,0,0,0.9,0.8,0.1,1.9000000000000001,10,initial,36.05,328,361,393,0,0,9,9,9,0,0,,,,,4,0,4,0,0,28,28,12,,,,,num_3,0.769091600000138,num_3,0.15,0.3,0.10000000000000002,0.9,3.60429,32.43864,return,3.441840400000274,,,,,,,13,21,female,left_right_width,2023_Oct_10_1333,exp1,2021.2.3,60.06283774085927,
,,,,,,,,,,,,,,,,5,8.6,9.3,10,10.7,11.4,0.7,0.29999999999999993,0.4,3.1999999999999997,10,initial,36.05,310,335,361,386,411,9,9,9,9,9,,,,,4,0,4,0,0,29,29,46,,,,,num_5,0.7653733000001921,num_5,0.4,0.9,0.30000000000000004,0.8,10.81288,28.83434,return,2.318576199999825,,,,,,,13,21,female,left_right_width,2023_Oct_10_1333,exp1,2021.2.3,60.06283774085927,
,,,,,,,,,,,,,,,,3,9,10,11,0,0,1,0.75,0.25,2.25,10,match,36.05,324,361,397,0,0,9,9,9,0,0,,,,,4,0,4,0,0,30,30,39,,,,,num_3,0.9220336999997016,num_3,0.25,0.8,0.25,0.85,9.01073,30.63649,return,1.4778384999999616,,,,,,,13,21,female,left_right_width,2023_Oct_10_1333,exp1,2021.2.3,60.06283774085927,
,,,,,,,,,,,,,,,,3,9.5,10,10.5,0,0,0.5,0.4,0.1,1.1,10,initial,36.05,342,361,379,0,0,9,9,9,0,0,,,,,4,0,4,0,0,31,31,0,,,,,num_3,1.0253684999997859,num_3,0.1,0.8,0.1,0.8,3.60429,28.83434,return,1.1114763000000494,,,,,,,13,21,female,left_right_width,2023_Oct_10_1333,exp1,2021.2.3,60.06283774085927,
,,,,,,,,,,,,,,,,5,8.65,9.325,10,10.675,11.35,0.675,0.275,0.4,3.1,10,match,36.05,312,336,361,385,409,9,9,9,9,9,,,,,4,0,4,0,0,32,32,35,,,,,num_4,1.005234499999915,num_4,0.3,0.6,0.3,0.8,10.81288,28.83434,return,1.3660039999999753,,,,,,,13,21,female,left_right_width,2023_Oct_10_1333,exp1,2021.2.3,60.06283774085927,
,,,,,,,,,,,,,,,,3,9.1,10,10.9,0,0,0.9,0.65,0.25,2.05,10,initial,36.05,328,361,393,0,0,9,9,9,0,0,,,,,4,0,4,0,0,33,33,14,,,,,num_3,0.8382870999998886,num_3,0.45,1.1,0.30000000000000004,1.15,10.81288,41.44937,return,1.6979513000001134,,,,,,,13,21,female,left_right_width,2023_Oct_10_1333,exp1,2021.2.3,60.06283774085927,
,,,,,,,,,,,,,,,,3,9.5,10,10.5,0,0,0.5,0.25,0.25,1.25,10,initial,36.05,342,361,379,0,0,9,9,9,0,0,,,,,4,0,4,0,0,34,34,2,,,,,num_3,0.8642479999998613,num_3,0.2,0.3,0.2,0.5,7.20859,18.02146,return,1.4204128999999739,,,,,,,13,21,female,left_right_width,2023_Oct_10_1333,exp1,2021.2.3,60.06283774085927,
,,,,,,,,,,,,,,,,5,8.95,9.475,10,10.525,11.05,0.525,0.125,0.4,2.5,10,match,36.05,323,342,361,379,398,9,9,9,9,9,,,,,4,0,4,0,0,35,35,29,,,,,num_5,0.9609074999998484,num_5,0.2,1.0,0.35,0.65,12.61502,23.4279,return,2.61631750000015,,,,,,,13,21,female,left_right_width,2023_Oct_10_1333,exp1,2021.2.3,60.06283774085927,
,,,,,,,,,,,,,,,,5,8.95,9.475,10,10.525,11.05,0.525,0.275,0.25,2.35,10,match,36.05,323,342,361,379,398,9,9,9,9,9,,,,,4,0,4,0,0,36,36,27,,,,,num_5,0.9056433000000652,num_5,0.4,1.2,0.4,0.9,14.41717,32.43864,return,3.2858666000001904,,,,,,,13,21,female,left_right_width,2023_Oct_10_1333,exp1,2021.2.3,60.06283774085927,
,,,,,,,,,,,,,,,,4,9.3,9.766666666666667,10.233333333333333,10.7,0,0.4666666666666667,0.06666666666666665,0.4,1.8,10,match,36.05,335,352,369,386,0,9,9,9,9,0,,,,,4,0,4,0,0,37,37,11,,,,,num_4,0.9353518000002623,num_4,0.15,1.3,0.35,0.8,12.61502,28.83434,return,2.4653466999998273,,,,,,,13,21,female,left_right_width,2023_Oct_10_1333,exp1,2021.2.3,60.06283774085927,
,,,,,,,,,,,,,,,,4,9.25,9.75,10.25,10.75,0,0.5,0.09999999999999998,0.4,1.9,10,initial,36.05,333,351,370,388,0,9,9,9,9,0,,,,,4,0,4,0,0,38,38,22,,,,,num_4,0.8635879000003115,num_4,0.1,1.0,0.39999999999999997,0.5,14.41717,18.02146,return,3.1489160000000993,,,,,,,13,21,female,left_right_width,2023_Oct_10_1333,exp1,2021.2.3,60.06283774085927,
,,,,,,,,,,,,,,,,3,9.3,10,10.7,0,0,0.7,0.44999999999999996,0.25,1.65,10,initial,36.05,335,361,386,0,0,9,9,9,0,0,,,,,4,0,4,0,0,39,39,8,,,,,num_3,0.8793713000000025,num_3,0.25,0.4,0.35,0.6,12.61502,21.62576,return,1.6915905999999268,,,,,,,13,21,female,left_right_width,2023_Oct_10_1333,exp1,2021.2.3,60.06283774085927,
,,,,,,,,,,,,,,,,5,9.25,9.625,10,10.375,10.75,0.375,0.125,0.25,1.75,10,match,36.05,333,347,361,374,388,9,9,9,9,9,,,,,4,0,4,0,0,40,40,21,,,,,num_5,0.8512206999998853,num_5,0.35,0.8,0.35,0.5,12.61502,18.02146,return,4.352125799999612,,,,,,,13,21,female,left_right_width,2023_Oct_10_1333,exp1,2021.2.3,60.06283774085927,
,,,,,,,,,,,,,,,,3,9.3,10,10.7,0,0,0.7,0.6,0.1,1.5,10,initial,36.05,335,361,386,0,0,9,9,9,0,0,,,,,4,0,4,0,0,41,41,6,,,,,num_3,0.917678799999976,num_3,0.1,0.7,0.1,0.7,3.60429,25.23005,return,1.1202006999997138,,,,,,,13,21,female,left_right_width,2023_Oct_10_1333,exp1,2021.2.3,60.06283774085927,
,,,,,,,,,,,,,,,,5,9,9.5,10,10.5,11,0.5,0.09999999999999998,0.4,2.4,10,initial,36.05,324,342,361,379,397,9,9,9,9,9,,,,,4,0,4,0,0,42,42,40,,,,,num_4,0.768508600000132,num_4,0.4,0.9,0.45,0.6,16.21932,21.62576,return,3.6310403000002225,,,,,,,13,21,female,left_right_width,2023_Oct_10_1333,exp1,2021.2.3,60.06283774085927,
,,,,,,,,,,,,,,,,4,8.95,9.65,10.35,11.05,0,0.7,0.44999999999999996,0.25,2.3499999999999996,10,initial,36.05,323,348,373,398,0,9,9,9,9,0,,,,,4,0,4,0,0,43,43,26,,,,,num_3,0.981670899999699,num_3,0.1,0.8,0.35,0.8,12.61502,28.83434,return,1.3249664999998458,,,,,,,13,21,female,left_right_width,2023_Oct_10_1333,exp1,2021.2.3,60.06283774085927,
,,,,,,,,,,,,,,,,5,8.95,9.475,10,10.525,11.05,0.525,0.42500000000000004,0.1,2.2,10,match,36.05,323,342,361,379,398,9,9,9,9,9,,,,,4,0,4,0,0,44,44,25,,,,,num_4,0.842955499999789,num_4,0.3,1.2,0.10000000000000002,0.8,3.60429,28.83434,return,2.26244749999978,,,,,,,13,21,female,left_right_width,2023_Oct_10_1333,exp1,2021.2.3,60.06283774085927,
,,,,,,,,,,,,,,,,4,9.1,9.7,10.3,10.9,0,0.6000000000000001,0.20000000000000004,0.4,2.2,10,match,36.05,328,350,371,393,0,9,9,9,9,0,,,,,4,0,4,0,0,45,45,17,,,,,num_4,0.8382148999999117,num_4,0.4,0.8,0.4,0.8,14.41717,28.83434,return,1.2349115000001802,,,,,,,13,21,female,left_right_width,2023_Oct_10_1333,exp1,2021.2.3,60.06283774085927,
,,,,,,,,,,,,,,,,3,9,10,11,0,0,1,0.9,0.1,2.1,10,match,36.05,324,361,397,0,0,9,9,9,0,0,,,,,4,0,4,0,0,46,46,37,,,,,num_3,0.8998160999999527,num_3,0.25,0.7,0.10000000000000002,0.8,3.60429,28.83434,return,1.7589852000000974,,,,,,,13,21,female,left_right_width,2023_Oct_10_1333,exp1,2021.2.3,60.06283774085927,
,,,,,,,,,,,,,,,,4,8.95,9.65,10.35,11.05,0,0.7,0.6,0.1,2.1999999999999997,10,initial,36.05,323,348,373,398,0,9,9,9,9,0,,,,,4,0,4,0,0,47,47,24,,,,,num_3,0.8955602000000908,num_3,0.15,1,0.15,1.25,5.40644,45.05366,return,1.9480011999999078,,,,,,,13,21,female,left_right_width,2023_Oct_10_1333,exp1,2021.2.3,60.06283774085927,
,,,,,,,,,,,,,,,,5,8.6,9.3,10,10.7,11.4,0.7,0.6,0.1,2.9,10,initial,36.05,310,335,361,386,411,9,9,9,9,9,,,,,4,0,4,0,0,48,48,42,,,,,num_5,1.0237097999997786,num_5,0.3,0.7,0.05000000000000002,0.95,1.80215,34.24078,return,2.0242259999999987,,,,,,,13,21,female,left_right_width,2023_Oct_10_1333,exp1,2021.2.3,60.06283774085927,
,,,,,,,,,,,,,,,,4,9.5,9.833333333333334,10.166666666666666,10.5,0,0.33333333333333337,0.23333333333333336,0.1,1.1,10,match,36.05,342,354,367,379,0,9,9,9,9,0,,,,,4,0,4,0,0,49,49,1,,,,,num_4,0.9895719999999528,num_4,0.45,1.0,0.05000000000000007,0.5,1.80215,18.02146,return,3.9708808999998837,,,,,,,13,21,female,left_right_width,2023_Oct_10_1333,exp1,2021.2.3,60.06283774085927,
,,,,,,,,,,,,,,,,5,9.175,9.5875,10,10.4125,10.825,0.4125,0.16249999999999998,0.25,1.9,10,match,36.05,331,346,361,375,390,9,9,9,9,9,,,,,4,0,4,0,0,50,50,23,,,,,num_5,0.8301621999999043,num_5,0.45,0.7,0.30000000000000004,0.5,10.81288,18.02146,return,2.9419270999997025,,,,,,,13,21,female,left_right_width,2023_Oct_10_1333,exp1,2021.2.3,60.06283774085927,
,,,,,,,,,,,,,,,,3,8.2,10,11.8,0,0,1.7999999999999998,1.4,0.4,4,10,match,36.05,296,361,425,0,0,9,9,9,0,0,,,,,4,0,4,0,0,51,51,53,,,,,num_3,0.9207172000001265,num_3,0.45,1,0.4,1.7,14.41717,61.27298,return,3.535108599999603,,,,,,,13,21,female,left_right_width,2023_Oct_10_1333,exp1,2021.2.3,60.06283774085927,
,,,,,,,,,,,,,,,,3,9,10,11,0,0,0.9999999999999999,0.5999999999999999,0.4,2.4,10,match,36.05,324,361,397,0,0,9,9,9,0,0,,,,,4,0,4,0,0,52,52,41,,,,,num_3,0.9448551000000407,num_3,0.2,0.5,0.25,1.1,9.01073,39.64722,return,3.414808399999856,,,,,,,13,21,female,left_right_width,2023_Oct_10_1333,exp1,2021.2.3,60.06283774085927,
,,,,,,,,,,,,,,,,4,9.1,9.7,10.3,10.9,0,0.5999999999999999,0.3499999999999999,0.25,2.05,10,match,36.05,328,350,371,393,0,9,9,9,9,0,,,,,4,0,4,0,0,53,53,15,,,,,num_4,1.0196255000000747,num_4,0.15,0.6,0.2,1.1,7.20859,39.64722,return,2.09436100000039,,,,,,,13,21,female,left_right_width,2023_Oct_10_1333,exp1,2021.2.3,60.06283774085927,
,,,,,,,,,,,,,,,,,,,,,,,,,,,,,,,,,,,,,,,,,,,4,0,4,0,,,,,,,,,,,,,,,,,,,,,,1967.1876746000003,None,1967.1876746000003,None,13,21,female,left_right_width,2023_Oct_10_1333,exp1,2021.2.3,60.06283774085927,
,,,,,,,,,,,,,,,,5,9,9.5,10,10.5,11,0.5,0.25,0.25,2.25,10,initial,36.05,324,342,361,379,397,9,9,9,9,9,,,,,5,0,5,0,0,0,0,38,,,,,num_3,16.92886640000006,num_3,0.4,1,0.25000000000000006,1.1,9.01073,39.64722,return,2.763310199999978,,,,,,,13,21,female,left_right_width,2023_Oct_10_1333,exp1,2021.2.3,60.06283774085927,
,,,,,,,,,,,,,,,,4,9.3,9.766666666666667,10.233333333333333,10.7,0,0.4666666666666667,0.21666666666666665,0.25,1.65,10,match,36.05,335,352,369,386,0,9,9,9,9,0,,,,,5,0,5,0,0,1,1,9,,,,,num_4,0.8407946000002084,num_4,0.2,0.8,0.3,0.7,10.81288,25.23005,return,2.037658499999907,,,,,,,13,21,female,left_right_width,2023_Oct_10_1333,exp1,2021.2.3,60.06283774085927,
,,,,,,,,,,,,,,,,3,9,10,11,0,0,1,0.9,0.1,2.1,10,match,36.05,324,361,397,0,0,9,9,9,0,0,,,,,5,0,5,0,0,2,2,37,,,,,num_2,1.205645000000004,num_2,0.4,1.6,0.10000000000000007,1.6,3.60429,57.66869,return,1.332901100000072,,,,,,,13,21,female,left_right_width,2023_Oct_10_1333,exp1,2021.2.3,60.06283774085927,
,,,,,,,,,,,,,,,,3,8.2,10,11.8,0,0,1.7999999999999998,1.4,0.4,4,10,match,36.05,296,361,425,0,0,9,9,9,0,0,,,,,5,0,5,0,0,3,3,53,,,,,num_2,0.847610799999984,num_2,0.35,1.6,0.39999999999999997,2.0,14.41717,72.08586,return,1.4048235000000204,,,,,,,13,21,female,left_right_width,2023_Oct_10_1333,exp1,2021.2.3,60.06283774085927,
,,,,,,,,,,,,,,,,3,8.2,10,11.8,0,0,1.8000000000000003,1.7000000000000002,0.1,3.7,10,match,36.05,296,361,425,0,0,9,9,9,0,0,,,,,5,0,5,0,0,4,4,49,,,,,num_3,0.8394766999999774,num_3,0.1,1.3,0.15000000000000002,1.4,5.40644,50.4601,return,2.4209882000000107,,,,,,,13,21,female,left_right_width,2023_Oct_10_1333,exp1,2021.2.3,60.06283774085927,
,,,,,,,,,,,,,,,,3,9.3,10,10.7,0,0,0.7,0.44999999999999996,0.25,1.65,10,initial,36.05,335,361,386,0,0,9,9,9,0,0,,,,,5,0,5,0,0,5,5,8,,,,,num_3,0.8845730000002732,num_3,0.3,0.8,0.3,1.0,10.81288,36.04293,return,1.6973386000004211,,,,,,,13,21,female,left_right_width,2023_Oct_10_1333,exp1,2021.2.3,60.06283774085927,
,,,,,,,,,,,,,,,,5,9,9.5,10,10.5,11,0.5,0.09999999999999998,0.4,2.4,10,initial,36.05,324,342,361,379,397,9,9,9,9,9,,,,,5,0,5,0,0,6,6,40,,,,,num_5,0.8935145000000375,num_5,0.35,0.5,0.35,0.5,12.61502,18.02146,return,1.1768769000000248,,,,,,,13,21,female,left_right_width,2023_Oct_10_1333,exp1,2021.2.3,60.06283774085927,
,,,,,,,,,,,,,,,,3,9.1,10,10.9,0,0,0.9,0.5,0.4,2.2,10,initial,36.05,328,361,393,0,0,9,9,9,0,0,,,,,5,0,5,0,0,7,7,16,,,,,num_3,0.7683455999999751,num_3,0.4,1.3,0.4,1.3,14.41717,46.85581,return,1.5520024000002195,,,,,,,13,21,female,left_right_width,2023_Oct_10_1333,exp1,2021.2.3,60.06283774085927,
,,,,,,,,,,,,,,,,3,9,10,11,0,0,0.9999999999999999,0.5999999999999999,0.4,2.4,10,match,36.05,324,361,397,0,0,9,9,9,0,0,,,,,5,0,5,0,0,8,8,41,,,,,num_3,0.7894894999999451,num_3,0.45,0.5,0.30000000000000004,0.95,10.81288,34.24078,return,2.9789557000003697,,,,,,,13,21,female,left_right_width,2023_Oct_10_1333,exp1,2021.2.3,60.06283774085927,
,,,,,,,,,,,,,,,,5,8.65,9.325,10,10.675,11.35,0.675,0.275,0.4,3.1,10,match,36.05,312,336,361,385,409,9,9,9,9,9,,,,,5,0,5,0,0,9,9,35,,,,,num_5,0.9481181000001015,num_5,0.2,0.6,0.39999999999999997,0.75,14.41717,27.0322,return,1.8519251000002441,,,,,,,13,21,female,left_right_width,2023_Oct_10_1333,exp1,2021.2.3,60.06283774085927,
,,,,,,,,,,,,,,,,4,9.3,9.766666666666667,10.233333333333333,10.7,0,0.4666666666666667,0.3666666666666667,0.1,1.5,10,match,36.05,335,352,369,386,0,9,9,9,9,0,,,,,5,0,5,0,0,10,10,7,,,,,num_3,0.8100997000001371,num_3,0.2,0.6,0.15000000000000002,0.8,5.40644,28.83434,return,1.224951400000009,,,,,,,13,21,female,left_right_width,2023_Oct_10_1333,exp1,2021.2.3,60.06283774085927,
,,,,,,,,,,,,,,,,3,9.1,10,10.9,0,0,0.9,0.8,0.1,1.9000000000000001,10,initial,36.05,328,361,393,0,0,9,9,9,0,0,,,,,5,0,5,0,0,11,11,12,,,,,num_3,0.6499450000001161,num_3,0.45,1,0.15000000000000008,1.05,5.40644,37.84507,return,1.7263996000001498,,,,,,,13,21,female,left_right_width,2023_Oct_10_1333,exp1,2021.2.3,60.06283774085927,
,,,,,,,,,,,,,,,,5,8.2,9.1,10,10.9,11.8,0.9,0.65,0.25,3.85,10,initial,36.05,296,328,361,393,425,9,9,9,9,9,,,,,5,0,5,0,0,12,12,50,,,,,num_5,1.2108985999998367,num_5,0.2,1.0,0.2,1.0,7.20859,36.04293,return,0.9054705999997168,,,,,,,13,21,female,left_right_width,2023_Oct_10_1333,exp1,2021.2.3,60.06283774085927,
,,,,,,,,,,,,,,,,5,9,9.5,10,10.5,11,0.5,0.4,0.1,2.1,10,initial,36.05,324,342,361,379,397,9,9,9,9,9,,,,,5,0,5,0,0,13,13,36,,,,,num_5,0.7695638999998664,num_5,0.1,1.2,-0.05,0.65,-1.80215,23.4279,return,2.641545099999803,,,,,,,13,21,female,left_right_width,2023_Oct_10_1333,exp1,2021.2.3,60.06283774085927,
,,,,,,,,,,,,,,,,5,8.95,9.475,10,10.525,11.05,0.525,0.125,0.4,2.5,10,match,36.05,323,342,361,379,398,9,9,9,9,9,,,,,5,0,5,0,0,14,14,29,,,,,num_5,0.7461413999999422,num_5,0.35,1.0,0.3,0.65,10.81288,23.4279,return,4.073872899999969,,,,,,,13,21,female,left_right_width,2023_Oct_10_1333,exp1,2021.2.3,60.06283774085927,
,,,,,,,,,,,,,,,,3,8.525,10,11.475,0,0,1.475,1.225,0.25,3.2,10,match,36.05,307,361,414,0,0,9,9,9,0,0,,,,,5,0,5,0,0,15,15,47,,,,,num_3,0.7771797000000333,num_3,0.1,1.3,0.3,1.4,10.81288,50.4601,return,1.70575080000026,,,,,,,13,21,female,left_right_width,2023_Oct_10_1333,exp1,2021.2.3,60.06283774085927,
,,,,,,,,,,,,,,,,4,9.5,9.833333333333334,10.166666666666666,10.5,0,0.33333333333333337,0.23333333333333336,0.1,1.1,10,match,36.05,342,354,367,379,0,9,9,9,9,0,,,,,5,0,5,0,0,16,16,1,,,,,num_4,0.9194451999997,num_4,0.1,0.3,0.15000000000000002,0.3,5.40644,10.81288,return,1.1851848000001155,,,,,,,13,21,female,left_right_width,2023_Oct_10_1333,exp1,2021.2.3,60.06283774085927,
,,,,,,,,,,,,,,,,4,8.65,9.55,10.45,11.35,0,0.9,0.8,0.1,2.8000000000000003,10,initial,36.05,312,344,377,409,0,9,9,9,9,0,,,,,5,0,5,0,0,17,17,30,,,,,num_4,0.8156573000001117,num_4,0.15,0.7,0.09999999999999999,0.8,3.60429,28.83434,return,3.3084773999999015,,,,,,,13,21,female,left_right_width,2023_Oct_10_1333,exp1,2021.2.3,60.06283774085927,
,,,,,,,,,,,,,,,,3,8.6,10,11.4,0,0,1.4,1.2999999999999998,0.1,2.9,10,match,36.05,310,361,411,0,0,9,9,9,0,0,,,,,5,0,5,0,0,18,18,43,,,,,num_2,0.9238452999998117,num_2,0.4,1.6,0.10000000000000007,1.5,3.60429,54.06439,return,2.1478680000000168,,,,,,,13,21,female,left_right_width,2023_Oct_10_1333,exp1,2021.2.3,60.06283774085927,
,,,,,,,,,,,,,,,,4,8.95,9.65,10.35,11.05,0,0.7,0.6,0.1,2.1999999999999997,10,initial,36.05,323,348,373,398,0,9,9,9,9,0,,,,,5,0,5,0,0,19,19,24,,,,,num_4,0.8722846000000573,num_4,0.15,0.7,0.09999999999999999,0.8,3.60429,28.83434,return,1.409116499999982,,,,,,,13,21,female,left_right_width,2023_Oct_10_1333,exp1,2021.2.3,60.06283774085927,
,,,,,,,,,,,,,,,,3,9.3,10,10.7,0,0,0.7,0.6,0.1,1.5,10,initial,36.05,335,361,386,0,0,9,9,9,0,0,,,,,5,0,5,0,0,20,20,6,,,,,num_3,1.2880119999999806,num_3,0.1,0.7,0.15000000000000002,0.75,5.40644,27.0322,return,1.7307770000002165,,,,,,,13,21,female,left_right_width,2023_Oct_10_1333,exp1,2021.2.3,60.06283774085927,
,,,,,,,,,,,,,,,,5,8.6,9.3,10,10.7,11.4,0.7,0.44999999999999996,0.25,3.05,10,initial,36.05,310,335,361,386,411,9,9,9,9,9,,,,,5,0,5,0,0,21,21,44,,,,,num_5,0.9067867000003389,num_5,0.1,1.3,0.25,1.05,9.01073,37.84507,return,3.3179573999996137,,,,,,,13,21,female,left_right_width,2023_Oct_10_1333,exp1,2021.2.3,60.06283774085927,
