amount_p,posx1_p,posx2_p,posx3_p,posx4_p,posx5_p,center_to_center_p,edge_to_edge_p,w_p,stim_lengt_p,eccentricity_p,line1_p,line2_p,line3_p,line4_p,line5_p,amount,posx1,posx2,posx3,posx4,posx5,center_to_center,edge_to_edge,w,stim_length,eccentricity,trial_type,deg_to_pix_index,posx1_in_pix,posx2_in_pix,posx3_in_pix,posx4_in_pix,posx5_in_pix,line1,line2,line3,line4,line5,trials.thisRepN,trials.thisTrialN,trials.thisN,trials.thisIndex,blocks.thisRepN,blocks.thisTrialN,blocks.thisN,blocks.thisIndex,loop.thisRepN,loop.thisTrialN,loop.thisN,loop.thisIndex,key_resp_3.keys,key_resp_3.rt,key_resp_3.started,key_resp_3.stopped,key_resp.keys,key_resp.rt,response,starting_width_deg,starting_space_deg,response_width_degree,response_spacing_degree,response_width_pixel,response_spacing_pixel,next_5.keys,next_5.rt,key_resp_4.keys,key_resp_4.rt,text_3.started,text_3.stopped,text_4.started,text_4.stopped,participant,age,gender,resp_group,date,expName,psychopyVersion,frameRate,
,,,,,,,,,,,,,,,,,,,,,,,,,,,,,,,,,,,,,,,,,,,,,,,,,,,c,49.38248840000051,91.96200770000087,None,,,,,,,,,,,,,,,,,,14,21,female,up_down_width,2023_Oct_10_1503,exp1,2021.2.3,60.02984683988535,
3,9,10,11,0,0,1,0.9,0.1,2.1,10,9,9,9,0,0,,,,,,,,,,,,,,,,,,,,,,,,0,0,0,1,,,,,,,,,,,,,num_2,4.931060600000819,num_2,0.1,1.6,0.1,1.3,3.60429,46.85581,return,19.36837359999936,,,,,,,14,21,female,up_down_width,2023_Oct_10_1503,exp1,2021.2.3,60.02984683988535,
3,9.5,10,10.5,0,0,0.5,0.4,0.1,1.1,10,9,9,9,0,0,,,,,,,,,,,,,,,,,,,,,,,,0,1,1,0,,,,,,,,,,,,,num_2,5.954325000000608,num_2,0.15,1.6,0.15000000000000002,1.1,5.40644,39.64722,return,7.506577100000868,,,,,,,14,21,female,up_down_width,2023_Oct_10_1503,exp1,2021.2.3,60.02984683988535,
4,9.5,9.833333333333334,10.166666666666666,10.5,0,0.33333333333333337,0.23333333333333336,0.1,1.1,10,9,9,9,9,0,,,,,,,,,,,,,,,,,,,,,,,,0,2,2,3,,,,,,,,,,,,,num_4,3.151004500000454,num_4,0.3,0.8,0.2,0.8,7.20859,28.83434,return,4.7354906999999,,,,,,,14,21,female,up_down_width,2023_Oct_10_1503,exp1,2021.2.3,60.02984683988535,
4,9.25,9.75,10.25,10.75,0,0.5,0.25,0.25,1.75,10,9,9,9,9,0,,,,,,,,,,,,,,,,,,,,,,,,0,3,3,4,,,,,,,,,,,,,num_4,2.2837179999996806,num_4,0.3,0.6,0.25,0.6,9.01073,21.62576,return,3.343579299999874,,,,,,,14,21,female,up_down_width,2023_Oct_10_1503,exp1,2021.2.3,60.02984683988535,
5,9,9.5,10,10.5,11,0.5,0.09999999999999998,0.4,2.4,10,9,9,9,9,9,,,,,,,,,,,,,,,,,,,,,,,,0,4,4,8,,,,,,,,,,,,,num_4,1.9706278000003294,num_4,0.4,1.1,0.55,0.9,19.82361,32.43864,return,7.409691500000008,,,,,,,14,21,female,up_down_width,2023_Oct_10_1503,exp1,2021.2.3,60.02984683988535,
5,9.25,9.625,10,10.375,10.75,0.375,0.125,0.25,1.75,10,9,9,9,9,9,,,,,,,,,,,,,,,,,,,,,,,,0,5,5,6,,,,,,,,,,,,,num_3,2.3225380000003497,num_3,0.2,0.4,0.3,0.6,10.81288,21.62576,return,19.874606000000313,,,,,,,14,21,female,up_down_width,2023_Oct_10_1503,exp1,2021.2.3,60.02984683988535,
4,8.65,9.55,10.45,11.35,0,0.9,0.5,0.4,3.1,10,9,9,9,9,0,,,,,,,,,,,,,,,,,,,,,,,,0,6,6,5,,,,,,,,,,,,,num_3,1.3918185000002268,num_3,0.35,0.6,0.35,1.45,12.61502,52.26225,return,4.884707700000035,,,,,,,14,21,female,up_down_width,2023_Oct_10_1503,exp1,2021.2.3,60.02984683988535,
3,8.2,10,11.8,0,0,1.7999999999999998,1.4,0.4,4,10,9,9,9,0,0,,,,,,,,,,,,,,,,,,,,,,,,0,7,7,2,,,,,,,,,,,,,num_3,1.3163807000000816,num_3,0.45,1,0.45,1.8,16.21932,64.87727,return,5.471136000000115,,,,,,,14,21,female,up_down_width,2023_Oct_10_1503,exp1,2021.2.3,60.02984683988535,
5,8.6,9.3,10,10.7,11.4,0.7,0.29999999999999993,0.4,3.1999999999999997,10,9,9,9,9,9,,,,,,,,,,,,,,,,,,,,,,,,0,8,8,7,,,,,,,,,,,,,num_4,1.0635435000003781,num_4,0.2,1.0,0.49999999999999994,0.8,18.02146,28.83434,return,5.7085894000001645,,,,,,,14,21,female,up_down_width,2023_Oct_10_1503,exp1,2021.2.3,60.02984683988535,
,,,,,,,,,,,,,,,,,,,,,,,,,,,,,,,,,,,,,,,,,,,,,,,,,,,,,,,,,,,,,,,,,,c,144.3570475000006,,,,,14,21,female,up_down_width,2023_Oct_10_1503,exp1,2021.2.3,60.02984683988535,
,,,,,,,,,,,,,,,,3,9,10,11,0,0,1,0.9,0.1,2.1,10,match,36.05,324,361,397,0,0,9,9,9,0,0,,,,,0,0,0,0,0,0,0,37,,,,,num_2,1.4522181000002092,num_2,0.45,1.6,0.15000000000000008,1.4,5.40644,50.4601,return,5.935364099999788,,,,,,,14,21,female,up_down_width,2023_Oct_10_1503,exp1,2021.2.3,60.02984683988535,
,,,,,,,,,,,,,,,,3,9,10,11,0,0,0.9999999999999999,0.5999999999999999,0.4,2.4,10,match,36.05,324,361,397,0,0,9,9,9,0,0,,,,,0,0,0,0,0,1,1,41,,,,,num_3,1.0885632999998052,num_3,0.3,0.6,0.25,1.15,9.01073,41.44937,return,4.978901599999517,,,,,,,14,21,female,up_down_width,2023_Oct_10_1503,exp1,2021.2.3,60.02984683988535,
,,,,,,,,,,,,,,,,5,8.95,9.475,10,10.525,11.05,0.525,0.125,0.4,2.5,10,match,36.05,323,342,361,379,398,9,9,9,9,9,,,,,0,0,0,0,0,2,2,29,,,,,num_4,1.1736809000003632,num_4,0.2,1.2,0.3,0.6,10.81288,21.62576,return,6.581554200000028,,,,,,,14,21,female,up_down_width,2023_Oct_10_1503,exp1,2021.2.3,60.02984683988535,
,,,,,,,,,,,,,,,,4,9.1,9.7,10.3,10.9,0,0.6000000000000001,0.20000000000000004,0.4,2.2,10,match,36.05,328,350,371,393,0,9,9,9,9,0,,,,,0,0,0,0,0,3,3,17,,,,,num_3,1.0785925000000134,num_3,0.45,0.8,0.35000000000000003,0.8,12.61502,28.83434,return,2.4398959999998624,,,,,,,14,21,female,up_down_width,2023_Oct_10_1503,exp1,2021.2.3,60.02984683988535,
,,,,,,,,,,,,,,,,4,9.5,9.833333333333334,10.166666666666666,10.5,0,0.33333333333333337,0.23333333333333336,0.1,1.1,10,match,36.05,342,354,367,379,0,9,9,9,9,0,,,,,0,0,0,0,0,4,4,1,,,,,num_3,0.986840999999913,num_3,0.2,1.3,0.15000000000000002,0.6,5.40644,21.62576,return,5.598611499999606,,,,,,,14,21,female,up_down_width,2023_Oct_10_1503,exp1,2021.2.3,60.02984683988535,
,,,,,,,,,,,,,,,,5,8.65,9.325,10,10.675,11.35,0.675,0.42500000000000004,0.25,2.95,10,match,36.05,312,336,361,385,409,9,9,9,9,9,,,,,0,0,0,0,0,5,5,33,,,,,num_4,1.0010376999998698,num_4,0.35,0.5,0.2,0.6,7.20859,21.62576,return,7.184943399999611,,,,,,,14,21,female,up_down_width,2023_Oct_10_1503,exp1,2021.2.3,60.02984683988535,
,,,,,,,,,,,,,,,,4,9.25,9.75,10.25,10.75,0,0.5,0.4,0.1,1.6,10,initial,36.05,333,351,370,388,0,9,9,9,9,0,,,,,0,0,0,0,0,6,6,18,,,,,num_3,0.8678110000000743,num_3,0.4,0.8,0.15000000000000008,0.8,5.40644,28.83434,return,2.239915699999983,,,,,,,14,21,female,up_down_width,2023_Oct_10_1503,exp1,2021.2.3,60.02984683988535,
,,,,,,,,,,,,,,,,3,9.5,10,10.5,0,0,0.5,0.25,0.25,1.25,10,initial,36.05,342,361,379,0,0,9,9,9,0,0,,,,,0,0,0,0,0,7,7,2,,,,,num_3,1.0051488999997673,num_3,0.25,0.6,0.2,0.6,7.20859,21.62576,return,4.050192099999549,,,,,,,14,21,female,up_down_width,2023_Oct_10_1503,exp1,2021.2.3,60.02984683988535,
,,,,,,,,,,,,,,,,5,9,9.5,10,10.5,11,0.5,0.4,0.1,2.1,10,initial,36.05,324,342,361,379,397,9,9,9,9,9,,,,,0,0,0,0,0,8,8,36,,,,,num_4,1.0386098999997557,num_4,0.15,0.8,0.09999999999999999,0.5,3.60429,18.02146,return,3.4899308000003657,,,,,,,14,21,female,up_down_width,2023_Oct_10_1503,exp1,2021.2.3,60.02984683988535,
,,,,,,,,,,,,,,,,5,8.2,9.1,10,10.9,11.8,0.9,0.65,0.25,3.85,10,initial,36.05,296,328,361,393,425,9,9,9,9,9,,,,,0,0,0,0,0,9,9,50,,,,,num_4,0.9967266000003292,num_4,0.4,0.5,0.25000000000000006,1.2,9.01073,43.25151,return,5.53299590000006,,,,,,,14,21,female,up_down_width,2023_Oct_10_1503,exp1,2021.2.3,60.02984683988535,
,,,,,,,,,,,,,,,,4,9.5,9.833333333333334,10.166666666666666,10.5,0,0.3333333333333333,0.08333333333333333,0.25,1.25,10,match,36.05,342,354,367,379,0,9,9,9,9,0,,,,,0,0,0,0,0,10,10,3,,,,,num_3,1.2315134000000398,num_3,0.2,0.8,0.2,0.45,7.20859,16.21932,return,3.2935500999992655,,,,,,,14,21,female,up_down_width,2023_Oct_10_1503,exp1,2021.2.3,60.02984683988535,
,,,,,,,,,,,,,,,,3,9,10,11,0,0,1,0.75,0.25,2.25,10,match,36.05,324,361,397,0,0,9,9,9,0,0,,,,,0,0,0,0,0,11,11,39,,,,,num_2,1.215707399999701,num_2,0.15,1.6,0.3,1.4,10.81288,50.4601,return,5.5182543999999325,,,,,,,14,21,female,up_down_width,2023_Oct_10_1503,exp1,2021.2.3,60.02984683988535,
,,,,,,,,,,,,,,,,3,9.3,10,10.7,0,0,0.7,0.6,0.1,1.5,10,initial,36.05,335,361,386,0,0,9,9,9,0,0,,,,,0,0,0,0,0,12,12,6,,,,,num_2,0.8625186999997823,num_2,0.35,1.6,0.15000000000000002,1.3,5.40644,46.85581,return,2.8577519999998913,,,,,,,14,21,female,up_down_width,2023_Oct_10_1503,exp1,2021.2.3,60.02984683988535,
,,,,,,,,,,,,,,,,4,8.95,9.65,10.35,11.05,0,0.7,0.6,0.1,2.1999999999999997,10,initial,36.05,323,348,373,398,0,9,9,9,9,0,,,,,0,0,0,0,0,13,13,24,,,,,num_3,1.2053076000001965,num_3,0.1,0.5,0.25,1.0,9.01073,36.04293,return,4.738390000000436,,,,,,,14,21,female,up_down_width,2023_Oct_10_1503,exp1,2021.2.3,60.02984683988535,
,,,,,,,,,,,,,,,,3,9.1,10,10.9,0,0,0.9,0.5,0.4,2.2,10,initial,36.05,328,361,393,0,0,9,9,9,0,0,,,,,0,0,0,0,0,14,14,16,,,,,num_3,0.8864458000007289,num_3,0.35,0.6,0.35,1.15,12.61502,41.44937,return,9.519293800000014,,,,,,,14,21,female,up_down_width,2023_Oct_10_1503,exp1,2021.2.3,60.02984683988535,
,,,,,,,,,,,,,,,,5,8.95,9.475,10,10.525,11.05,0.525,0.275,0.25,2.35,10,match,36.05,323,342,361,379,398,9,9,9,9,9,,,,,0,0,0,0,0,15,15,27,,,,,num_4,0.9395882999997411,num_4,0.3,1.2,0.3,0.7,10.81288,25.23005,return,4.900947900000574,,,,,,,14,21,female,up_down_width,2023_Oct_10_1503,exp1,2021.2.3,60.02984683988535,
,,,,,,,,,,,,,,,,3,8.2,10,11.8,0,0,1.8000000000000003,1.7000000000000002,0.1,3.7,10,match,36.05,296,361,425,0,0,9,9,9,0,0,,,,,0,0,0,0,0,16,16,49,,,,,num_3,1.2709358000001885,num_3,0.4,0.8,0.15000000000000008,1.55,5.40644,55.86654,return,8.59440480000012,,,,,,,14,21,female,up_down_width,2023_Oct_10_1503,exp1,2021.2.3,60.02984683988535,
,,,,,,,,,,,,,,,,5,9.25,9.625,10,10.375,10.75,0.375,0.275,0.1,1.6,10,match,36.05,333,347,361,374,388,9,9,9,9,9,,,,,0,0,0,0,0,17,17,19,,,,,num_4,0.8681133000000045,num_4,0.35,1.3,0.2,0.9,7.20859,32.43864,return,4.751467000000048,,,,,,,14,21,female,up_down_width,2023_Oct_10_1503,exp1,2021.2.3,60.02984683988535,
,,,,,,,,,,,,,,,,5,9.175,9.5875,10,10.4125,10.825,0.4125,0.16249999999999998,0.25,1.9,10,match,36.05,331,346,361,375,390,9,9,9,9,9,,,,,0,0,0,0,0,18,18,23,,,,,num_4,1.0170953999995618,num_4,0.2,1.1,0.25,0.6,9.01073,21.62576,return,2.400388000000021,,,,,,,14,21,female,up_down_width,2023_Oct_10_1503,exp1,2021.2.3,60.02984683988535,
,,,,,,,,,,,,,,,,4,8.65,9.55,10.45,11.35,0,0.9,0.8,0.1,2.8000000000000003,10,initial,36.05,312,344,377,409,0,9,9,9,9,0,,,,,0,0,0,0,0,19,19,30,,,,,num_4,0.9086401000004116,num_4,0.4,0.5,0.15000000000000008,1.1,5.40644,39.64722,return,6.263787500000035,,,,,,,14,21,female,up_down_width,2023_Oct_10_1503,exp1,2021.2.3,60.02984683988535,
,,,,,,,,,,,,,,,,3,8.2,10,11.8,0,0,1.7999999999999998,1.4,0.4,4,10,match,36.05,296,361,425,0,0,9,9,9,0,0,,,,,0,0,0,0,0,20,20,53,,,,,num_3,0.9413956999997026,num_3,0.45,0.6,0.25000000000000006,2.05,9.01073,73.888,return,11.317425000000185,,,,,,,14,21,female,up_down_width,2023_Oct_10_1503,exp1,2021.2.3,60.02984683988535,
,,,,,,,,,,,,,,,,3,9.1,10,10.9,0,0,0.9,0.65,0.25,2.05,10,initial,36.05,328,361,393,0,0,9,9,9,0,0,,,,,0,0,0,0,0,21,21,14,,,,,num_2,0.8585383999998157,num_2,0.4,1.6,0.25000000000000006,1.6,9.01073,57.66869,return,2.020152200000666,,,,,,,14,21,female,up_down_width,2023_Oct_10_1503,exp1,2021.2.3,60.02984683988535,
,,,,,,,,,,,,,,,,4,9.3,9.766666666666667,10.233333333333333,10.7,0,0.4666666666666667,0.21666666666666665,0.25,1.65,10,match,36.05,335,352,369,386,0,9,9,9,9,0,,,,,0,0,0,0,0,22,22,9,,,,,num_3,0.962848799999847,num_3,0.1,0.3,0.3,0.75,10.81288,27.0322,return,4.747710500000721,,,,,,,14,21,female,up_down_width,2023_Oct_10_1503,exp1,2021.2.3,60.02984683988535,
,,,,,,,,,,,,,,,,3,9.5,10,10.5,0,0,0.5,0.4,0.1,1.1,10,initial,36.05,342,361,379,0,0,9,9,9,0,0,,,,,0,0,0,0,0,23,23,0,,,,,num_3,0.8219959999996718,num_3,0.1,0.9,0.3,0.9,10.81288,32.43864,return,2.835305999999946,,,,,,,14,21,female,up_down_width,2023_Oct_10_1503,exp1,2021.2.3,60.02984683988535,
,,,,,,,,,,,,,,,,4,9.425,9.808333333333334,10.191666666666666,10.575,0,0.3833333333333333,0.1333333333333333,0.25,1.4,10,match,36.05,340,354,367,381,0,9,9,9,9,0,,,,,0,0,0,0,0,24,24,5,,,,,num_3,1.3794950999999855,num_3,0.35,1,0.3,0.6,10.81288,21.62576,return,3.340956600000027,,,,,,,14,21,female,up_down_width,2023_Oct_10_1503,exp1,2021.2.3,60.02984683988535,
,,,,,,,,,,,,,,,,4,9.3,9.766666666666667,10.233333333333333,10.7,0,0.4666666666666667,0.3666666666666667,0.1,1.5,10,match,36.05,335,352,369,386,0,9,9,9,9,0,,,,,0,0,0,0,0,25,25,7,,,,,num_4,0.9499317999998311,num_4,0.1,1.1,0.25,0.5,9.01073,18.02146,return,6.799331000000166,,,,,,,14,21,female,up_down_width,2023_Oct_10_1503,exp1,2021.2.3,60.02984683988535,
,,,,,,,,,,,,,,,,3,9.3,10,10.7,0,0,0.7,0.44999999999999996,0.25,1.65,10,initial,36.05,335,361,386,0,0,9,9,9,0,0,,,,,0,0,0,0,0,26,26,8,,,,,num_2,0.9339896999999837,num_2,0.15,1.6,0.3,0.8,10.81288,28.83434,return,5.276648999999452,,,,,,,14,21,female,up_down_width,2023_Oct_10_1503,exp1,2021.2.3,60.02984683988535,
,,,,,,,,,,,,,,,,5,8.65,9.325,10,10.675,11.35,0.6749999999999999,0.575,0.1,2.8,10,match,36.05,312,336,361,385,409,9,9,9,9,9,,,,,0,0,0,0,0,27,27,31,,,,,num_4,0.8198577000002842,num_4,0.45,1.3,0.15000000000000008,0.7,5.40644,25.23005,return,4.547467200000028,,,,,,,14,21,female,up_down_width,2023_Oct_10_1503,exp1,2021.2.3,60.02984683988535,
,,,,,,,,,,,,,,,,3,8.6,10,11.4,0,0,1.4,1.15,0.25,3.05,10,match,36.05,310,361,411,0,0,9,9,9,0,0,,,,,0,0,0,0,0,28,28,45,,,,,num_2,0.9304807999997138,num_2,0.1,1.6,0.44999999999999996,2.0,16.21932,72.08586,return,5.149277699999402,,,,,,,14,21,female,up_down_width,2023_Oct_10_1503,exp1,2021.2.3,60.02984683988535,
,,,,,,,,,,,,,,,,5,8.6,9.3,10,10.7,11.4,0.7,0.6,0.1,2.9,10,initial,36.05,310,335,361,386,411,9,9,9,9,9,,,,,0,0,0,0,0,29,29,42,,,,,num_4,0.8214975999999297,num_4,0.4,0.5,0.10000000000000007,0.9,3.60429,32.43864,return,4.5780211000001145,,,,,,,14,21,female,up_down_width,2023_Oct_10_1503,exp1,2021.2.3,60.02984683988535,
,,,,,,,,,,,,,,,,4,8.95,9.65,10.35,11.05,0,0.7,0.29999999999999993,0.4,2.5,10,initial,36.05,323,348,373,398,0,9,9,9,9,0,,,,,0,0,0,0,0,30,30,28,,,,,num_4,0.8665692000004128,num_4,0.3,0.3,0.15000000000000002,0.8,5.40644,28.83434,return,14.140675399999964,,,,,,,14,21,female,up_down_width,2023_Oct_10_1503,exp1,2021.2.3,60.02984683988535,
,,,,,,,,,,,,,,,,5,8.65,9.325,10,10.675,11.35,0.675,0.275,0.4,3.1,10,match,36.05,312,336,361,385,409,9,9,9,9,9,,,,,0,0,0,0,0,31,31,35,,,,,num_5,1.8901998000001186,num_5,0.15,0.7,0.35,0.6,12.61502,21.62576,return,5.508739400000195,,,,,,,14,21,female,up_down_width,2023_Oct_10_1503,exp1,2021.2.3,60.02984683988535,
,,,,,,,,,,,,,,,,5,9.25,9.625,10,10.375,10.75,0.375,0.125,0.25,1.75,10,match,36.05,333,347,361,374,388,9,9,9,9,9,,,,,0,0,0,0,0,32,32,21,,,,,num_4,0.8798655999999028,num_4,0.15,0.8,0.39999999999999997,0.6,14.41717,21.62576,return,3.1960744999996678,,,,,,,14,21,female,up_down_width,2023_Oct_10_1503,exp1,2021.2.3,60.02984683988535,
,,,,,,,,,,,,,,,,3,8.525,10,11.475,0,0,1.475,1.225,0.25,3.2,10,match,36.05,307,361,414,0,0,9,9,9,0,0,,,,,0,0,0,0,0,33,33,47,,,,,num_2,0.8998841000002358,num_2,0.15,1.6,0.35,1.7,12.61502,61.27298,return,2.7192375000004176,,,,,,,14,21,female,up_down_width,2023_Oct_10_1503,exp1,2021.2.3,60.02984683988535,
,,,,,,,,,,,,,,,,5,9,9.5,10,10.5,11,0.5,0.25,0.25,2.25,10,initial,36.05,324,342,361,379,397,9,9,9,9,9,,,,,0,0,0,0,0,34,34,38,,,,,num_4,0.9012343000003966,num_4,0.2,0.9,0.35,0.7,12.61502,25.23005,return,3.1359283000001597,,,,,,,14,21,female,up_down_width,2023_Oct_10_1503,exp1,2021.2.3,60.02984683988535,
,,,,,,,,,,,,,,,,5,9,9.5,10,10.5,11,0.5,0.09999999999999998,0.4,2.4,10,initial,36.05,324,342,361,379,397,9,9,9,9,9,,,,,0,0,0,0,0,35,35,40,,,,,num_4,1.264077100000577,num_4,0.3,1.3,0.3,0.5,10.81288,18.02146,return,2.9239905999993425,,,,,,,14,21,female,up_down_width,2023_Oct_10_1503,exp1,2021.2.3,60.02984683988535,
,,,,,,,,,,,,,,,,4,8.95,9.65,10.35,11.05,0,0.7,0.44999999999999996,0.25,2.3499999999999996,10,initial,36.05,323,348,373,398,0,9,9,9,9,0,,,,,0,0,0,0,0,36,36,26,,,,,num_4,0.7620842000005723,num_4,0.45,1.0,0.30000000000000004,0.7,10.81288,25.23005,return,4.090355600000294,,,,,,,14,21,female,up_down_width,2023_Oct_10_1503,exp1,2021.2.3,60.02984683988535,
,,,,,,,,,,,,,,,,4,9.1,9.7,10.3,10.9,0,0.6,0.5,0.1,1.9,10,match,36.05,328,350,371,393,0,9,9,9,9,0,,,,,0,0,0,0,0,37,37,13,,,,,num_3,1.2871769000003042,num_3,0.3,1.2,0.25,0.8,9.01073,28.83434,return,3.6010006000005887,,,,,,,14,21,female,up_down_width,2023_Oct_10_1503,exp1,2021.2.3,60.02984683988535,
,,,,,,,,,,,,,,,,4,9.1,9.7,10.3,10.9,0,0.5999999999999999,0.3499999999999999,0.25,2.05,10,match,36.05,328,350,371,393,0,9,9,9,9,0,,,,,0,0,0,0,0,38,38,15,,,,,num_4,1.7530106000003798,num_4,0.45,1.2,0.25000000000000006,0.6,9.01073,21.62576,return,3.089415200000076,,,,,,,14,21,female,up_down_width,2023_Oct_10_1503,exp1,2021.2.3,60.02984683988535,
,,,,,,,,,,,,,,,,4,9.25,9.75,10.25,10.75,0,0.5,0.09999999999999998,0.4,1.9,10,initial,36.05,333,351,370,388,0,9,9,9,9,0,,,,,0,0,0,0,0,39,39,22,,,,,num_3,1.0649144999997588,num_3,0.35,0.8,0.39999999999999997,0.75,14.41717,27.0322,return,4.461457800000062,,,,,,,14,21,female,up_down_width,2023_Oct_10_1503,exp1,2021.2.3,60.02984683988535,
,,,,,,,,,,,,,,,,4,8.65,9.55,10.45,11.35,0,0.9,0.5,0.4,3.1,10,initial,36.05,312,344,377,409,0,9,9,9,9,0,,,,,0,0,0,0,0,40,40,34,,,,,num_4,1.2192310000000361,num_4,0.4,0.6,0.30000000000000004,0.6,10.81288,21.62576,return,2.6545483999998396,,,,,,,14,21,female,up_down_width,2023_Oct_10_1503,exp1,2021.2.3,60.02984683988535,
,,,,,,,,,,,,,,,,3,8.2,10,11.8,0,0,1.8,1.55,0.25,3.85,10,match,36.05,296,361,425,0,0,9,9,9,0,0,,,,,0,0,0,0,0,41,41,51,,,,,num_2,0.8786957000002076,num_2,0.45,1.6,0.30000000000000004,3.4,10.81288,122.54596,return,5.834660799999256,,,,,,,14,21,female,up_down_width,2023_Oct_10_1503,exp1,2021.2.3,60.02984683988535,
,,,,,,,,,,,,,,,,3,9.5,10,10.5,0,0,0.5,0.09999999999999998,0.4,1.4000000000000001,10,initial,36.05,342,361,379,0,0,9,9,9,0,0,,,,,0,0,0,0,0,42,42,4,,,,,num_3,1.6474115999999412,num_3,0.45,0.8,0.30000000000000004,0.7,10.81288,25.23005,return,2.4614318999992975,,,,,,,14,21,female,up_down_width,2023_Oct_10_1503,exp1,2021.2.3,60.02984683988535,
,,,,,,,,,,,,,,,,4,9.3,9.766666666666667,10.233333333333333,10.7,0,0.4666666666666667,0.06666666666666665,0.4,1.8,10,match,36.05,335,352,369,386,0,9,9,9,9,0,,,,,0,0,0,0,0,43,43,11,,,,,num_3,0.8647043999999369,num_3,0.25,1.1,0.39999999999999997,0.75,14.41717,27.0322,return,3.711740099999588,,,,,,,14,21,female,up_down_width,2023_Oct_10_1503,exp1,2021.2.3,60.02984683988535,
,,,,,,,,,,,,,,,,4,9.25,9.75,10.25,10.75,0,0.5,0.25,0.25,1.75,10,initial,36.05,333,351,370,388,0,9,9,9,9,0,,,,,0,0,0,0,0,44,44,20,,,,,num_3,1.457479699999567,num_3,0.3,1,0.35,0.6,12.61502,21.62576,return,4.115707299999485,,,,,,,14,21,female,up_down_width,2023_Oct_10_1503,exp1,2021.2.3,60.02984683988535,
,,,,,,,,,,,,,,,,5,8.2,9.1,10,10.9,11.8,0.9,0.5,0.4,4,10,initial,36.05,296,328,361,393,425,9,9,9,9,9,,,,,0,0,0,0,0,45,45,52,,,,,num_4,0.9377265000002808,num_4,0.35,1.3,0.35,0.8,12.61502,28.83434,return,3.906944199999998,,,,,,,14,21,female,up_down_width,2023_Oct_10_1503,exp1,2021.2.3,60.02984683988535,
,,,,,,,,,,,,,,,,5,8.6,9.3,10,10.7,11.4,0.7,0.29999999999999993,0.4,3.1999999999999997,10,initial,36.05,310,335,361,386,411,9,9,9,9,9,,,,,0,0,0,0,0,46,46,46,,,,,num_4,0.8071337999999741,num_4,0.45,0.5,0.35000000000000003,0.9,12.61502,32.43864,return,5.589261300000544,,,,,,,14,21,female,up_down_width,2023_Oct_10_1503,exp1,2021.2.3,60.02984683988535,
,,,,,,,,,,,,,,,,3,8.6,10,11.4,0,0,1.4,1.2999999999999998,0.1,2.9,10,match,36.05,310,361,411,0,0,9,9,9,0,0,,,,,0,0,0,0,0,47,47,43,,,,,num_2,0.9428184000007604,num_2,0.45,1.6,0.20000000000000007,3.1,7.20859,111.73308,return,5.287880199999563,,,,,,,14,21,female,up_down_width,2023_Oct_10_1503,exp1,2021.2.3,60.02984683988535,
,,,,,,,,,,,,,,,,3,9.3,10,10.7,0,0,0.7,0.29999999999999993,0.4,1.8,10,initial,36.05,335,361,386,0,0,9,9,9,0,0,,,,,0,0,0,0,0,48,48,10,,,,,num_2,0.8433488999999099,num_2,0.25,1.6,0.39999999999999997,1.2,14.41717,43.25151,return,3.270268400000532,,,,,,,14,21,female,up_down_width,2023_Oct_10_1503,exp1,2021.2.3,60.02984683988535,
,,,,,,,,,,,,,,,,5,8.95,9.475,10,10.525,11.05,0.525,0.42500000000000004,0.1,2.2,10,match,36.05,323,342,361,379,398,9,9,9,9,9,,,,,0,0,0,0,0,49,49,25,,,,,num_4,1.1059484000006705,num_4,0.4,1.0,0.30000000000000004,0.9,10.81288,32.43864,return,2.693501699999615,,,,,,,14,21,female,up_down_width,2023_Oct_10_1503,exp1,2021.2.3,60.02984683988535,
,,,,,,,,,,,,,,,,5,8.6,9.3,10,10.7,11.4,0.7,0.44999999999999996,0.25,3.05,10,initial,36.05,310,335,361,386,411,9,9,9,9,9,,,,,0,0,0,0,0,50,50,44,,,,,num_4,0.9276587000003929,num_4,0.45,1.0,0.30000000000000004,0.9,10.81288,32.43864,return,3.114117900000565,,,,,,,14,21,female,up_down_width,2023_Oct_10_1503,exp1,2021.2.3,60.02984683988535,
,,,,,,,,,,,,,,,,4,8.65,9.55,10.45,11.35,0,0.9,0.65,0.25,2.95,10,initial,36.05,312,344,377,409,0,9,9,9,9,0,,,,,0,0,0,0,0,51,51,32,,,,,num_4,0.8997046000004048,num_4,0.15,0.3,0.2,1.0,7.20859,36.04293,return,3.1496186000003945,,,,,,,14,21,female,up_down_width,2023_Oct_10_1503,exp1,2021.2.3,60.02984683988535,
,,,,,,,,,,,,,,,,3,9.1,10,10.9,0,0,0.9,0.8,0.1,1.9000000000000001,10,initial,36.05,328,361,393,0,0,9,9,9,0,0,,,,,0,0,0,0,0,52,52,12,,,,,num_2,0.7058199000002787,num_2,0.3,1.6,0.2,1.4,7.20859,50.4601,return,2.833262900000591,,,,,,,14,21,female,up_down_width,2023_Oct_10_1503,exp1,2021.2.3,60.02984683988535,
,,,,,,,,,,,,,,,,5,8.2,9.1,10,10.9,11.8,0.9,0.8,0.1,3.7,10,initial,36.05,296,328,361,393,425,9,9,9,9,9,,,,,0,0,0,0,0,53,53,48,,,,,num_4,0.7880651000004946,num_4,0.2,0.7,0.15000000000000002,1.0,5.40644,36.04293,return,3.024088300000585,,,,,,,14,21,female,up_down_width,2023_Oct_10_1503,exp1,2021.2.3,60.02984683988535,
,,,,,,,,,,,,,,,,,,,,,,,,,,,,,,,,,,,,,,,,,,,0,0,0,0,,,,,,,,,,,,,,,,,,,,,,803.4508943000001,None,803.4508943000001,None,14,21,female,up_down_width,2023_Oct_10_1503,exp1,2021.2.3,60.02984683988535,
,,,,,,,,,,,,,,,,4,8.65,9.55,10.45,11.35,0,0.9,0.8,0.1,2.8000000000000003,10,initial,36.05,312,344,377,409,0,9,9,9,9,0,,,,,1,0,1,0,0,0,0,30,,,,,num_3,0.7673974999997881,num_3,0.2,0.8,0.15000000000000002,1.25,5.40644,45.05366,return,2.095501599999807,,,,,,,14,21,female,up_down_width,2023_Oct_10_1503,exp1,2021.2.3,60.02984683988535,
,,,,,,,,,,,,,,,,5,8.65,9.325,10,10.675,11.35,0.675,0.275,0.4,3.1,10,match,36.05,312,336,361,385,409,9,9,9,9,9,,,,,1,0,1,0,0,1,1,35,,,,,num_4,0.8768147000000681,num_4,0.3,0.7,0.3,0.9,10.81288,32.43864,return,2.568941300000006,,,,,,,14,21,female,up_down_width,2023_Oct_10_1503,exp1,2021.2.3,60.02984683988535,
,,,,,,,,,,,,,,,,4,9.3,9.766666666666667,10.233333333333333,10.7,0,0.4666666666666667,0.06666666666666665,0.4,1.8,10,match,36.05,335,352,369,386,0,9,9,9,9,0,,,,,1,0,1,0,0,2,2,11,,,,,num_3,0.9148792999994839,num_3,0.3,0.8,0.39999999999999997,0.7,14.41717,25.23005,return,2.1736062999998467,,,,,,,14,21,female,up_down_width,2023_Oct_10_1503,exp1,2021.2.3,60.02984683988535,
,,,,,,,,,,,,,,,,5,8.95,9.475,10,10.525,11.05,0.525,0.275,0.25,2.35,10,match,36.05,323,342,361,379,398,9,9,9,9,9,,,,,1,0,1,0,0,3,3,27,,,,,num_4,0.8289182999997138,num_4,0.45,0.5,0.30000000000000004,0.7,10.81288,25.23005,return,3.033816499999375,,,,,,,14,21,female,up_down_width,2023_Oct_10_1503,exp1,2021.2.3,60.02984683988535,
,,,,,,,,,,,,,,,,3,9,10,11,0,0,1,0.9,0.1,2.1,10,match,36.05,324,361,397,0,0,9,9,9,0,0,,,,,1,0,1,0,0,4,4,37,,,,,num_2,0.8359939000001759,num_2,0.3,1.6,0.2,1.9,7.20859,68.48156,return,2.2707550999994055,,,,,,,14,21,female,up_down_width,2023_Oct_10_1503,exp1,2021.2.3,60.02984683988535,
,,,,,,,,,,,,,,,,4,9.5,9.833333333333334,10.166666666666666,10.5,0,0.33333333333333337,0.23333333333333336,0.1,1.1,10,match,36.05,342,354,367,379,0,9,9,9,9,0,,,,,1,0,1,0,0,5,5,1,,,,,num_3,0.6746322999997574,num_3,0.45,1,0.20000000000000007,0.65,7.20859,23.4279,return,2.807337700000062,,,,,,,14,21,female,up_down_width,2023_Oct_10_1503,exp1,2021.2.3,60.02984683988535,
,,,,,,,,,,,,,,,,4,8.95,9.65,10.35,11.05,0,0.7,0.6,0.1,2.1999999999999997,10,initial,36.05,323,348,373,398,0,9,9,9,9,0,,,,,1,0,1,0,0,6,6,24,,,,,num_4,0.8926028999994742,num_4,0.4,1.0,0.20000000000000007,0.7,7.20859,25.23005,return,2.90401650000058,,,,,,,14,21,female,up_down_width,2023_Oct_10_1503,exp1,2021.2.3,60.02984683988535,
,,,,,,,,,,,,,,,,4,8.95,9.65,10.35,11.05,0,0.7,0.29999999999999993,0.4,2.5,10,initial,36.05,323,348,373,398,0,9,9,9,9,0,,,,,1,0,1,0,0,7,7,28,,,,,num_3,0.8127094000001307,num_3,0.1,1,0.35,0.8,12.61502,28.83434,return,2.650613799999519,,,,,,,14,21,female,up_down_width,2023_Oct_10_1503,exp1,2021.2.3,60.02984683988535,
,,,,,,,,,,,,,,,,5,9,9.5,10,10.5,11,0.5,0.4,0.1,2.1,10,initial,36.05,324,342,361,379,397,9,9,9,9,9,,,,,1,0,1,0,0,8,8,36,,,,,num_4,0.9062595000004876,num_4,0.15,1.1,0.15,0.6,5.40644,21.62576,return,2.7891374999999243,,,,,,,14,21,female,up_down_width,2023_Oct_10_1503,exp1,2021.2.3,60.02984683988535,
,,,,,,,,,,,,,,,,3,8.2,10,11.8,0,0,1.8000000000000003,1.7000000000000002,0.1,3.7,10,match,36.05,296,361,425,0,0,9,9,9,0,0,,,,,1,0,1,0,0,9,9,49,,,,,num_3,0.8373351999998704,num_3,0.35,1.2,0.15000000000000002,1.35,5.40644,48.65795,return,2.194132599999648,,,,,,,14,21,female,up_down_width,2023_Oct_10_1503,exp1,2021.2.3,60.02984683988535,
,,,,,,,,,,,,,,,,3,8.6,10,11.4,0,0,1.4,1.2999999999999998,0.1,2.9,10,match,36.05,310,361,411,0,0,9,9,9,0,0,,,,,1,0,1,0,0,10,10,43,,,,,num_2,0.7495794999995269,num_2,0.4,1.6,0.15000000000000008,2.4,5.40644,86.50303,return,2.9094856000001528,,,,,,,14,21,female,up_down_width,2023_Oct_10_1503,exp1,2021.2.3,60.02984683988535,
,,,,,,,,,,,,,,,,4,9.1,9.7,10.3,10.9,0,0.6,0.5,0.1,1.9,10,match,36.05,328,350,371,393,0,9,9,9,9,0,,,,,1,0,1,0,0,11,11,13,,,,,num_3,0.6852458000003026,num_3,0.3,0.7,0.2,1.25,7.20859,45.05366,return,3.552912799999831,,,,,,,14,21,female,up_down_width,2023_Oct_10_1503,exp1,2021.2.3,60.02984683988535,
,,,,,,,,,,,,,,,,5,9,9.5,10,10.5,11,0.5,0.25,0.25,2.25,10,initial,36.05,324,342,361,379,397,9,9,9,9,9,,,,,1,0,1,0,0,12,12,38,,,,,num_4,0.757431799999722,num_4,0.45,0.6,0.20000000000000007,1.0,7.20859,36.04293,return,3.189706699999988,,,,,,,14,21,female,up_down_width,2023_Oct_10_1503,exp1,2021.2.3,60.02984683988535,
,,,,,,,,,,,,,,,,5,8.95,9.475,10,10.525,11.05,0.525,0.42500000000000004,0.1,2.2,10,match,36.05,323,342,361,379,398,9,9,9,9,9,,,,,1,0,1,0,0,13,13,25,,,,,num_4,0.7928611999996065,num_4,0.25,1.3,0.25,0.7,9.01073,25.23005,return,4.404683399999158,,,,,,,14,21,female,up_down_width,2023_Oct_10_1503,exp1,2021.2.3,60.02984683988535,
,,,,,,,,,,,,,,,,3,8.2,10,11.8,0,0,1.7999999999999998,1.4,0.4,4,10,match,36.05,296,361,425,0,0,9,9,9,0,0,,,,,1,0,1,0,0,14,14,53,,,,,num_2,0.9360083999999915,num_2,0.25,1.6,0.35,3.5,12.61502,126.15025,return,4.76786870000069,,,,,,,14,21,female,up_down_width,2023_Oct_10_1503,exp1,2021.2.3,60.02984683988535,
,,,,,,,,,,,,,,,,5,8.95,9.475,10,10.525,11.05,0.525,0.125,0.4,2.5,10,match,36.05,323,342,361,379,398,9,9,9,9,9,,,,,1,0,1,0,0,15,15,29,,,,,num_4,0.7831306999996741,num_4,0.35,0.9,0.3,0.6,10.81288,21.62576,return,3.7271491999999853,,,,,,,14,21,female,up_down_width,2023_Oct_10_1503,exp1,2021.2.3,60.02984683988535,
,,,,,,,,,,,,,,,,3,9,10,11,0,0,1,0.75,0.25,2.25,10,match,36.05,324,361,397,0,0,9,9,9,0,0,,,,,1,0,1,0,0,16,16,39,,,,,num_2,0.988778199999615,num_2,0.3,1.6,0.25,2.6,9.01073,93.71161,return,2.997752700000092,,,,,,,14,21,female,up_down_width,2023_Oct_10_1503,exp1,2021.2.3,60.02984683988535,
,,,,,,,,,,,,,,,,5,9.25,9.625,10,10.375,10.75,0.375,0.275,0.1,1.6,10,match,36.05,333,347,361,374,388,9,9,9,9,9,,,,,1,0,1,0,0,17,17,19,,,,,num_4,0.7827005999997709,num_4,0.4,0.8,0.20000000000000007,0.6,7.20859,21.62576,return,3.6778540000004796,,,,,,,14,21,female,up_down_width,2023_Oct_10_1503,exp1,2021.2.3,60.02984683988535,
,,,,,,,,,,,,,,,,3,8.525,10,11.475,0,0,1.475,1.225,0.25,3.2,10,match,36.05,307,361,414,0,0,9,9,9,0,0,,,,,1,0,1,0,0,18,18,47,,,,,num_2,0.6280040000001463,num_2,0.15,1.6,0.39999999999999997,2.5,14.41717,90.10732,return,3.75269389999994,,,,,,,14,21,female,up_down_width,2023_Oct_10_1503,exp1,2021.2.3,60.02984683988535,
,,,,,,,,,,,,,,,,5,8.6,9.3,10,10.7,11.4,0.7,0.29999999999999993,0.4,3.1999999999999997,10,initial,36.05,310,335,361,386,411,9,9,9,9,9,,,,,1,0,1,0,0,19,19,46,,,,,num_4,0.8325635000001057,num_4,0.4,0.5,0.35000000000000003,1.1,12.61502,39.64722,return,3.0366626000004544,,,,,,,14,21,female,up_down_width,2023_Oct_10_1503,exp1,2021.2.3,60.02984683988535,
,,,,,,,,,,,,,,,,3,9.1,10,10.9,0,0,0.9,0.8,0.1,1.9000000000000001,10,initial,36.05,328,361,393,0,0,9,9,9,0,0,,,,,1,0,1,0,0,20,20,12,,,,,num_2,0.7254109000004973,num_2,0.4,1.6,0.20000000000000007,2.4,7.20859,86.50303,return,2.5041532000004736,,,,,,,14,21,female,up_down_width,2023_Oct_10_1503,exp1,2021.2.3,60.02984683988535,
,,,,,,,,,,,,,,,,3,9.5,10,10.5,0,0,0.5,0.4,0.1,1.1,10,initial,36.05,342,361,379,0,0,9,9,9,0,0,,,,,1,0,1,0,0,21,21,0,,,,,num_2,0.8200583999996525,num_2,0.35,1.6,0.2,1.4,7.20859,50.4601,return,2.9144674999997733,,,,,,,14,21,female,up_down_width,2023_Oct_10_1503,exp1,2021.2.3,60.02984683988535,
,,,,,,,,,,,,,,,,4,9.3,9.766666666666667,10.233333333333333,10.7,0,0.4666666666666667,0.21666666666666665,0.25,1.65,10,match,36.05,335,352,369,386,0,9,9,9,9,0,,,,,1,0,1,0,0,22,22,9,,,,,num_3,0.6942107000004398,num_3,0.2,0.8,0.3,0.75,10.81288,27.0322,return,2.1855704999998125,,,,,,,14,21,female,up_down_width,2023_Oct_10_1503,exp1,2021.2.3,60.02984683988535,
,,,,,,,,,,,,,,,,3,9.3,10,10.7,0,0,0.7,0.6,0.1,1.5,10,initial,36.05,335,361,386,0,0,9,9,9,0,0,,,,,1,0,1,0,0,23,23,6,,,,,num_2,0.782683200000065,num_2,0.25,1.6,0.15000000000000002,1.1,5.40644,39.64722,return,2.319098199999644,,,,,,,14,21,female,up_down_width,2023_Oct_10_1503,exp1,2021.2.3,60.02984683988535,
,,,,,,,,,,,,,,,,5,8.65,9.325,10,10.675,11.35,0.675,0.42500000000000004,0.25,2.95,10,match,36.05,312,336,361,385,409,9,9,9,9,9,,,,,1,0,1,0,0,24,24,33,,,,,num_4,0.7228298999998515,num_4,0.45,1.1,0.25000000000000006,0.9,9.01073,32.43864,return,2.1022372000006726,,,,,,,14,21,female,up_down_width,2023_Oct_10_1503,exp1,2021.2.3,60.02984683988535,
,,,,,,,,,,,,,,,,5,8.2,9.1,10,10.9,11.8,0.9,0.5,0.4,4,10,initial,36.05,296,328,361,393,425,9,9,9,9,9,,,,,1,0,1,0,0,25,25,52,,,,,num_4,0.6652610000001005,num_4,0.4,0.7,0.35000000000000003,1.0,12.61502,36.04293,return,1.8865005999996356,,,,,,,14,21,female,up_down_width,2023_Oct_10_1503,exp1,2021.2.3,60.02984683988535,
,,,,,,,,,,,,,,,,3,8.2,10,11.8,0,0,1.8,1.55,0.25,3.85,10,match,36.05,296,361,425,0,0,9,9,9,0,0,,,,,1,0,1,0,0,26,26,51,,,,,num_2,0.6175388000001476,num_2,0.25,1.6,0.3,2.6,10.81288,93.71161,return,2.9913698000000295,,,,,,,14,21,female,up_down_width,2023_Oct_10_1503,exp1,2021.2.3,60.02984683988535,
,,,,,,,,,,,,,,,,4,9.1,9.7,10.3,10.9,0,0.6000000000000001,0.20000000000000004,0.4,2.2,10,match,36.05,328,350,371,393,0,9,9,9,9,0,,,,,1,0,1,0,0,27,27,17,,,,,num_3,0.9066141000002972,num_3,0.3,1,0.39999999999999997,0.95,14.41717,34.24078,return,2.3416332999995575,,,,,,,14,21,female,up_down_width,2023_Oct_10_1503,exp1,2021.2.3,60.02984683988535,
,,,,,,,,,,,,,,,,3,9,10,11,0,0,0.9999999999999999,0.5999999999999999,0.4,2.4,10,match,36.05,324,361,397,0,0,9,9,9,0,0,,,,,1,0,1,0,0,28,28,41,,,,,num_2,0.6280930000002627,num_2,0.35,1.6,0.39999999999999997,1.3,14.41717,46.85581,return,2.0746901000002254,,,,,,,14,21,female,up_down_width,2023_Oct_10_1503,exp1,2021.2.3,60.02984683988535,
,,,,,,,,,,,,,,,,4,9.1,9.7,10.3,10.9,0,0.5999999999999999,0.3499999999999999,0.25,2.05,10,match,36.05,328,350,371,393,0,9,9,9,9,0,,,,,1,0,1,0,0,29,29,15,,,,,num_3,0.8294334000001982,num_3,0.45,1.2,0.30000000000000004,0.75,10.81288,27.0322,return,3.385782199999994,,,,,,,14,21,female,up_down_width,2023_Oct_10_1503,exp1,2021.2.3,60.02984683988535,
,,,,,,,,,,,,,,,,3,9.5,10,10.5,0,0,0.5,0.09999999999999998,0.4,1.4000000000000001,10,initial,36.05,342,361,379,0,0,9,9,9,0,0,,,,,1,0,1,0,0,30,30,4,,,,,num_2,0.6926357000002099,num_2,0.4,1.6,0.35000000000000003,0.8,12.61502,28.83434,return,3.093202299999575,,,,,,,14,21,female,up_down_width,2023_Oct_10_1503,exp1,2021.2.3,60.02984683988535,
,,,,,,,,,,,,,,,,4,8.65,9.55,10.45,11.35,0,0.9,0.5,0.4,3.1,10,initial,36.05,312,344,377,409,0,9,9,9,9,0,,,,,1,0,1,0,0,31,31,34,,,,,num_3,1.0268080999994709,num_3,0.15,0.7,0.44999999999999996,0.95,16.21932,34.24078,return,3.1102722000005087,,,,,,,14,21,female,up_down_width,2023_Oct_10_1503,exp1,2021.2.3,60.02984683988535,
,,,,,,,,,,,,,,,,5,8.65,9.325,10,10.675,11.35,0.6749999999999999,0.575,0.1,2.8,10,match,36.05,312,336,361,385,409,9,9,9,9,9,,,,,1,0,1,0,0,32,32,31,,,,,num_4,0.7247729000000618,num_4,0.25,0.3,0.05000000000000002,0.9,1.80215,32.43864,return,2.2124794000001202,,,,,,,14,21,female,up_down_width,2023_Oct_10_1503,exp1,2021.2.3,60.02984683988535,
,,,,,,,,,,,,,,,,3,9.1,10,10.9,0,0,0.9,0.5,0.4,2.2,10,initial,36.05,328,361,393,0,0,9,9,9,0,0,,,,,1,0,1,0,0,33,33,16,,,,,num_2,0.6566810000003898,num_2,0.2,1.6,0.39999999999999997,1.2,14.41717,43.25151,return,2.38936190000004,,,,,,,14,21,female,up_down_width,2023_Oct_10_1503,exp1,2021.2.3,60.02984683988535,
,,,,,,,,,,,,,,,,3,9.3,10,10.7,0,0,0.7,0.29999999999999993,0.4,1.8,10,initial,36.05,335,361,386,0,0,9,9,9,0,0,,,,,1,0,1,0,0,34,34,10,,,,,num_2,0.5948001000006116,num_2,0.1,1.6,0.44999999999999996,1.1,16.21932,39.64722,return,2.6827484000004915,,,,,,,14,21,female,up_down_width,2023_Oct_10_1503,exp1,2021.2.3,60.02984683988535,
,,,,,,,,,,,,,,,,4,8.65,9.55,10.45,11.35,0,0.9,0.65,0.25,2.95,10,initial,36.05,312,344,377,409,0,9,9,9,9,0,,,,,1,0,1,0,0,35,35,32,,,,,num_3,0.7852921000003334,num_3,0.25,1,0.3,1.25,10.81288,45.05366,return,1.7138268999997308,,,,,,,14,21,female,up_down_width,2023_Oct_10_1503,exp1,2021.2.3,60.02984683988535,
,,,,,,,,,,,,,,,,4,9.25,9.75,10.25,10.75,0,0.5,0.4,0.1,1.6,10,initial,36.05,333,351,370,388,0,9,9,9,9,0,,,,,1,0,1,0,0,36,36,18,,,,,num_3,0.7286844999998721,num_3,0.45,1.2,0.15000000000000008,1.0,5.40644,36.04293,return,2.748529299999973,,,,,,,14,21,female,up_down_width,2023_Oct_10_1503,exp1,2021.2.3,60.02984683988535,
,,,,,,,,,,,,,,,,3,9.5,10,10.5,0,0,0.5,0.25,0.25,1.25,10,initial,36.05,342,361,379,0,0,9,9,9,0,0,,,,,1,0,1,0,0,37,37,2,,,,,num_2,1.4694753000003402,num_2,0.45,1.6,0.35000000000000003,1.2,12.61502,43.25151,return,3.3282499000006283,,,,,,,14,21,female,up_down_width,2023_Oct_10_1503,exp1,2021.2.3,60.02984683988535,
,,,,,,,,,,,,,,,,4,9.25,9.75,10.25,10.75,0,0.5,0.25,0.25,1.75,10,initial,36.05,333,351,370,388,0,9,9,9,9,0,,,,,1,0,1,0,0,38,38,20,,,,,num_3,0.7645167999999103,num_3,0.2,0.4,0.3,1.1,10.81288,39.64722,return,3.7103440999999293,,,,,,,14,21,female,up_down_width,2023_Oct_10_1503,exp1,2021.2.3,60.02984683988535,
,,,,,,,,,,,,,,,,4,9.425,9.808333333333334,10.191666666666666,10.575,0,0.3833333333333333,0.1333333333333333,0.25,1.4,10,match,36.05,340,354,367,381,0,9,9,9,9,0,,,,,1,0,1,0,0,39,39,5,,,,,num_3,0.6071444999997766,num_3,0.4,0.7,0.25000000000000006,0.75,9.01073,27.0322,return,2.469124700000066,,,,,,,14,21,female,up_down_width,2023_Oct_10_1503,exp1,2021.2.3,60.02984683988535,
,,,,,,,,,,,,,,,,3,9.1,10,10.9,0,0,0.9,0.65,0.25,2.05,10,initial,36.05,328,361,393,0,0,9,9,9,0,0,,,,,1,0,1,0,0,40,40,14,,,,,num_2,0.6841641000000891,num_2,0.3,1.6,0.3,1.2,10.81288,43.25151,return,2.2875065999996878,,,,,,,14,21,female,up_down_width,2023_Oct_10_1503,exp1,2021.2.3,60.02984683988535,
,,,,,,,,,,,,,,,,5,8.6,9.3,10,10.7,11.4,0.7,0.44999999999999996,0.25,3.05,10,initial,36.05,310,335,361,386,411,9,9,9,9,9,,,,,1,0,1,0,0,41,41,44,,,,,num_4,0.7571829999997135,num_4,0.15,0.9,0.35,0.9,12.61502,32.43864,return,2.983167099999264,,,,,,,14,21,female,up_down_width,2023_Oct_10_1503,exp1,2021.2.3,60.02984683988535,
,,,,,,,,,,,,,,,,4,8.95,9.65,10.35,11.05,0,0.7,0.44999999999999996,0.25,2.3499999999999996,10,initial,36.05,323,348,373,398,0,9,9,9,9,0,,,,,1,0,1,0,0,42,42,26,,,,,num_4,1.0247878000000128,num_4,0.3,1.0,0.3,0.9,10.81288,32.43864,return,1.9897660000005999,,,,,,,14,21,female,up_down_width,2023_Oct_10_1503,exp1,2021.2.3,60.02984683988535,
,,,,,,,,,,,,,,,,5,8.2,9.1,10,10.9,11.8,0.9,0.8,0.1,3.7,10,initial,36.05,296,328,361,393,425,9,9,9,9,9,,,,,1,0,1,0,0,43,43,48,,,,,num_4,0.7352264000001014,num_4,0.3,1.1,0.15000000000000002,1.0,5.40644,36.04293,return,1.8552938000002541,,,,,,,14,21,female,up_down_width,2023_Oct_10_1503,exp1,2021.2.3,60.02984683988535,
,,,,,,,,,,,,,,,,3,9.3,10,10.7,0,0,0.7,0.44999999999999996,0.25,1.65,10,initial,36.05,335,361,386,0,0,9,9,9,0,0,,,,,1,0,1,0,0,44,44,8,,,,,num_3,0.6374259000003804,num_3,0.4,1.1,0.20000000000000007,1.05,7.20859,37.84507,return,1.8070717000000514,,,,,,,14,21,female,up_down_width,2023_Oct_10_1503,exp1,2021.2.3,60.02984683988535,
,,,,,,,,,,,,,,,,4,9.5,9.833333333333334,10.166666666666666,10.5,0,0.3333333333333333,0.08333333333333333,0.25,1.25,10,match,36.05,342,354,367,379,0,9,9,9,9,0,,,,,1,0,1,0,0,45,45,3,,,,,num_3,1.162982099999681,num_3,0.2,1.3,0.3,0.7,10.81288,25.23005,return,3.690696399999979,,,,,,,14,21,female,up_down_width,2023_Oct_10_1503,exp1,2021.2.3,60.02984683988535,
,,,,,,,,,,,,,,,,5,9,9.5,10,10.5,11,0.5,0.09999999999999998,0.4,2.4,10,initial,36.05,324,342,361,379,397,9,9,9,9,9,,,,,1,0,1,0,0,46,46,40,,,,,num_4,0.8040892999997595,num_4,0.25,1.1,0.35,0.6,12.61502,21.62576,return,2.226167899999382,,,,,,,14,21,female,up_down_width,2023_Oct_10_1503,exp1,2021.2.3,60.02984683988535,
,,,,,,,,,,,,,,,,5,8.6,9.3,10,10.7,11.4,0.7,0.6,0.1,2.9,10,initial,36.05,310,335,361,386,411,9,9,9,9,9,,,,,1,0,1,0,0,47,47,42,,,,,num_4,0.7801323000003322,num_4,0.35,1.3,0.15000000000000002,0.7,5.40644,25.23005,return,2.573534699999982,,,,,,,14,21,female,up_down_width,2023_Oct_10_1503,exp1,2021.2.3,60.02984683988535,
,,,,,,,,,,,,,,,,3,8.6,10,11.4,0,0,1.4,1.15,0.25,3.05,10,match,36.05,310,361,411,0,0,9,9,9,0,0,,,,,1,0,1,0,0,48,48,45,,,,,num_3,0.8181582999995953,num_3,0.2,0.6,0.2,1.5,7.20859,54.06439,return,3.3410835000004226,,,,,,,14,21,female,up_down_width,2023_Oct_10_1503,exp1,2021.2.3,60.02984683988535,
,,,,,,,,,,,,,,,,4,9.3,9.766666666666667,10.233333333333333,10.7,0,0.4666666666666667,0.3666666666666667,0.1,1.5,10,match,36.05,335,352,369,386,0,9,9,9,9,0,,,,,1,0,1,0,0,49,49,7,,,,,num_3,0.7039407000002029,num_3,0.15,1.2,0.15,0.85,5.40644,30.63649,return,3.1681960000005347,,,,,,,14,21,female,up_down_width,2023_Oct_10_1503,exp1,2021.2.3,60.02984683988535,
,,,,,,,,,,,,,,,,5,9.175,9.5875,10,10.4125,10.825,0.4125,0.16249999999999998,0.25,1.9,10,match,36.05,331,346,361,375,390,9,9,9,9,9,,,,,1,0,1,0,0,50,50,23,,,,,num_4,0.7088550999997096,num_4,0.1,0.6,0.25,0.9,9.01073,32.43864,return,3.191049699999894,,,,,,,14,21,female,up_down_width,2023_Oct_10_1503,exp1,2021.2.3,60.02984683988535,
,,,,,,,,,,,,,,,,5,9.25,9.625,10,10.375,10.75,0.375,0.125,0.25,1.75,10,match,36.05,333,347,361,374,388,9,9,9,9,9,,,,,1,0,1,0,0,51,51,21,,,,,num_4,0.8780311000000438,num_4,0.15,1.3,0.3,0.6,10.81288,21.62576,return,3.3853236999993896,,,,,,,14,21,female,up_down_width,2023_Oct_10_1503,exp1,2021.2.3,60.02984683988535,
,,,,,,,,,,,,,,,,4,9.25,9.75,10.25,10.75,0,0.5,0.09999999999999998,0.4,1.9,10,initial,36.05,333,351,370,388,0,9,9,9,9,0,,,,,1,0,1,0,0,52,52,22,,,,,num_4,0.8513155999999071,num_4,0.25,1.2,0.3,0.6,10.81288,21.62576,return,3.311630399999558,,,,,,,14,21,female,up_down_width,2023_Oct_10_1503,exp1,2021.2.3,60.02984683988535,
,,,,,,,,,,,,,,,,5,8.2,9.1,10,10.9,11.8,0.9,0.65,0.25,3.85,10,initial,36.05,296,328,361,393,425,9,9,9,9,9,,,,,1,0,1,0,0,53,53,50,,,,,num_4,1.2986243000004833,num_4,0.1,1.1,0.35,0.9,12.61502,32.43864,return,3.2461516999992455,,,,,,,14,21,female,up_down_width,2023_Oct_10_1503,exp1,2021.2.3,60.02984683988535,
,,,,,,,,,,,,,,,,,,,,,,,,,,,,,,,,,,,,,,,,,,,1,0,1,0,,,,,,,,,,,,,,,,,,,,,,1218.9963594,None,1218.9963594,None,14,21,female,up_down_width,2023_Oct_10_1503,exp1,2021.2.3,60.02984683988535,
,,,,,,,,,,,,,,,,4,9.1,9.7,10.3,10.9,0,0.6000000000000001,0.20000000000000004,0.4,2.2,10,match,36.05,328,350,371,393,0,9,9,9,9,0,,,,,2,0,2,0,0,0,0,17,,,,,num_3,0.7941130999997768,num_3,0.15,0.7,0.39999999999999997,0.8,14.41717,28.83434,return,2.216370499999357,,,,,,,14,21,female,up_down_width,2023_Oct_10_1503,exp1,2021.2.3,60.02984683988535,
,,,,,,,,,,,,,,,,3,8.2,10,11.8,0,0,1.8,1.55,0.25,3.85,10,match,36.05,296,361,425,0,0,9,9,9,0,0,,,,,2,0,2,0,0,1,1,51,,,,,num_3,0.9411843000007138,num_3,0.35,1.1,0.25,1.5,9.01073,54.06439,return,2.3399226999999883,,,,,,,14,21,female,up_down_width,2023_Oct_10_1503,exp1,2021.2.3,60.02984683988535,
,,,,,,,,,,,,,,,,4,9.5,9.833333333333334,10.166666666666666,10.5,0,0.33333333333333337,0.23333333333333336,0.1,1.1,10,match,36.05,342,354,367,379,0,9,9,9,9,0,,,,,2,0,2,0,0,2,2,1,,,,,num_4,0.80953640000007,num_4,0.35,0.6,0.15000000000000002,0.5,5.40644,18.02146,return,2.664455099999941,,,,,,,14,21,female,up_down_width,2023_Oct_10_1503,exp1,2021.2.3,60.02984683988535,
,,,,,,,,,,,,,,,,4,8.65,9.55,10.45,11.35,0,0.9,0.5,0.4,3.1,10,initial,36.05,312,344,377,409,0,9,9,9,9,0,,,,,2,0,2,0,0,3,3,34,,,,,num_3,1.174047000000428,num_3,0.25,0.6,0.25,1.15,9.01073,41.44937,return,2.2457109000006312,,,,,,,14,21,female,up_down_width,2023_Oct_10_1503,exp1,2021.2.3,60.02984683988535,
,,,,,,,,,,,,,,,,4,8.65,9.55,10.45,11.35,0,0.9,0.65,0.25,2.95,10,initial,36.05,312,344,377,409,0,9,9,9,9,0,,,,,2,0,2,0,0,4,4,32,,,,,num_4,0.8448980000002848,num_4,0.4,1.3,0.25000000000000006,1.3,9.01073,46.85581,return,3.5768382999995083,,,,,,,14,21,female,up_down_width,2023_Oct_10_1503,exp1,2021.2.3,60.02984683988535,
,,,,,,,,,,,,,,,,3,9.5,10,10.5,0,0,0.5,0.09999999999999998,0.4,1.4000000000000001,10,initial,36.05,342,361,379,0,0,9,9,9,0,0,,,,,2,0,2,0,0,5,5,4,,,,,num_2,0.70192440000028,num_2,0.15,1.6,0.35,0.7,12.61502,25.23005,return,4.542764599999828,,,,,,,14,21,female,up_down_width,2023_Oct_10_1503,exp1,2021.2.3,60.02984683988535,
,,,,,,,,,,,,,,,,3,9,10,11,0,0,0.9999999999999999,0.5999999999999999,0.4,2.4,10,match,36.05,324,361,397,0,0,9,9,9,0,0,,,,,2,0,2,0,0,6,6,41,,,,,num_3,0.8323597999997219,num_3,0.35,0.7,0.3,0.8,10.81288,28.83434,return,2.526028899999801,,,,,,,14,21,female,up_down_width,2023_Oct_10_1503,exp1,2021.2.3,60.02984683988535,
,,,,,,,,,,,,,,,,3,9.3,10,10.7,0,0,0.7,0.44999999999999996,0.25,1.65,10,initial,36.05,335,361,386,0,0,9,9,9,0,0,,,,,2,0,2,0,0,7,7,8,,,,,num_3,0.758020100000067,num_3,0.2,0.5,0.25,0.85,9.01073,30.63649,return,2.7271482999994987,,,,,,,14,21,female,up_down_width,2023_Oct_10_1503,exp1,2021.2.3,60.02984683988535,
,,,,,,,,,,,,,,,,4,9.425,9.808333333333334,10.191666666666666,10.575,0,0.3833333333333333,0.1333333333333333,0.25,1.4,10,match,36.05,340,354,367,381,0,9,9,9,9,0,,,,,2,0,2,0,0,8,8,5,,,,,num_3,0.8759443999997529,num_3,0.1,0.4,0.25,0.65,9.01073,23.4279,return,3.335622499999772,,,,,,,14,21,female,up_down_width,2023_Oct_10_1503,exp1,2021.2.3,60.02984683988535,
,,,,,,,,,,,,,,,,3,9.3,10,10.7,0,0,0.7,0.29999999999999993,0.4,1.8,10,initial,36.05,335,361,386,0,0,9,9,9,0,0,,,,,2,0,2,0,0,9,9,10,,,,,num_2,1.6213636000002225,num_2,0.15,1.6,0.39999999999999997,0.8,14.41717,28.83434,return,3.4719105000003765,,,,,,,14,21,female,up_down_width,2023_Oct_10_1503,exp1,2021.2.3,60.02984683988535,
,,,,,,,,,,,,,,,,3,9.1,10,10.9,0,0,0.9,0.5,0.4,2.2,10,initial,36.05,328,361,393,0,0,9,9,9,0,0,,,,,2,0,2,0,0,10,10,16,,,,,num_3,0.8727473999997528,num_3,0.15,0.7,0.35,0.75,12.61502,27.0322,return,2.595944700000473,,,,,,,14,21,female,up_down_width,2023_Oct_10_1503,exp1,2021.2.3,60.02984683988535,
,,,,,,,,,,,,,,,,5,9.175,9.5875,10,10.4125,10.825,0.4125,0.16249999999999998,0.25,1.9,10,match,36.05,331,346,361,375,390,9,9,9,9,9,,,,,2,0,2,0,0,11,11,23,,,,,num_4,0.8692597999997815,num_4,0.25,0.6,0.25,0.5,9.01073,18.02146,return,2.3704546999997547,,,,,,,14,21,female,up_down_width,2023_Oct_10_1503,exp1,2021.2.3,60.02984683988535,
,,,,,,,,,,,,,,,,4,9.25,9.75,10.25,10.75,0,0.5,0.25,0.25,1.75,10,initial,36.05,333,351,370,388,0,9,9,9,9,0,,,,,2,0,2,0,0,12,12,20,,,,,num_4,0.8893371000003754,num_4,0.15,0.8,0.2,0.4,7.20859,14.41717,return,2.182178400000339,,,,,,,14,21,female,up_down_width,2023_Oct_10_1503,exp1,2021.2.3,60.02984683988535,
,,,,,,,,,,,,,,,,5,8.6,9.3,10,10.7,11.4,0.7,0.6,0.1,2.9,10,initial,36.05,310,335,361,386,411,9,9,9,9,9,,,,,2,0,2,0,0,13,13,42,,,,,num_4,0.9121574999999211,num_4,0.15,1.0,0.15000000000000002,0.8,5.40644,28.83434,return,4.058445299999221,,,,,,,14,21,female,up_down_width,2023_Oct_10_1503,exp1,2021.2.3,60.02984683988535,
,,,,,,,,,,,,,,,,4,8.95,9.65,10.35,11.05,0,0.7,0.29999999999999993,0.4,2.5,10,initial,36.05,323,348,373,398,0,9,9,9,9,0,,,,,2,0,2,0,0,14,14,28,,,,,num_3,1.0927244000004066,num_3,0.25,1.2,0.35,0.85,12.61502,30.63649,return,2.581782199999907,,,,,,,14,21,female,up_down_width,2023_Oct_10_1503,exp1,2021.2.3,60.02984683988535,
,,,,,,,,,,,,,,,,5,8.6,9.3,10,10.7,11.4,0.7,0.29999999999999993,0.4,3.1999999999999997,10,initial,36.05,310,335,361,386,411,9,9,9,9,9,,,,,2,0,2,0,0,15,15,46,,,,,num_4,0.8493099000006623,num_4,0.45,1.3,0.35000000000000003,1.1,12.61502,39.64722,return,2.4313539999993736,,,,,,,14,21,female,up_down_width,2023_Oct_10_1503,exp1,2021.2.3,60.02984683988535,
,,,,,,,,,,,,,,,,5,8.2,9.1,10,10.9,11.8,0.9,0.65,0.25,3.85,10,initial,36.05,296,328,361,393,425,9,9,9,9,9,,,,,2,0,2,0,0,16,16,50,,,,,num_4,0.742098900000201,num_4,0.25,1.2,0.3,0.9,10.81288,32.43864,return,3.1439368999999715,,,,,,,14,21,female,up_down_width,2023_Oct_10_1503,exp1,2021.2.3,60.02984683988535,
,,,,,,,,,,,,,,,,3,8.2,10,11.8,0,0,1.7999999999999998,1.4,0.4,4,10,match,36.05,296,361,425,0,0,9,9,9,0,0,,,,,2,0,2,0,0,17,17,53,,,,,num_2,0.6981267999999545,num_2,0.35,1.6,0.35,3.5,12.61502,126.15025,return,3.8852750999994896,,,,,,,14,21,female,up_down_width,2023_Oct_10_1503,exp1,2021.2.3,60.02984683988535,
,,,,,,,,,,,,,,,,3,8.525,10,11.475,0,0,1.475,1.225,0.25,3.2,10,match,36.05,307,361,414,0,0,9,9,9,0,0,,,,,2,0,2,0,0,18,18,47,,,,,num_3,0.6588432999997167,num_3,0.35,1.2,0.25,1.7,9.01073,61.27298,return,2.680529000000206,,,,,,,14,21,female,up_down_width,2023_Oct_10_1503,exp1,2021.2.3,60.02984683988535,
,,,,,,,,,,,,,,,,4,9.5,9.833333333333334,10.166666666666666,10.5,0,0.3333333333333333,0.08333333333333333,0.25,1.25,10,match,36.05,342,354,367,379,0,9,9,9,9,0,,,,,2,0,2,0,0,19,19,3,,,,,num_3,0.6972004999997807,num_3,0.15,1.3,0.25,0.65,9.01073,23.4279,return,4.330675600000177,,,,,,,14,21,female,up_down_width,2023_Oct_10_1503,exp1,2021.2.3,60.02984683988535,
,,,,,,,,,,,,,,,,3,9.1,10,10.9,0,0,0.9,0.65,0.25,2.05,10,initial,36.05,328,361,393,0,0,9,9,9,0,0,,,,,2,0,2,0,0,20,20,14,,,,,num_2,0.721505900000011,num_2,0.3,1.6,0.2,1.9,7.20859,68.48156,return,2.4319290999992518,,,,,,,14,21,female,up_down_width,2023_Oct_10_1503,exp1,2021.2.3,60.02984683988535,
,,,,,,,,,,,,,,,,3,9.5,10,10.5,0,0,0.5,0.25,0.25,1.25,10,initial,36.05,342,361,379,0,0,9,9,9,0,0,,,,,2,0,2,0,0,21,21,2,,,,,num_2,0.682637099999738,num_2,0.1,1.6,0.3,0.5,10.81288,18.02146,return,4.70197780000035,,,,,,,14,21,female,up_down_width,2023_Oct_10_1503,exp1,2021.2.3,60.02984683988535,
,,,,,,,,,,,,,,,,5,8.6,9.3,10,10.7,11.4,0.7,0.44999999999999996,0.25,3.05,10,initial,36.05,310,335,361,386,411,9,9,9,9,9,,,,,2,0,2,0,0,22,22,44,,,,,num_4,1.7435206999998627,num_4,0.1,1.0,0.3,1.0,10.81288,36.04293,return,3.3207001999999193,,,,,,,14,21,female,up_down_width,2023_Oct_10_1503,exp1,2021.2.3,60.02984683988535,
,,,,,,,,,,,,,,,,4,8.95,9.65,10.35,11.05,0,0.7,0.6,0.1,2.1999999999999997,10,initial,36.05,323,348,373,398,0,9,9,9,9,0,,,,,2,0,2,0,0,23,23,24,,,,,num_3,0.7311779999999999,num_3,0.3,1.3,0.15000000000000002,1.15,5.40644,41.44937,return,3.3256017999992764,,,,,,,14,21,female,up_down_width,2023_Oct_10_1503,exp1,2021.2.3,60.02984683988535,
,,,,,,,,,,,,,,,,4,9.1,9.7,10.3,10.9,0,0.5999999999999999,0.3499999999999999,0.25,2.05,10,match,36.05,328,350,371,393,0,9,9,9,9,0,,,,,2,0,2,0,0,24,24,15,,,,,num_4,0.8621161999999458,num_4,0.4,0.6,0.20000000000000007,0.8,7.20859,28.83434,return,2.362376299999596,,,,,,,14,21,female,up_down_width,2023_Oct_10_1503,exp1,2021.2.3,60.02984683988535,
,,,,,,,,,,,,,,,,3,8.6,10,11.4,0,0,1.4,1.2999999999999998,0.1,2.9,10,match,36.05,310,361,411,0,0,9,9,9,0,0,,,,,2,0,2,0,0,25,25,43,,,,,num_2,0.744506399999409,num_2,0.15,1.6,0.15,3.2,5.40644,115.33737,return,4.96940799999993,,,,,,,14,21,female,up_down_width,2023_Oct_10_1503,exp1,2021.2.3,60.02984683988535,
,,,,,,,,,,,,,,,,5,8.65,9.325,10,10.675,11.35,0.675,0.275,0.4,3.1,10,match,36.05,312,336,361,385,409,9,9,9,9,9,,,,,2,0,2,0,0,26,26,35,,,,,num_4,0.7900564999999915,num_4,0.2,1.0,0.44999999999999996,0.8,16.21932,28.83434,return,3.7111713000003874,,,,,,,14,21,female,up_down_width,2023_Oct_10_1503,exp1,2021.2.3,60.02984683988535,
,,,,,,,,,,,,,,,,4,9.3,9.766666666666667,10.233333333333333,10.7,0,0.4666666666666667,0.06666666666666665,0.4,1.8,10,match,36.05,335,352,369,386,0,9,9,9,9,0,,,,,2,0,2,0,0,27,27,11,,,,,num_4,0.7647016999999323,num_4,0.15,1.0,0.3,0.5,10.81288,18.02146,return,4.857059099999788,,,,,,,14,21,female,up_down_width,2023_Oct_10_1503,exp1,2021.2.3,60.02984683988535,
,,,,,,,,,,,,,,,,5,9,9.5,10,10.5,11,0.5,0.25,0.25,2.25,10,initial,36.05,324,342,361,379,397,9,9,9,9,9,,,,,2,0,2,0,0,28,28,38,,,,,num_4,0.744792100000268,num_4,0.1,1.2,0.3,0.5,10.81288,18.02146,return,3.5944400999997015,,,,,,,14,21,female,up_down_width,2023_Oct_10_1503,exp1,2021.2.3,60.02984683988535,
,,,,,,,,,,,,,,,,3,9.5,10,10.5,0,0,0.5,0.4,0.1,1.1,10,initial,36.05,342,361,379,0,0,9,9,9,0,0,,,,,2,0,2,0,0,29,29,0,,,,,num_2,1.2867363000004843,num_2,0.3,1.6,0.3,0.6,10.81288,21.62576,return,3.729717199999868,,,,,,,14,21,female,up_down_width,2023_Oct_10_1503,exp1,2021.2.3,60.02984683988535,
,,,,,,,,,,,,,,,,5,8.2,9.1,10,10.9,11.8,0.9,0.8,0.1,3.7,10,initial,36.05,296,328,361,393,425,9,9,9,9,9,,,,,2,0,2,0,0,30,30,48,,,,,num_4,1.4233197999992626,num_4,0.2,0.6,0.15000000000000002,1.3,5.40644,46.85581,return,2.3568035000007512,,,,,,,14,21,female,up_down_width,2023_Oct_10_1503,exp1,2021.2.3,60.02984683988535,
,,,,,,,,,,,,,,,,4,9.25,9.75,10.25,10.75,0,0.5,0.4,0.1,1.6,10,initial,36.05,333,351,370,388,0,9,9,9,9,0,,,,,2,0,2,0,0,31,31,18,,,,,num_3,0.7912906999999905,num_3,0.15,0.7,0.15,1.35,5.40644,48.65795,return,3.46172420000039,,,,,,,14,21,female,up_down_width,2023_Oct_10_1503,exp1,2021.2.3,60.02984683988535,
,,,,,,,,,,,,,,,,5,8.65,9.325,10,10.675,11.35,0.675,0.42500000000000004,0.25,2.95,10,match,36.05,312,336,361,385,409,9,9,9,9,9,,,,,2,0,2,0,0,32,32,33,,,,,num_4,0.7350265000004583,num_4,0.2,0.6,0.15000000000000002,1.2,5.40644,43.25151,return,2.271716799999922,,,,,,,14,21,female,up_down_width,2023_Oct_10_1503,exp1,2021.2.3,60.02984683988535,
,,,,,,,,,,,,,,,,5,8.95,9.475,10,10.525,11.05,0.525,0.275,0.25,2.35,10,match,36.05,323,342,361,379,398,9,9,9,9,9,,,,,2,0,2,0,0,33,33,27,,,,,num_4,0.94059340000058,num_4,0.35,0.9,0.2,0.9,7.20859,32.43864,return,2.6461408000004667,,,,,,,14,21,female,up_down_width,2023_Oct_10_1503,exp1,2021.2.3,60.02984683988535,
,,,,,,,,,,,,,,,,5,9.25,9.625,10,10.375,10.75,0.375,0.125,0.25,1.75,10,match,36.05,333,347,361,374,388,9,9,9,9,9,,,,,2,0,2,0,0,34,34,21,,,,,num_4,0.7722009999997681,num_4,0.25,1.0,0.3,0.5,10.81288,18.02146,return,3.2376080999993064,,,,,,,14,21,female,up_down_width,2023_Oct_10_1503,exp1,2021.2.3,60.02984683988535,
,,,,,,,,,,,,,,,,3,9.1,10,10.9,0,0,0.9,0.8,0.1,1.9000000000000001,10,initial,36.05,328,361,393,0,0,9,9,9,0,0,,,,,2,0,2,0,0,35,35,12,,,,,num_3,0.9333602999995492,num_3,0.3,0.4,0.10000000000000002,0.85,3.60429,30.63649,return,3.3565926999999647,,,,,,,14,21,female,up_down_width,2023_Oct_10_1503,exp1,2021.2.3,60.02984683988535,
,,,,,,,,,,,,,,,,5,8.65,9.325,10,10.675,11.35,0.6749999999999999,0.575,0.1,2.8,10,match,36.05,312,336,361,385,409,9,9,9,9,9,,,,,2,0,2,0,0,36,36,31,,,,,num_4,0.6735373000001346,num_4,0.35,1.1,0.15000000000000002,0.8,5.40644,28.83434,return,1.9081452999998874,,,,,,,14,21,female,up_down_width,2023_Oct_10_1503,exp1,2021.2.3,60.02984683988535,
,,,,,,,,,,,,,,,,5,9,9.5,10,10.5,11,0.5,0.09999999999999998,0.4,2.4,10,initial,36.05,324,342,361,379,397,9,9,9,9,9,,,,,2,0,2,0,0,37,37,40,,,,,num_4,0.7796565999997256,num_4,0.3,1.0,0.3,0.5,10.81288,18.02146,return,2.0434435999995912,,,,,,,14,21,female,up_down_width,2023_Oct_10_1503,exp1,2021.2.3,60.02984683988535,
,,,,,,,,,,,,,,,,5,8.2,9.1,10,10.9,11.8,0.9,0.5,0.4,4,10,initial,36.05,296,328,361,393,425,9,9,9,9,9,,,,,2,0,2,0,0,38,38,52,,,,,num_4,0.7739644999992379,num_4,0.2,1.2,0.35,0.7,12.61502,25.23005,return,2.2303466000003027,,,,,,,14,21,female,up_down_width,2023_Oct_10_1503,exp1,2021.2.3,60.02984683988535,
,,,,,,,,,,,,,,,,4,9.1,9.7,10.3,10.9,0,0.6,0.5,0.1,1.9,10,match,36.05,328,350,371,393,0,9,9,9,9,0,,,,,2,0,2,0,0,39,39,13,,,,,num_4,0.9213073000000804,num_4,0.4,1.1,0.15000000000000008,0.6,5.40644,21.62576,return,2.6911055999999007,,,,,,,14,21,female,up_down_width,2023_Oct_10_1503,exp1,2021.2.3,60.02984683988535,
,,,,,,,,,,,,,,,,3,9.3,10,10.7,0,0,0.7,0.6,0.1,1.5,10,initial,36.05,335,361,386,0,0,9,9,9,0,0,,,,,2,0,2,0,0,40,40,6,,,,,num_2,0.7240952000001926,num_2,0.25,1.6,0.15000000000000002,1.0,5.40644,36.04293,return,2.327052399999957,,,,,,,14,21,female,up_down_width,2023_Oct_10_1503,exp1,2021.2.3,60.02984683988535,
,,,,,,,,,,,,,,,,4,8.65,9.55,10.45,11.35,0,0.9,0.8,0.1,2.8000000000000003,10,initial,36.05,312,344,377,409,0,9,9,9,9,0,,,,,2,0,2,0,0,41,41,30,,,,,num_3,0.7095726000006835,num_3,0.2,1.3,0.15000000000000002,1.35,5.40644,48.65795,return,1.559653000000253,,,,,,,14,21,female,up_down_width,2023_Oct_10_1503,exp1,2021.2.3,60.02984683988535,
,,,,,,,,,,,,,,,,4,9.3,9.766666666666667,10.233333333333333,10.7,0,0.4666666666666667,0.3666666666666667,0.1,1.5,10,match,36.05,335,352,369,386,0,9,9,9,9,0,,,,,2,0,2,0,0,42,42,7,,,,,num_4,0.8261329000006299,num_4,0.35,1.1,0.15000000000000002,0.6,5.40644,21.62576,return,2.1843250000001717,,,,,,,14,21,female,up_down_width,2023_Oct_10_1503,exp1,2021.2.3,60.02984683988535,
,,,,,,,,,,,,,,,,5,9.25,9.625,10,10.375,10.75,0.375,0.275,0.1,1.6,10,match,36.05,333,347,361,374,388,9,9,9,9,9,,,,,2,0,2,0,0,43,43,19,,,,,num_4,1.027355300000636,num_4,0.45,1.2,0.15000000000000008,0.5,5.40644,18.02146,return,2.7474701999999525,,,,,,,14,21,female,up_down_width,2023_Oct_10_1503,exp1,2021.2.3,60.02984683988535,
,,,,,,,,,,,,,,,,3,8.6,10,11.4,0,0,1.4,1.15,0.25,3.05,10,match,36.05,310,361,411,0,0,9,9,9,0,0,,,,,2,0,2,0,0,44,44,45,,,,,num_3,0.7500082000005932,num_3,0.3,0.4,0.25,1.45,9.01073,52.26225,return,5.02496229999997,,,,,,,14,21,female,up_down_width,2023_Oct_10_1503,exp1,2021.2.3,60.02984683988535,
,,,,,,,,,,,,,,,,4,9.3,9.766666666666667,10.233333333333333,10.7,0,0.4666666666666667,0.21666666666666665,0.25,1.65,10,match,36.05,335,352,369,386,0,9,9,9,9,0,,,,,2,0,2,0,0,45,45,9,,,,,num_3,0.8088195999998788,num_3,0.15,0.4,0.35,0.65,12.61502,23.4279,return,2.343445100000281,,,,,,,14,21,female,up_down_width,2023_Oct_10_1503,exp1,2021.2.3,60.02984683988535,
,,,,,,,,,,,,,,,,5,9,9.5,10,10.5,11,0.5,0.4,0.1,2.1,10,initial,36.05,324,342,361,379,397,9,9,9,9,9,,,,,2,0,2,0,0,46,46,36,,,,,num_4,0.6837568999999348,num_4,0.4,0.6,0.15000000000000008,0.7,5.40644,25.23005,return,1.7870806999999331,,,,,,,14,21,female,up_down_width,2023_Oct_10_1503,exp1,2021.2.3,60.02984683988535,
,,,,,,,,,,,,,,,,3,9,10,11,0,0,1,0.75,0.25,2.25,10,match,36.05,324,361,397,0,0,9,9,9,0,0,,,,,2,0,2,0,0,47,47,39,,,,,num_2,0.8757606999997734,num_2,0.45,1.6,0.25000000000000006,1.6,9.01073,57.66869,return,1.8156552999998894,,,,,,,14,21,female,up_down_width,2023_Oct_10_1503,exp1,2021.2.3,60.02984683988535,
,,,,,,,,,,,,,,,,5,8.95,9.475,10,10.525,11.05,0.525,0.42500000000000004,0.1,2.2,10,match,36.05,323,342,361,379,398,9,9,9,9,9,,,,,2,0,2,0,0,48,48,25,,,,,num_4,0.7373557999999321,num_4,0.25,1.0,0.2,0.6,7.20859,21.62576,return,2.372009800000342,,,,,,,14,21,female,up_down_width,2023_Oct_10_1503,exp1,2021.2.3,60.02984683988535,
,,,,,,,,,,,,,,,,3,9,10,11,0,0,1,0.9,0.1,2.1,10,match,36.05,324,361,397,0,0,9,9,9,0,0,,,,,2,0,2,0,0,49,49,37,,,,,num_2,0.6627127000001565,num_2,0.35,1.6,0.25,1.4,9.01073,50.4601,return,1.4681467999998858,,,,,,,14,21,female,up_down_width,2023_Oct_10_1503,exp1,2021.2.3,60.02984683988535,
,,,,,,,,,,,,,,,,3,8.2,10,11.8,0,0,1.8000000000000003,1.7000000000000002,0.1,3.7,10,match,36.05,296,361,425,0,0,9,9,9,0,0,,,,,2,0,2,0,0,50,50,49,,,,,num_2,0.6273711000003459,num_2,0.45,1.6,0.15000000000000008,2.3,5.40644,82.89874,return,2.345592900000156,,,,,,,14,21,female,up_down_width,2023_Oct_10_1503,exp1,2021.2.3,60.02984683988535,
,,,,,,,,,,,,,,,,5,8.95,9.475,10,10.525,11.05,0.525,0.125,0.4,2.5,10,match,36.05,323,342,361,379,398,9,9,9,9,9,,,,,2,0,2,0,0,51,51,29,,,,,num_4,0.7644034000004467,num_4,0.2,1.1,0.35,0.7,12.61502,25.23005,return,2.4931092000006174,,,,,,,14,21,female,up_down_width,2023_Oct_10_1503,exp1,2021.2.3,60.02984683988535,
,,,,,,,,,,,,,,,,4,9.25,9.75,10.25,10.75,0,0.5,0.09999999999999998,0.4,1.9,10,initial,36.05,333,351,370,388,0,9,9,9,9,0,,,,,2,0,2,0,0,52,52,22,,,,,num_4,0.8311558999994304,num_4,0.1,1.3,0.39999999999999997,0.6,14.41717,21.62576,return,3.2478535000000193,,,,,,,14,21,female,up_down_width,2023_Oct_10_1503,exp1,2021.2.3,60.02984683988535,
,,,,,,,,,,,,,,,,4,8.95,9.65,10.35,11.05,0,0.7,0.44999999999999996,0.25,2.3499999999999996,10,initial,36.05,323,348,373,398,0,9,9,9,9,0,,,,,2,0,2,0,0,53,53,26,,,,,num_4,0.7381467999994129,num_4,0.45,0.6,0.25000000000000006,0.6,9.01073,21.62576,return,1.4755644999995638,,,,,,,14,21,female,up_down_width,2023_Oct_10_1503,exp1,2021.2.3,60.02984683988535,
,,,,,,,,,,,,,,,,,,,,,,,,,,,,,,,,,,,,,,,,,,,2,0,2,0,,,,,,,,,,,,,,,,,,,,,,1606.6959092000006,None,1606.6959092000006,None,14,21,female,up_down_width,2023_Oct_10_1503,exp1,2021.2.3,60.02984683988535,
,,,,,,,,,,,,,,,,3,8.525,10,11.475,0,0,1.475,1.225,0.25,3.2,10,match,36.05,307,361,414,0,0,9,9,9,0,0,,,,,3,0,3,0,0,0,0,47,,,,,num_3,0.6406053000000611,num_3,0.3,0.5,0.25,1.15,9.01073,41.44937,return,3.2842891000000236,,,,,,,14,21,female,up_down_width,2023_Oct_10_1503,exp1,2021.2.3,60.02984683988535,
,,,,,,,,,,,,,,,,3,8.2,10,11.8,0,0,1.8,1.55,0.25,3.85,10,match,36.05,296,361,425,0,0,9,9,9,0,0,,,,,3,0,3,0,0,1,1,51,,,,,num_3,0.8152429000001575,num_3,0.25,1.2,0.25,1.65,9.01073,59.47083,return,1.7249623000006977,,,,,,,14,21,female,up_down_width,2023_Oct_10_1503,exp1,2021.2.3,60.02984683988535,
,,,,,,,,,,,,,,,,5,8.65,9.325,10,10.675,11.35,0.675,0.275,0.4,3.1,10,match,36.05,312,336,361,385,409,9,9,9,9,9,,,,,3,0,3,0,0,2,2,35,,,,,num_4,0.7774605000004158,num_4,0.25,0.4,0.25,1.2,9.01073,43.25151,return,1.9293670000006387,,,,,,,14,21,female,up_down_width,2023_Oct_10_1503,exp1,2021.2.3,60.02984683988535,
,,,,,,,,,,,,,,,,5,8.2,9.1,10,10.9,11.8,0.9,0.5,0.4,4,10,initial,36.05,296,328,361,393,425,9,9,9,9,9,,,,,3,0,3,0,0,3,3,52,,,,,num_4,0.8629422000003615,num_4,0.3,0.6,0.3,1.2,10.81288,43.25151,return,3.500521099999787,,,,,,,14,21,female,up_down_width,2023_Oct_10_1503,exp1,2021.2.3,60.02984683988535,
,,,,,,,,,,,,,,,,4,8.65,9.55,10.45,11.35,0,0.9,0.8,0.1,2.8000000000000003,10,initial,36.05,312,344,377,409,0,9,9,9,9,0,,,,,3,0,3,0,0,4,4,30,,,,,num_3,0.6263168000004953,num_3,0.35,0.8,0.15000000000000002,1.2,5.40644,43.25151,return,4.9034529000000475,,,,,,,14,21,female,up_down_width,2023_Oct_10_1503,exp1,2021.2.3,60.02984683988535,
,,,,,,,,,,,,,,,,5,8.6,9.3,10,10.7,11.4,0.7,0.44999999999999996,0.25,3.05,10,initial,36.05,310,335,361,386,411,9,9,9,9,9,,,,,3,0,3,0,0,5,5,44,,,,,num_4,0.714833500000168,num_4,0.25,0.8,0.2,0.9,7.20859,32.43864,return,3.1823722000008274,,,,,,,14,21,female,up_down_width,2023_Oct_10_1503,exp1,2021.2.3,60.02984683988535,
,,,,,,,,,,,,,,,,4,9.25,9.75,10.25,10.75,0,0.5,0.4,0.1,1.6,10,initial,36.05,333,351,370,388,0,9,9,9,9,0,,,,,3,0,3,0,0,6,6,18,,,,,num_4,0.9430103999993662,num_4,0.45,1.1,0.15000000000000008,0.6,5.40644,21.62576,return,3.0491512999997212,,,,,,,14,21,female,up_down_width,2023_Oct_10_1503,exp1,2021.2.3,60.02984683988535,
,,,,,,,,,,,,,,,,5,8.2,9.1,10,10.9,11.8,0.9,0.65,0.25,3.85,10,initial,36.05,296,328,361,393,425,9,9,9,9,9,,,,,3,0,3,0,0,7,7,50,,,,,num_4,0.7048462000002473,num_4,0.45,1.3,0.25000000000000006,0.8,9.01073,28.83434,return,4.275506799999675,,,,,,,14,21,female,up_down_width,2023_Oct_10_1503,exp1,2021.2.3,60.02984683988535,
,,,,,,,,,,,,,,,,3,9,10,11,0,0,1,0.9,0.1,2.1,10,match,36.05,324,361,397,0,0,9,9,9,0,0,,,,,3,0,3,0,0,8,8,37,,,,,num_3,0.744587600000159,num_3,0.25,0.7,0.15000000000000002,1.1,5.40644,39.64722,return,1.8816419000004316,,,,,,,14,21,female,up_down_width,2023_Oct_10_1503,exp1,2021.2.3,60.02984683988535,
,,,,,,,,,,,,,,,,4,9.25,9.75,10.25,10.75,0,0.5,0.25,0.25,1.75,10,initial,36.05,333,351,370,388,0,9,9,9,9,0,,,,,3,0,3,0,0,9,9,20,,,,,num_3,0.6614583000000493,num_3,0.3,1.1,0.3,0.7,10.81288,25.23005,return,2.9842610999994577,,,,,,,14,21,female,up_down_width,2023_Oct_10_1503,exp1,2021.2.3,60.02984683988535,
,,,,,,,,,,,,,,,,3,9.3,10,10.7,0,0,0.7,0.6,0.1,1.5,10,initial,36.05,335,361,386,0,0,9,9,9,0,0,,,,,3,0,3,0,0,10,10,6,,,,,num_2,0.8054018000002543,num_2,0.45,1.6,0.20000000000000007,1.2,7.20859,43.25151,return,4.033502399999634,,,,,,,14,21,female,up_down_width,2023_Oct_10_1503,exp1,2021.2.3,60.02984683988535,
,,,,,,,,,,,,,,,,4,9.25,9.75,10.25,10.75,0,0.5,0.09999999999999998,0.4,1.9,10,initial,36.05,333,351,370,388,0,9,9,9,9,0,,,,,3,0,3,0,0,11,11,22,,,,,num_4,0.8596374999997352,num_4,0.25,1.1,0.25,0.5,9.01073,18.02146,return,2.0714606000001368,,,,,,,14,21,female,up_down_width,2023_Oct_10_1503,exp1,2021.2.3,60.02984683988535,
,,,,,,,,,,,,,,,,5,9,9.5,10,10.5,11,0.5,0.09999999999999998,0.4,2.4,10,initial,36.05,324,342,361,379,397,9,9,9,9,9,,,,,3,0,3,0,0,12,12,40,,,,,num_4,0.7642749999995431,num_4,0.2,1.1,0.3,0.5,10.81288,18.02146,return,2.414016200000333,,,,,,,14,21,female,up_down_width,2023_Oct_10_1503,exp1,2021.2.3,60.02984683988535,
,,,,,,,,,,,,,,,,3,9.1,10,10.9,0,0,0.9,0.5,0.4,2.2,10,initial,36.05,328,361,393,0,0,9,9,9,0,0,,,,,3,0,3,0,0,13,13,16,,,,,num_3,0.670817100000022,num_3,0.3,0.8,0.35,0.85,12.61502,30.63649,return,3.0582801000000472,,,,,,,14,21,female,up_down_width,2023_Oct_10_1503,exp1,2021.2.3,60.02984683988535,
,,,,,,,,,,,,,,,,5,9.175,9.5875,10,10.4125,10.825,0.4125,0.16249999999999998,0.25,1.9,10,match,36.05,331,346,361,375,390,9,9,9,9,9,,,,,3,0,3,0,0,14,14,23,,,,,num_4,0.6987435999999434,num_4,0.35,0.4,0.25,0.6,9.01073,21.62576,return,1.8693246000002546,,,,,,,14,21,female,up_down_width,2023_Oct_10_1503,exp1,2021.2.3,60.02984683988535,
,,,,,,,,,,,,,,,,4,9.5,9.833333333333334,10.166666666666666,10.5,0,0.3333333333333333,0.08333333333333333,0.25,1.25,10,match,36.05,342,354,367,379,0,9,9,9,9,0,,,,,3,0,3,0,0,15,15,3,,,,,num_3,1.0282174999993003,num_3,0.3,1.1,0.25,0.45,9.01073,16.21932,return,4.614729599999919,,,,,,,14,21,female,up_down_width,2023_Oct_10_1503,exp1,2021.2.3,60.02984683988535,
,,,,,,,,,,,,,,,,3,9.5,10,10.5,0,0,0.5,0.09999999999999998,0.4,1.4000000000000001,10,initial,36.05,342,361,379,0,0,9,9,9,0,0,,,,,3,0,3,0,0,16,16,4,,,,,num_3,0.8238546000002316,num_3,0.4,0.6,0.25000000000000006,0.45,9.01073,16.21932,return,3.5416060000006837,,,,,,,14,21,female,up_down_width,2023_Oct_10_1503,exp1,2021.2.3,60.02984683988535,
,,,,,,,,,,,,,,,,3,9.3,10,10.7,0,0,0.7,0.29999999999999993,0.4,1.8,10,initial,36.05,335,361,386,0,0,9,9,9,0,0,,,,,3,0,3,0,0,17,17,10,,,,,num_2,0.6447458000002371,num_2,0.45,1.6,0.4,0.7,14.41717,25.23005,return,4.503488399999696,,,,,,,14,21,female,up_down_width,2023_Oct_10_1503,exp1,2021.2.3,60.02984683988535,
,,,,,,,,,,,,,,,,5,8.95,9.475,10,10.525,11.05,0.525,0.125,0.4,2.5,10,match,36.05,323,342,361,379,398,9,9,9,9,9,,,,,3,0,3,0,0,18,18,29,,,,,num_4,0.8062052999994194,num_4,0.2,0.8,0.3,0.5,10.81288,18.02146,return,3.8302505999999994,,,,,,,14,21,female,up_down_width,2023_Oct_10_1503,exp1,2021.2.3,60.02984683988535,
,,,,,,,,,,,,,,,,4,9.1,9.7,10.3,10.9,0,0.5999999999999999,0.3499999999999999,0.25,2.05,10,match,36.05,328,350,371,393,0,9,9,9,9,0,,,,,3,0,3,0,0,19,19,15,,,,,num_4,0.7541222999998354,num_4,0.15,1.0,0.3,0.8,10.81288,28.83434,return,3.3441721999997753,,,,,,,14,21,female,up_down_width,2023_Oct_10_1503,exp1,2021.2.3,60.02984683988535,
,,,,,,,,,,,,,,,,3,8.6,10,11.4,0,0,1.4,1.2999999999999998,0.1,2.9,10,match,36.05,310,361,411,0,0,9,9,9,0,0,,,,,3,0,3,0,0,20,20,43,,,,,num_2,0.6455207999997583,num_2,0.4,1.6,0.15000000000000008,2.2,5.40644,79.29444,return,3.7717760999994425,,,,,,,14,21,female,up_down_width,2023_Oct_10_1503,exp1,2021.2.3,60.02984683988535,
,,,,,,,,,,,,,,,,4,8.95,9.65,10.35,11.05,0,0.7,0.44999999999999996,0.25,2.3499999999999996,10,initial,36.05,323,348,373,398,0,9,9,9,9,0,,,,,3,0,3,0,0,21,21,26,,,,,num_2,1.204251000000113,num_2,0.2,1.6,0.3,1.5,10.81288,54.06439,return,2.0410839999995005,,,,,,,14,21,female,up_down_width,2023_Oct_10_1503,exp1,2021.2.3,60.02984683988535,
,,,,,,,,,,,,,,,,4,9.425,9.808333333333334,10.191666666666666,10.575,0,0.3833333333333333,0.1333333333333333,0.25,1.4,10,match,36.05,340,354,367,381,0,9,9,9,9,0,,,,,3,0,3,0,0,22,22,5,,,,,num_3,0.7088732000001983,num_3,0.35,1.2,0.25,0.7,9.01073,25.23005,return,3.0945326000000932,,,,,,,14,21,female,up_down_width,2023_Oct_10_1503,exp1,2021.2.3,60.02984683988535,
,,,,,,,,,,,,,,,,4,8.65,9.55,10.45,11.35,0,0.9,0.5,0.4,3.1,10,initial,36.05,312,344,377,409,0,9,9,9,9,0,,,,,3,0,3,0,0,23,23,34,,,,,num_4,0.850061099999948,num_4,0.3,0.3,0.3,0.9,10.81288,32.43864,return,3.1352381999995487,,,,,,,14,21,female,up_down_width,2023_Oct_10_1503,exp1,2021.2.3,60.02984683988535,
,,,,,,,,,,,,,,,,3,9,10,11,0,0,0.9999999999999999,0.5999999999999999,0.4,2.4,10,match,36.05,324,361,397,0,0,9,9,9,0,0,,,,,3,0,3,0,0,24,24,41,,,,,num_3,1.0427716999993208,num_3,0.35,1.2,0.3,1.2,10.81288,43.25151,return,1.7045598000004247,,,,,,,14,21,female,up_down_width,2023_Oct_10_1503,exp1,2021.2.3,60.02984683988535,
,,,,,,,,,,,,,,,,3,9.5,10,10.5,0,0,0.5,0.4,0.1,1.1,10,initial,36.05,342,361,379,0,0,9,9,9,0,0,,,,,3,0,3,0,0,25,25,0,,,,,num_2,1.028898599999593,num_2,0.15,1.6,0.25,1.0,9.01073,36.04293,return,3.1006398999998055,,,,,,,14,21,female,up_down_width,2023_Oct_10_1503,exp1,2021.2.3,60.02984683988535,
,,,,,,,,,,,,,,,,4,8.95,9.65,10.35,11.05,0,0.7,0.29999999999999993,0.4,2.5,10,initial,36.05,323,348,373,398,0,9,9,9,9,0,,,,,3,0,3,0,0,26,26,28,,,,,num_3,0.9715978000003815,num_3,0.15,1.2,0.35,0.85,12.61502,30.63649,return,2.7365271999997276,,,,,,,14,21,female,up_down_width,2023_Oct_10_1503,exp1,2021.2.3,60.02984683988535,
,,,,,,,,,,,,,,,,5,8.65,9.325,10,10.675,11.35,0.6749999999999999,0.575,0.1,2.8,10,match,36.05,312,336,361,385,409,9,9,9,9,9,,,,,3,0,3,0,0,27,27,31,,,,,num_4,0.7907189999996262,num_4,0.35,0.9,0.15000000000000002,1.0,5.40644,36.04293,return,1.81360339999992,,,,,,,14,21,female,up_down_width,2023_Oct_10_1503,exp1,2021.2.3,60.02984683988535,
,,,,,,,,,,,,,,,,5,8.2,9.1,10,10.9,11.8,0.9,0.8,0.1,3.7,10,initial,36.05,296,328,361,393,425,9,9,9,9,9,,,,,3,0,3,0,0,28,28,48,,,,,num_4,0.7354379999997036,num_4,0.45,0.5,0.15000000000000008,1.5,5.40644,54.06439,return,2.895692600000075,,,,,,,14,21,female,up_down_width,2023_Oct_10_1503,exp1,2021.2.3,60.02984683988535,
,,,,,,,,,,,,,,,,5,8.95,9.475,10,10.525,11.05,0.525,0.42500000000000004,0.1,2.2,10,match,36.05,323,342,361,379,398,9,9,9,9,9,,,,,3,0,3,0,0,29,29,25,,,,,num_4,0.611604100000477,num_4,0.25,0.4,0.15000000000000002,1.1,5.40644,39.64722,return,3.0180413999996745,,,,,,,14,21,female,up_down_width,2023_Oct_10_1503,exp1,2021.2.3,60.02984683988535,
,,,,,,,,,,,,,,,,4,9.5,9.833333333333334,10.166666666666666,10.5,0,0.33333333333333337,0.23333333333333336,0.1,1.1,10,match,36.05,342,354,367,379,0,9,9,9,9,0,,,,,3,0,3,0,0,30,30,1,,,,,num_3,0.7540930000004664,num_3,0.3,0.8,0.2,0.6,7.20859,21.62576,return,2.003246100000979,,,,,,,14,21,female,up_down_width,2023_Oct_10_1503,exp1,2021.2.3,60.02984683988535,
,,,,,,,,,,,,,,,,3,9.3,10,10.7,0,0,0.7,0.44999999999999996,0.25,1.65,10,initial,36.05,335,361,386,0,0,9,9,9,0,0,,,,,3,0,3,0,0,31,31,8,,,,,num_3,0.643532400001277,num_3,0.3,0.5,0.3,0.9,10.81288,32.43864,return,1.6225579999991169,,,,,,,14,21,female,up_down_width,2023_Oct_10_1503,exp1,2021.2.3,60.02984683988535,
,,,,,,,,,,,,,,,,4,9.3,9.766666666666667,10.233333333333333,10.7,0,0.4666666666666667,0.3666666666666667,0.1,1.5,10,match,36.05,335,352,369,386,0,9,9,9,9,0,,,,,3,0,3,0,0,32,32,7,,,,,num_4,0.7944212000002153,num_4,0.25,0.8,0.10000000000000002,0.5,3.60429,18.02146,return,1.9142346999997244,,,,,,,14,21,female,up_down_width,2023_Oct_10_1503,exp1,2021.2.3,60.02984683988535,
,,,,,,,,,,,,,,,,3,8.2,10,11.8,0,0,1.8000000000000003,1.7000000000000002,0.1,3.7,10,match,36.05,296,361,425,0,0,9,9,9,0,0,,,,,3,0,3,0,0,33,33,49,,,,,num_3,0.5852080999993632,num_3,0.4,0.7,0.20000000000000007,1.3,7.20859,46.85581,return,4.175293799999054,,,,,,,14,21,female,up_down_width,2023_Oct_10_1503,exp1,2021.2.3,60.02984683988535,
,,,,,,,,,,,,,,,,5,8.6,9.3,10,10.7,11.4,0.7,0.6,0.1,2.9,10,initial,36.05,310,335,361,386,411,9,9,9,9,9,,,,,3,0,3,0,0,34,34,42,,,,,num_4,0.7739614999991318,num_4,0.1,0.3,0.1,1.1,3.60429,39.64722,return,1.8946840000007796,,,,,,,14,21,female,up_down_width,2023_Oct_10_1503,exp1,2021.2.3,60.02984683988535,
,,,,,,,,,,,,,,,,4,8.95,9.65,10.35,11.05,0,0.7,0.6,0.1,2.1999999999999997,10,initial,36.05,323,348,373,398,0,9,9,9,9,0,,,,,3,0,3,0,0,35,35,24,,,,,num_4,0.8166823999999906,num_4,0.1,1.3,0.1,0.8,3.60429,28.83434,return,1.7910796999985905,,,,,,,14,21,female,up_down_width,2023_Oct_10_1503,exp1,2021.2.3,60.02984683988535,
,,,,,,,,,,,,,,,,4,9.3,9.766666666666667,10.233333333333333,10.7,0,0.4666666666666667,0.21666666666666665,0.25,1.65,10,match,36.05,335,352,369,386,0,9,9,9,9,0,,,,,3,0,3,0,0,36,36,9,,,,,num_4,0.9282665000009729,num_4,0.35,0.8,0.2,0.5,7.20859,18.02146,return,1.7830620999993698,,,,,,,14,21,female,up_down_width,2023_Oct_10_1503,exp1,2021.2.3,60.02984683988535,
,,,,,,,,,,,,,,,,3,9.5,10,10.5,0,0,0.5,0.25,0.25,1.25,10,initial,36.05,342,361,379,0,0,9,9,9,0,0,,,,,3,0,3,0,0,37,37,2,,,,,num_3,0.6807602999997471,num_3,0.3,0.6,0.2,0.6,7.20859,21.62576,return,0.9904737999986537,,,,,,,14,21,female,up_down_width,2023_Oct_10_1503,exp1,2021.2.3,60.02984683988535,
,,,,,,,,,,,,,,,,5,8.6,9.3,10,10.7,11.4,0.7,0.29999999999999993,0.4,3.1999999999999997,10,initial,36.05,310,335,361,386,411,9,9,9,9,9,,,,,3,0,3,0,0,38,38,46,,,,,num_5,0.8236328000002686,num_5,0.25,0.3,0.25,0.65,9.01073,23.4279,return,3.7983203000003414,,,,,,,14,21,female,up_down_width,2023_Oct_10_1503,exp1,2021.2.3,60.02984683988535,
,,,,,,,,,,,,,,,,5,9.25,9.625,10,10.375,10.75,0.375,0.125,0.25,1.75,10,match,36.05,333,347,361,374,388,9,9,9,9,9,,,,,3,0,3,0,0,39,39,21,,,,,num_4,0.7421990999991976,num_4,0.3,0.7,0.3,0.6,10.81288,21.62576,return,1.8321016000008967,,,,,,,14,21,female,up_down_width,2023_Oct_10_1503,exp1,2021.2.3,60.02984683988535,
,,,,,,,,,,,,,,,,4,9.1,9.7,10.3,10.9,0,0.6000000000000001,0.20000000000000004,0.4,2.2,10,match,36.05,328,350,371,393,0,9,9,9,9,0,,,,,3,0,3,0,0,40,40,17,,,,,num_3,0.6450581999997667,num_3,0.3,1,0.35,0.85,12.61502,30.63649,return,1.4978684999987308,,,,,,,14,21,female,up_down_width,2023_Oct_10_1503,exp1,2021.2.3,60.02984683988535,
,,,,,,,,,,,,,,,,3,9,10,11,0,0,1,0.75,0.25,2.25,10,match,36.05,324,361,397,0,0,9,9,9,0,0,,,,,3,0,3,0,0,41,41,39,,,,,num_2,0.5607560000007652,num_2,0.45,1.6,0.35000000000000003,1.7,12.61502,61.27298,return,1.3218513000010716,,,,,,,14,21,female,up_down_width,2023_Oct_10_1503,exp1,2021.2.3,60.02984683988535,
,,,,,,,,,,,,,,,,5,9,9.5,10,10.5,11,0.5,0.4,0.1,2.1,10,initial,36.05,324,342,361,379,397,9,9,9,9,9,,,,,3,0,3,0,0,42,42,36,,,,,num_4,0.7115372999996907,num_4,0.2,0.6,0.2,1.1,7.20859,39.64722,return,1.084099799998512,,,,,,,14,21,female,up_down_width,2023_Oct_10_1503,exp1,2021.2.3,60.02984683988535,
,,,,,,,,,,,,,,,,3,9.1,10,10.9,0,0,0.9,0.8,0.1,1.9000000000000001,10,initial,36.05,328,361,393,0,0,9,9,9,0,0,,,,,3,0,3,0,0,43,43,12,,,,,num_2,1.2635676999998395,num_2,0.4,1.6,0.15000000000000008,1.9,5.40644,68.48156,return,1.7086484999999811,,,,,,,14,21,female,up_down_width,2023_Oct_10_1503,exp1,2021.2.3,60.02984683988535,
,,,,,,,,,,,,,,,,3,8.2,10,11.8,0,0,1.7999999999999998,1.4,0.4,4,10,match,36.05,296,361,425,0,0,9,9,9,0,0,,,,,3,0,3,0,0,44,44,53,,,,,num_2,0.6062498999999661,num_2,0.45,1.6,0.35000000000000003,2.8,12.61502,100.9202,return,2.4537252000009175,,,,,,,14,21,female,up_down_width,2023_Oct_10_1503,exp1,2021.2.3,60.02984683988535,
,,,,,,,,,,,,,,,,4,8.65,9.55,10.45,11.35,0,0.9,0.65,0.25,2.95,10,initial,36.05,312,344,377,409,0,9,9,9,9,0,,,,,3,0,3,0,0,45,45,32,,,,,num_3,0.7615384000000631,num_3,0.15,0.4,0.35,1.5,12.61502,54.06439,return,5.705608700000084,,,,,,,14,21,female,up_down_width,2023_Oct_10_1503,exp1,2021.2.3,60.02984683988535,
,,,,,,,,,,,,,,,,3,8.6,10,11.4,0,0,1.4,1.15,0.25,3.05,10,match,36.05,310,361,411,0,0,9,9,9,0,0,,,,,3,0,3,0,0,46,46,45,,,,,num_2,0.6382321000000957,num_2,0.15,1.6,0.35,2.0,12.61502,72.08586,return,1.987000099999932,,,,,,,14,21,female,up_down_width,2023_Oct_10_1503,exp1,2021.2.3,60.02984683988535,
,,,,,,,,,,,,,,,,5,8.95,9.475,10,10.525,11.05,0.525,0.275,0.25,2.35,10,match,36.05,323,342,361,379,398,9,9,9,9,9,,,,,3,0,3,0,0,47,47,27,,,,,num_4,0.8427680999993754,num_4,0.25,0.3,0.25,0.9,9.01073,32.43864,return,1.6884523999997327,,,,,,,14,21,female,up_down_width,2023_Oct_10_1503,exp1,2021.2.3,60.02984683988535,
,,,,,,,,,,,,,,,,5,9,9.5,10,10.5,11,0.5,0.25,0.25,2.25,10,initial,36.05,324,342,361,379,397,9,9,9,9,9,,,,,3,0,3,0,0,48,48,38,,,,,num_4,0.7650529999991704,num_4,0.3,1.1,0.3,0.7,10.81288,25.23005,return,1.8372122000000672,,,,,,,14,21,female,up_down_width,2023_Oct_10_1503,exp1,2021.2.3,60.02984683988535,
,,,,,,,,,,,,,,,,5,8.65,9.325,10,10.675,11.35,0.675,0.42500000000000004,0.25,2.95,10,match,36.05,312,336,361,385,409,9,9,9,9,9,,,,,3,0,3,0,0,49,49,33,,,,,num_5,0.8448048999998719,num_5,0.3,1.1,0.25,0.7,9.01073,25.23005,return,2.4426220000004832,,,,,,,14,21,female,up_down_width,2023_Oct_10_1503,exp1,2021.2.3,60.02984683988535,
,,,,,,,,,,,,,,,,3,9.1,10,10.9,0,0,0.9,0.65,0.25,2.05,10,initial,36.05,328,361,393,0,0,9,9,9,0,0,,,,,3,0,3,0,0,50,50,14,,,,,num_3,0.651008400000137,num_3,0.3,1,0.25,0.8,9.01073,28.83434,return,2.2231549999996787,,,,,,,14,21,female,up_down_width,2023_Oct_10_1503,exp1,2021.2.3,60.02984683988535,
,,,,,,,,,,,,,,,,4,9.3,9.766666666666667,10.233333333333333,10.7,0,0.4666666666666667,0.06666666666666665,0.4,1.8,10,match,36.05,335,352,369,386,0,9,9,9,9,0,,,,,3,0,3,0,0,51,51,11,,,,,num_3,0.8832877999993798,num_3,0.25,0.8,0.44999999999999996,0.7,16.21932,25.23005,return,2.5280008999998245,,,,,,,14,21,female,up_down_width,2023_Oct_10_1503,exp1,2021.2.3,60.02984683988535,
,,,,,,,,,,,,,,,,4,9.1,9.7,10.3,10.9,0,0.6,0.5,0.1,1.9,10,match,36.05,328,350,371,393,0,9,9,9,9,0,,,,,3,0,3,0,0,52,52,13,,,,,num_3,0.7167361000010715,num_3,0.3,0.5,0.15000000000000002,0.85,5.40644,30.63649,return,2.2714331000006496,,,,,,,14,21,female,up_down_width,2023_Oct_10_1503,exp1,2021.2.3,60.02984683988535,
,,,,,,,,,,,,,,,,5,9.25,9.625,10,10.375,10.75,0.375,0.275,0.1,1.6,10,match,36.05,333,347,361,374,388,9,9,9,9,9,,,,,3,0,3,0,0,53,53,19,,,,,num_5,0.8239945999994234,num_5,0.2,0.4,0.10000000000000002,0.4,3.60429,14.41717,return,1.8447935999993206,,,,,,,14,21,female,up_down_width,2023_Oct_10_1503,exp1,2021.2.3,60.02984683988535,
,,,,,,,,,,,,,,,,,,,,,,,,,,,,,,,,,,,,,,,,,,,3,0,3,0,,,,,,,,,,,,,,,,,,,,,,2005.0120668000009,None,2005.0120668000009,None,14,21,female,up_down_width,2023_Oct_10_1503,exp1,2021.2.3,60.02984683988535,
,,,,,,,,,,,,,,,,3,9.3,10,10.7,0,0,0.7,0.44999999999999996,0.25,1.65,10,initial,36.05,335,361,386,0,0,9,9,9,0,0,,,,,4,0,4,0,0,0,0,8,,,,,num_2,0.6421233999990363,num_2,0.35,1.6,0.25,1.1,9.01073,39.64722,return,2.952300099999775,,,,,,,14,21,female,up_down_width,2023_Oct_10_1503,exp1,2021.2.3,60.02984683988535,
,,,,,,,,,,,,,,,,5,8.6,9.3,10,10.7,11.4,0.7,0.29999999999999993,0.4,3.1999999999999997,10,initial,36.05,310,335,361,386,411,9,9,9,9,9,,,,,4,0,4,0,0,1,1,46,,,,,num_4,1.0024468999999954,num_4,0.4,1.2,0.35000000000000003,0.7,12.61502,25.23005,return,1.8562748999993346,,,,,,,14,21,female,up_down_width,2023_Oct_10_1503,exp1,2021.2.3,60.02984683988535,
,,,,,,,,,,,,,,,,5,8.95,9.475,10,10.525,11.05,0.525,0.42500000000000004,0.1,2.2,10,match,36.05,323,342,361,379,398,9,9,9,9,9,,,,,4,0,4,0,0,2,2,25,,,,,num_4,0.7175518000003649,num_4,0.35,0.7,0.15000000000000002,0.6,5.40644,21.62576,return,1.6319886000001134,,,,,,,14,21,female,up_down_width,2023_Oct_10_1503,exp1,2021.2.3,60.02984683988535,
,,,,,,,,,,,,,,,,4,8.65,9.55,10.45,11.35,0,0.9,0.65,0.25,2.95,10,initial,36.05,312,344,377,409,0,9,9,9,9,0,,,,,4,0,4,0,0,3,3,32,,,,,num_4,0.7418733000013162,num_4,0.15,1.2,0.2,0.5,7.20859,18.02146,return,2.327364299999317,,,,,,,14,21,female,up_down_width,2023_Oct_10_1503,exp1,2021.2.3,60.02984683988535,
,,,,,,,,,,,,,,,,5,8.65,9.325,10,10.675,11.35,0.675,0.42500000000000004,0.25,2.95,10,match,36.05,312,336,361,385,409,9,9,9,9,9,,,,,4,0,4,0,0,4,4,33,,,,,num_4,0.6304173999997147,num_4,0.25,0.8,0.2,0.8,7.20859,28.83434,return,0.956351499999073,,,,,,,14,21,female,up_down_width,2023_Oct_10_1503,exp1,2021.2.3,60.02984683988535,
,,,,,,,,,,,,,,,,4,9.25,9.75,10.25,10.75,0,0.5,0.09999999999999998,0.4,1.9,10,initial,36.05,333,351,370,388,0,9,9,9,9,0,,,,,4,0,4,0,0,5,5,22,,,,,num_3,1.1545069000003423,num_3,0.4,0.8,0.35000000000000003,0.85,12.61502,30.63649,return,1.2015281999993022,,,,,,,14,21,female,up_down_width,2023_Oct_10_1503,exp1,2021.2.3,60.02984683988535,
,,,,,,,,,,,,,,,,5,8.65,9.325,10,10.675,11.35,0.6749999999999999,0.575,0.1,2.8,10,match,36.05,312,336,361,385,409,9,9,9,9,9,,,,,4,0,4,0,0,6,6,31,,,,,num_4,0.6276976999997714,num_4,0.4,0.8,0.20000000000000007,0.9,7.20859,32.43864,return,1.6259049000000232,,,,,,,14,21,female,up_down_width,2023_Oct_10_1503,exp1,2021.2.3,60.02984683988535,
,,,,,,,,,,,,,,,,5,9,9.5,10,10.5,11,0.5,0.09999999999999998,0.4,2.4,10,initial,36.05,324,342,361,379,397,9,9,9,9,9,,,,,4,0,4,0,0,7,7,40,,,,,num_4,0.6729127999988123,num_4,0.35,0.6,0.25,0.8,9.01073,28.83434,return,1.4945428999999422,,,,,,,14,21,female,up_down_width,2023_Oct_10_1503,exp1,2021.2.3,60.02984683988535,
,,,,,,,,,,,,,,,,4,9.3,9.766666666666667,10.233333333333333,10.7,0,0.4666666666666667,0.06666666666666665,0.4,1.8,10,match,36.05,335,352,369,386,0,9,9,9,9,0,,,,,4,0,4,0,0,8,8,11,,,,,num_4,0.9336609999991197,num_4,0.35,0.9,0.3,0.4,10.81288,14.41717,return,2.720158600001014,,,,,,,14,21,female,up_down_width,2023_Oct_10_1503,exp1,2021.2.3,60.02984683988535,
,,,,,,,,,,,,,,,,3,9,10,11,0,0,0.9999999999999999,0.5999999999999999,0.4,2.4,10,match,36.05,324,361,397,0,0,9,9,9,0,0,,,,,4,0,4,0,0,9,9,41,,,,,num_2,0.6776487999995879,num_2,0.35,1.6,0.3,1.1,10.81288,39.64722,return,2.3303297000002203,,,,,,,14,21,female,up_down_width,2023_Oct_10_1503,exp1,2021.2.3,60.02984683988535,
,,,,,,,,,,,,,,,,4,9.5,9.833333333333334,10.166666666666666,10.5,0,0.3333333333333333,0.08333333333333333,0.25,1.25,10,match,36.05,342,354,367,379,0,9,9,9,9,0,,,,,4,0,4,0,0,10,10,3,,,,,num_3,0.5748569000006682,num_3,0.1,0.6,0.35,0.6,12.61502,21.62576,return,1.860496699999203,,,,,,,14,21,female,up_down_width,2023_Oct_10_1503,exp1,2021.2.3,60.02984683988535,
,,,,,,,,,,,,,,,,4,9.5,9.833333333333334,10.166666666666666,10.5,0,0.33333333333333337,0.23333333333333336,0.1,1.1,10,match,36.05,342,354,367,379,0,9,9,9,9,0,,,,,4,0,4,0,0,11,11,1,,,,,num_3,0.6428881000010733,num_3,0.2,0.4,0.15000000000000002,0.55,5.40644,19.82361,return,3.159773100000166,,,,,,,14,21,female,up_down_width,2023_Oct_10_1503,exp1,2021.2.3,60.02984683988535,
,,,,,,,,,,,,,,,,4,9.25,9.75,10.25,10.75,0,0.5,0.4,0.1,1.6,10,initial,36.05,333,351,370,388,0,9,9,9,9,0,,,,,4,0,4,0,0,12,12,18,,,,,num_3,0.651952700000038,num_3,0.15,0.9,0.15,0.5,5.40644,18.02146,return,2.977836899999602,,,,,,,14,21,female,up_down_width,2023_Oct_10_1503,exp1,2021.2.3,60.02984683988535,
,,,,,,,,,,,,,,,,3,9.5,10,10.5,0,0,0.5,0.4,0.1,1.1,10,initial,36.05,342,361,379,0,0,9,9,9,0,0,,,,,4,0,4,0,0,13,13,0,,,,,num_2,0.8124409000010928,num_2,0.2,1.6,0.10000000000000002,0.6,3.60429,21.62576,return,3.29020490000039,,,,,,,14,21,female,up_down_width,2023_Oct_10_1503,exp1,2021.2.3,60.02984683988535,
,,,,,,,,,,,,,,,,5,8.95,9.475,10,10.525,11.05,0.525,0.125,0.4,2.5,10,match,36.05,323,342,361,379,398,9,9,9,9,9,,,,,4,0,4,0,0,14,14,29,,,,,num_3,0.8741078999992169,num_3,0.3,0.4,0.3,0.85,10.81288,30.63649,return,2.262200199998915,,,,,,,14,21,female,up_down_width,2023_Oct_10_1503,exp1,2021.2.3,60.02984683988535,
,,,,,,,,,,,,,,,,4,8.65,9.55,10.45,11.35,0,0.9,0.8,0.1,2.8000000000000003,10,initial,36.05,312,344,377,409,0,9,9,9,9,0,,,,,4,0,4,0,0,15,15,30,,,,,num_4,0.9302029999998922,num_4,0.3,0.3,0.10000000000000002,1.0,3.60429,36.04293,return,2.3328653999997186,,,,,,,14,21,female,up_down_width,2023_Oct_10_1503,exp1,2021.2.3,60.02984683988535,
,,,,,,,,,,,,,,,,4,9.3,9.766666666666667,10.233333333333333,10.7,0,0.4666666666666667,0.21666666666666665,0.25,1.65,10,match,36.05,335,352,369,386,0,9,9,9,9,0,,,,,4,0,4,0,0,16,16,9,,,,,num_4,0.8635606999996526,num_4,0.1,1.2,0.25,0.7,9.01073,25.23005,return,2.9731375999999727,,,,,,,14,21,female,up_down_width,2023_Oct_10_1503,exp1,2021.2.3,60.02984683988535,
,,,,,,,,,,,,,,,,3,8.6,10,11.4,0,0,1.4,1.15,0.25,3.05,10,match,36.05,310,361,411,0,0,9,9,9,0,0,,,,,4,0,4,0,0,17,17,45,,,,,num_3,0.7854657999996562,num_3,0.4,0.7,0.25000000000000006,1.15,9.01073,41.44937,return,2.769483100000798,,,,,,,14,21,female,up_down_width,2023_Oct_10_1503,exp1,2021.2.3,60.02984683988535,
,,,,,,,,,,,,,,,,5,9.25,9.625,10,10.375,10.75,0.375,0.275,0.1,1.6,10,match,36.05,333,347,361,374,388,9,9,9,9,9,,,,,4,0,4,0,0,18,18,19,,,,,num_4,0.802828199999567,num_4,0.1,1.0,0.15000000000000002,0.5,5.40644,18.02146,return,2.4658513000013045,,,,,,,14,21,female,up_down_width,2023_Oct_10_1503,exp1,2021.2.3,60.02984683988535,
,,,,,,,,,,,,,,,,4,9.1,9.7,10.3,10.9,0,0.5999999999999999,0.3499999999999999,0.25,2.05,10,match,36.05,328,350,371,393,0,9,9,9,9,0,,,,,4,0,4,0,0,19,19,15,,,,,num_4,0.7756131999994977,num_4,0.3,1.0,0.2,0.5,7.20859,18.02146,return,1.7668214999994234,,,,,,,14,21,female,up_down_width,2023_Oct_10_1503,exp1,2021.2.3,60.02984683988535,
,,,,,,,,,,,,,,,,4,9.1,9.7,10.3,10.9,0,0.6000000000000001,0.20000000000000004,0.4,2.2,10,match,36.05,328,350,371,393,0,9,9,9,9,0,,,,,4,0,4,0,0,20,20,17,,,,,num_4,0.8332534000001033,num_4,0.25,1.2,0.35,0.6,12.61502,21.62576,return,2.6709488999986206,,,,,,,14,21,female,up_down_width,2023_Oct_10_1503,exp1,2021.2.3,60.02984683988535,
,,,,,,,,,,,,,,,,4,9.1,9.7,10.3,10.9,0,0.6,0.5,0.1,1.9,10,match,36.05,328,350,371,393,0,9,9,9,9,0,,,,,4,0,4,0,0,21,21,13,,,,,num_4,0.9016358999997465,num_4,0.15,0.4,0.15,0.9,5.40644,32.43864,return,1.1686876000003394,,,,,,,14,21,female,up_down_width,2023_Oct_10_1503,exp1,2021.2.3,60.02984683988535,
,,,,,,,,,,,,,,,,5,8.2,9.1,10,10.9,11.8,0.9,0.5,0.4,4,10,initial,36.05,296,328,361,393,425,9,9,9,9,9,,,,,4,0,4,0,0,22,22,52,,,,,num_4,0.8512546000001748,num_4,0.1,1.2,0.39999999999999997,0.8,14.41717,28.83434,return,2.5247457000004943,,,,,,,14,21,female,up_down_width,2023_Oct_10_1503,exp1,2021.2.3,60.02984683988535,
,,,,,,,,,,,,,,,,5,9.175,9.5875,10,10.4125,10.825,0.4125,0.16249999999999998,0.25,1.9,10,match,36.05,331,346,361,375,390,9,9,9,9,9,,,,,4,0,4,0,0,23,23,23,,,,,num_5,0.7789567999989231,num_5,0.3,1.3,0.2,0.4,7.20859,14.41717,return,4.106578799999625,,,,,,,14,21,female,up_down_width,2023_Oct_10_1503,exp1,2021.2.3,60.02984683988535,
,,,,,,,,,,,,,,,,5,8.2,9.1,10,10.9,11.8,0.9,0.65,0.25,3.85,10,initial,36.05,296,328,361,393,425,9,9,9,9,9,,,,,4,0,4,0,0,24,24,50,,,,,num_4,0.9789199999995617,num_4,0.2,1.0,0.2,0.7,7.20859,25.23005,return,1.9454783000001044,,,,,,,14,21,female,up_down_width,2023_Oct_10_1503,exp1,2021.2.3,60.02984683988535,
,,,,,,,,,,,,,,,,5,8.95,9.475,10,10.525,11.05,0.525,0.275,0.25,2.35,10,match,36.05,323,342,361,379,398,9,9,9,9,9,,,,,4,0,4,0,0,25,25,27,,,,,num_4,0.6776215999998385,num_4,0.2,0.6,0.25,0.6,9.01073,21.62576,return,1.2904550999992352,,,,,,,14,21,female,up_down_width,2023_Oct_10_1503,exp1,2021.2.3,60.02984683988535,
,,,,,,,,,,,,,,,,4,9.25,9.75,10.25,10.75,0,0.5,0.25,0.25,1.75,10,initial,36.05,333,351,370,388,0,9,9,9,9,0,,,,,4,0,4,0,0,26,26,20,,,,,num_3,0.7962611000002653,num_3,0.35,1.2,0.3,0.6,10.81288,21.62576,return,3.4026726000010967,,,,,,,14,21,female,up_down_width,2023_Oct_10_1503,exp1,2021.2.3,60.02984683988535,
,,,,,,,,,,,,,,,,3,8.2,10,11.8,0,0,1.7999999999999998,1.4,0.4,4,10,match,36.05,296,361,425,0,0,9,9,9,0,0,,,,,4,0,4,0,0,27,27,53,,,,,num_3,0.6149574999999459,num_3,0.15,0.6,0.44999999999999996,1.3,16.21932,46.85581,return,3.9165748999985226,,,,,,,14,21,female,up_down_width,2023_Oct_10_1503,exp1,2021.2.3,60.02984683988535,
,,,,,,,,,,,,,,,,5,9,9.5,10,10.5,11,0.5,0.25,0.25,2.25,10,initial,36.05,324,342,361,379,397,9,9,9,9,9,,,,,4,0,4,0,0,28,28,38,,,,,num_4,0.7128962999995565,num_4,0.35,1.2,0.3,0.6,10.81288,21.62576,return,2.20293109999875,,,,,,,14,21,female,up_down_width,2023_Oct_10_1503,exp1,2021.2.3,60.02984683988535,
,,,,,,,,,,,,,,,,5,9.25,9.625,10,10.375,10.75,0.375,0.125,0.25,1.75,10,match,36.05,333,347,361,374,388,9,9,9,9,9,,,,,4,0,4,0,0,29,29,21,,,,,num_4,0.7154706999990594,num_4,0.15,0.9,0.3,0.5,10.81288,18.02146,return,2.9897572999998374,,,,,,,14,21,female,up_down_width,2023_Oct_10_1503,exp1,2021.2.3,60.02984683988535,
,,,,,,,,,,,,,,,,4,8.95,9.65,10.35,11.05,0,0.7,0.44999999999999996,0.25,2.3499999999999996,10,initial,36.05,323,348,373,398,0,9,9,9,9,0,,,,,4,0,4,0,0,30,30,26,,,,,num_4,0.7549152000010508,num_4,0.4,0.5,0.20000000000000007,0.8,7.20859,28.83434,return,1.9074055000000953,,,,,,,14,21,female,up_down_width,2023_Oct_10_1503,exp1,2021.2.3,60.02984683988535,
,,,,,,,,,,,,,,,,3,8.525,10,11.475,0,0,1.475,1.225,0.25,3.2,10,match,36.05,307,361,414,0,0,9,9,9,0,0,,,,,4,0,4,0,0,31,31,47,,,,,num_2,0.9795314000002691,num_2,0.15,1.6,0.44999999999999996,1.8,16.21932,64.87727,return,2.4274506000001566,,,,,,,14,21,female,up_down_width,2023_Oct_10_1503,exp1,2021.2.3,60.02984683988535,
,,,,,,,,,,,,,,,,4,8.65,9.55,10.45,11.35,0,0.9,0.5,0.4,3.1,10,initial,36.05,312,344,377,409,0,9,9,9,9,0,,,,,4,0,4,0,0,32,32,34,,,,,num_4,0.7488074000011693,num_4,0.1,0.6,0.35,0.9,12.61502,32.43864,return,3.150621000000683,,,,,,,14,21,female,up_down_width,2023_Oct_10_1503,exp1,2021.2.3,60.02984683988535,
,,,,,,,,,,,,,,,,5,8.6,9.3,10,10.7,11.4,0.7,0.6,0.1,2.9,10,initial,36.05,310,335,361,386,411,9,9,9,9,9,,,,,4,0,4,0,0,33,33,42,,,,,num_4,0.7529683000011573,num_4,0.2,1.3,0.10000000000000002,0.9,3.60429,32.43864,return,1.921144699999786,,,,,,,14,21,female,up_down_width,2023_Oct_10_1503,exp1,2021.2.3,60.02984683988535,
,,,,,,,,,,,,,,,,3,9.1,10,10.9,0,0,0.9,0.8,0.1,1.9000000000000001,10,initial,36.05,328,361,393,0,0,9,9,9,0,0,,,,,4,0,4,0,0,34,34,12,,,,,num_3,0.7415149999997084,num_3,0.25,1.3,0.15000000000000002,0.85,5.40644,30.63649,return,2.7078129000001354,,,,,,,14,21,female,up_down_width,2023_Oct_10_1503,exp1,2021.2.3,60.02984683988535,
,,,,,,,,,,,,,,,,3,9.5,10,10.5,0,0,0.5,0.25,0.25,1.25,10,initial,36.05,342,361,379,0,0,9,9,9,0,0,,,,,4,0,4,0,0,35,35,2,,,,,num_2,0.6729479000005085,num_2,0.4,1.6,0.25000000000000006,0.8,9.01073,28.83434,return,2.418234900000243,,,,,,,14,21,female,up_down_width,2023_Oct_10_1503,exp1,2021.2.3,60.02984683988535,
,,,,,,,,,,,,,,,,4,8.95,9.65,10.35,11.05,0,0.7,0.6,0.1,2.1999999999999997,10,initial,36.05,323,348,373,398,0,9,9,9,9,0,,,,,4,0,4,0,0,36,36,24,,,,,num_4,0.8109739999999874,num_4,0.35,0.6,0.10000000000000002,0.8,3.60429,28.83434,return,2.328829100000803,,,,,,,14,21,female,up_down_width,2023_Oct_10_1503,exp1,2021.2.3,60.02984683988535,
,,,,,,,,,,,,,,,,5,9,9.5,10,10.5,11,0.5,0.4,0.1,2.1,10,initial,36.05,324,342,361,379,397,9,9,9,9,9,,,,,4,0,4,0,0,37,37,36,,,,,num_4,0.7715054999989661,num_4,0.3,0.6,0.05000000000000002,0.8,1.80215,28.83434,return,2.4349949000006745,,,,,,,14,21,female,up_down_width,2023_Oct_10_1503,exp1,2021.2.3,60.02984683988535,
,,,,,,,,,,,,,,,,3,8.6,10,11.4,0,0,1.4,1.2999999999999998,0.1,2.9,10,match,36.05,310,361,411,0,0,9,9,9,0,0,,,,,4,0,4,0,0,38,38,43,,,,,num_3,0.6481599999988248,num_3,0.1,1,0.1,1.45,3.60429,52.26225,return,2.734674900000755,,,,,,,14,21,female,up_down_width,2023_Oct_10_1503,exp1,2021.2.3,60.02984683988535,
,,,,,,,,,,,,,,,,4,8.95,9.65,10.35,11.05,0,0.7,0.29999999999999993,0.4,2.5,10,initial,36.05,323,348,373,398,0,9,9,9,9,0,,,,,4,0,4,0,0,39,39,28,,,,,num_4,0.7130942000003415,num_4,0.15,1.0,0.39999999999999997,0.7,14.41717,25.23005,return,2.556522299999415,,,,,,,14,21,female,up_down_width,2023_Oct_10_1503,exp1,2021.2.3,60.02984683988535,
,,,,,,,,,,,,,,,,3,9.5,10,10.5,0,0,0.5,0.09999999999999998,0.4,1.4000000000000001,10,initial,36.05,342,361,379,0,0,9,9,9,0,0,,,,,4,0,4,0,0,40,40,4,,,,,num_2,0.6254159000000072,num_2,0.4,1.6,0.30000000000000004,0.5,10.81288,18.02146,return,3.4798030000001745,,,,,,,14,21,female,up_down_width,2023_Oct_10_1503,exp1,2021.2.3,60.02984683988535,
,,,,,,,,,,,,,,,,3,9.1,10,10.9,0,0,0.9,0.5,0.4,2.2,10,initial,36.05,328,361,393,0,0,9,9,9,0,0,,,,,4,0,4,0,0,41,41,16,,,,,num_3,1.6530729999994946,num_3,0.45,1.1,0.35000000000000003,1.0,12.61502,36.04293,return,2.081662000000506,,,,,,,14,21,female,up_down_width,2023_Oct_10_1503,exp1,2021.2.3,60.02984683988535,
,,,,,,,,,,,,,,,,5,8.65,9.325,10,10.675,11.35,0.675,0.275,0.4,3.1,10,match,36.05,312,336,361,385,409,9,9,9,9,9,,,,,4,0,4,0,0,42,42,35,,,,,num_4,0.6825668999990739,num_4,0.4,0.9,0.4,0.9,14.41717,32.43864,return,1.4381342999986373,,,,,,,14,21,female,up_down_width,2023_Oct_10_1503,exp1,2021.2.3,60.02984683988535,
,,,,,,,,,,,,,,,,3,8.2,10,11.8,0,0,1.8000000000000003,1.7000000000000002,0.1,3.7,10,match,36.05,296,361,425,0,0,9,9,9,0,0,,,,,4,0,4,0,0,43,43,49,,,,,num_3,0.7013733999992837,num_3,0.15,1.3,0.09999999999999999,1.5,3.60429,54.06439,return,2.322203100000479,,,,,,,14,21,female,up_down_width,2023_Oct_10_1503,exp1,2021.2.3,60.02984683988535,
,,,,,,,,,,,,,,,,4,9.3,9.766666666666667,10.233333333333333,10.7,0,0.4666666666666667,0.3666666666666667,0.1,1.5,10,match,36.05,335,352,369,386,0,9,9,9,9,0,,,,,4,0,4,0,0,44,44,7,,,,,num_4,0.7629415999999765,num_4,0.4,1.2,0.15000000000000008,0.8,5.40644,28.83434,return,3.4026871000005485,,,,,,,14,21,female,up_down_width,2023_Oct_10_1503,exp1,2021.2.3,60.02984683988535,
,,,,,,,,,,,,,,,,3,9.3,10,10.7,0,0,0.7,0.29999999999999993,0.4,1.8,10,initial,36.05,335,361,386,0,0,9,9,9,0,0,,,,,4,0,4,0,0,45,45,10,,,,,num_2,0.5964367000015045,num_2,0.1,1.6,0.39999999999999997,0.8,14.41717,28.83434,return,3.6577890000007756,,,,,,,14,21,female,up_down_width,2023_Oct_10_1503,exp1,2021.2.3,60.02984683988535,
,,,,,,,,,,,,,,,,5,8.2,9.1,10,10.9,11.8,0.9,0.8,0.1,3.7,10,initial,36.05,296,328,361,393,425,9,9,9,9,9,,,,,4,0,4,0,0,46,46,48,,,,,num_5,0.843572600000698,num_5,0.3,1.3,0.15000000000000002,0.85,5.40644,30.63649,return,3.170785199999955,,,,,,,14,21,female,up_down_width,2023_Oct_10_1503,exp1,2021.2.3,60.02984683988535,
,,,,,,,,,,,,,,,,3,9,10,11,0,0,1,0.75,0.25,2.25,10,match,36.05,324,361,397,0,0,9,9,9,0,0,,,,,4,0,4,0,0,47,47,39,,,,,num_3,1.0248064999996132,num_3,0.1,1.1,0.3,1.2,10.81288,43.25151,return,2.6635053000009066,,,,,,,14,21,female,up_down_width,2023_Oct_10_1503,exp1,2021.2.3,60.02984683988535,
,,,,,,,,,,,,,,,,3,9.3,10,10.7,0,0,0.7,0.6,0.1,1.5,10,initial,36.05,335,361,386,0,0,9,9,9,0,0,,,,,4,0,4,0,0,48,48,6,,,,,num_2,0.7970248999990872,num_2,0.2,1.6,0.2,1.0,7.20859,36.04293,return,1.5827071000003343,,,,,,,14,21,female,up_down_width,2023_Oct_10_1503,exp1,2021.2.3,60.02984683988535,
,,,,,,,,,,,,,,,,3,9.1,10,10.9,0,0,0.9,0.65,0.25,2.05,10,initial,36.05,328,361,393,0,0,9,9,9,0,0,,,,,4,0,4,0,0,49,49,14,,,,,num_3,0.7357936999997037,num_3,0.3,0.5,0.25,1.05,9.01073,37.84507,return,2.753079699999944,,,,,,,14,21,female,up_down_width,2023_Oct_10_1503,exp1,2021.2.3,60.02984683988535,
,,,,,,,,,,,,,,,,4,9.425,9.808333333333334,10.191666666666666,10.575,0,0.3833333333333333,0.1333333333333333,0.25,1.4,10,match,36.05,340,354,367,381,0,9,9,9,9,0,,,,,4,0,4,0,0,50,50,5,,,,,num_4,0.8515356000007159,num_4,0.4,1.0,0.30000000000000004,0.5,10.81288,18.02146,return,1.889260199999626,,,,,,,14,21,female,up_down_width,2023_Oct_10_1503,exp1,2021.2.3,60.02984683988535,
,,,,,,,,,,,,,,,,5,8.6,9.3,10,10.7,11.4,0.7,0.44999999999999996,0.25,3.05,10,initial,36.05,310,335,361,386,411,9,9,9,9,9,,,,,4,0,4,0,0,51,51,44,,,,,num_5,0.813628100000642,num_5,0.35,1.3,0.2,0.65,7.20859,23.4279,return,3.340973300000769,,,,,,,14,21,female,up_down_width,2023_Oct_10_1503,exp1,2021.2.3,60.02984683988535,
,,,,,,,,,,,,,,,,3,9,10,11,0,0,1,0.9,0.1,2.1,10,match,36.05,324,361,397,0,0,9,9,9,0,0,,,,,4,0,4,0,0,52,52,37,,,,,num_3,0.7228615999993053,num_3,0.25,0.9,0.15000000000000002,1.0,5.40644,36.04293,return,1.7973670000010316,,,,,,,14,21,female,up_down_width,2023_Oct_10_1503,exp1,2021.2.3,60.02984683988535,
,,,,,,,,,,,,,,,,3,8.2,10,11.8,0,0,1.8,1.55,0.25,3.85,10,match,36.05,296,361,425,0,0,9,9,9,0,0,,,,,4,0,4,0,0,53,53,51,,,,,num_2,0.6695247999996354,num_2,0.15,1.6,0.25,1.6,9.01073,57.66869,return,11.27891279999858,,,,,,,14,21,female,up_down_width,2023_Oct_10_1503,exp1,2021.2.3,60.02984683988535,
,,,,,,,,,,,,,,,,,,,,,,,,,,,,,,,,,,,,,,,,,,,4,0,4,0,,,,,,,,,,,,,,,,,,,,,,2346.1450515000006,None,2346.1450515000006,None,14,21,female,up_down_width,2023_Oct_10_1503,exp1,2021.2.3,60.02984683988535,
,,,,,,,,,,,,,,,,5,8.65,9.325,10,10.675,11.35,0.675,0.275,0.4,3.1,10,match,36.05,312,336,361,385,409,9,9,9,9,9,,,,,5,0,5,0,0,0,0,35,,,,,num_4,1.3063277000001108,num_4,0.15,0.5,0.3,0.8,10.81288,28.83434,return,2.7880156000010174,,,,,,,14,21,female,up_down_width,2023_Oct_10_1503,exp1,2021.2.3,60.02984683988535,
,,,,,,,,,,,,,,,,3,9,10,11,0,0,1,0.9,0.1,2.1,10,match,36.05,324,361,397,0,0,9,9,9,0,0,,,,,5,0,5,0,0,1,1,37,,,,,num_3,0.6955730999998195,num_3,0.25,1,0.10000000000000002,1,3.60429,36.04293,return,1.3227141999996093,,,,,,,14,21,female,up_down_width,2023_Oct_10_1503,exp1,2021.2.3,60.02984683988535,
,,,,,,,,,,,,,,,,4,9.3,9.766666666666667,10.233333333333333,10.7,0,0.4666666666666667,0.3666666666666667,0.1,1.5,10,match,36.05,335,352,369,386,0,9,9,9,9,0,,,,,5,0,5,0,0,2,2,7,,,,,num_4,0.7803172999992967,num_4,0.15,0.7,0.09999999999999999,0.7,3.60429,25.23005,return,1.525165700000798,,,,,,,14,21,female,up_down_width,2023_Oct_10_1503,exp1,2021.2.3,60.02984683988535,
,,,,,,,,,,,,,,,,3,9,10,11,0,0,0.9999999999999999,0.5999999999999999,0.4,2.4,10,match,36.05,324,361,397,0,0,9,9,9,0,0,,,,,5,0,5,0,0,3,3,41,,,,,num_3,0.61031709999952,num_3,0.25,0.6,0.3,1.05,10.81288,37.84507,return,1.8354417999998986,,,,,,,14,21,female,up_down_width,2023_Oct_10_1503,exp1,2021.2.3,60.02984683988535,
,,,,,,,,,,,,,,,,4,9.25,9.75,10.25,10.75,0,0.5,0.25,0.25,1.75,10,initial,36.05,333,351,370,388,0,9,9,9,9,0,,,,,5,0,5,0,0,4,4,20,,,,,num_4,0.8064496000006329,num_4,0.4,0.6,0.25000000000000006,0.6,9.01073,21.62576,return,1.252445500000249,,,,,,,14,21,female,up_down_width,2023_Oct_10_1503,exp1,2021.2.3,60.02984683988535,
,,,,,,,,,,,,,,,,5,8.95,9.475,10,10.525,11.05,0.525,0.125,0.4,2.5,10,match,36.05,323,342,361,379,398,9,9,9,9,9,,,,,5,0,5,0,0,5,5,29,,,,,num_4,1.4276984999996785,num_4,0.45,0.8,0.35000000000000003,0.6,12.61502,21.62576,return,2.2664432000001398,,,,,,,14,21,female,up_down_width,2023_Oct_10_1503,exp1,2021.2.3,60.02984683988535,
,,,,,,,,,,,,,,,,5,8.6,9.3,10,10.7,11.4,0.7,0.29999999999999993,0.4,3.1999999999999997,10,initial,36.05,310,335,361,386,411,9,9,9,9,9,,,,,5,0,5,0,0,6,6,46,,,,,num_5,0.7896031999989646,num_5,0.1,0.9,0.3,0.55,10.81288,19.82361,return,2.9503205999990314,,,,,,,14,21,female,up_down_width,2023_Oct_10_1503,exp1,2021.2.3,60.02984683988535,
,,,,,,,,,,,,,,,,5,8.95,9.475,10,10.525,11.05,0.525,0.42500000000000004,0.1,2.2,10,match,36.05,323,342,361,379,398,9,9,9,9,9,,,,,5,0,5,0,0,7,7,25,,,,,num_5,0.7436393999996653,num_5,0.4,1.1,0.20000000000000007,0.55,7.20859,19.82361,return,3.641184099999009,,,,,,,14,21,female,up_down_width,2023_Oct_10_1503,exp1,2021.2.3,60.02984683988535,
,,,,,,,,,,,,,,,,5,8.65,9.325,10,10.675,11.35,0.6749999999999999,0.575,0.1,2.8,10,match,36.05,312,336,361,385,409,9,9,9,9,9,,,,,5,0,5,0,0,8,8,31,,,,,num_5,0.679608599999483,num_5,0.25,0.5,0.05000000000000002,0.65,1.80215,23.4279,return,1.6749430999989272,,,,,,,14,21,female,up_down_width,2023_Oct_10_1503,exp1,2021.2.3,60.02984683988535,
,,,,,,,,,,,,,,,,4,9.5,9.833333333333334,10.166666666666666,10.5,0,0.33333333333333337,0.23333333333333336,0.1,1.1,10,match,36.05,342,354,367,379,0,9,9,9,9,0,,,,,5,0,5,0,0,9,9,1,,,,,num_3,0.575365700000475,num_3,0.45,1.2,0.10000000000000007,0.35,3.60429,12.61502,return,5.6652641000000585,,,,,,,14,21,female,up_down_width,2023_Oct_10_1503,exp1,2021.2.3,60.02984683988535,
,,,,,,,,,,,,,,,,3,9.3,10,10.7,0,0,0.7,0.29999999999999993,0.4,1.8,10,initial,36.05,335,361,386,0,0,9,9,9,0,0,,,,,5,0,5,0,0,10,10,10,,,,,num_3,1.7326310000007652,num_3,0.25,1.2,0.44999999999999996,0.75,16.21932,27.0322,return,2.925942500000019,,,,,,,14,21,female,up_down_width,2023_Oct_10_1503,exp1,2021.2.3,60.02984683988535,
,,,,,,,,,,,,,,,,5,8.2,9.1,10,10.9,11.8,0.9,0.8,0.1,3.7,10,initial,36.05,296,328,361,393,425,9,9,9,9,9,,,,,5,0,5,0,0,11,11,48,,,,,num_5,0.7699293000005127,num_5,0.25,0.4,0.10000000000000002,0.85,3.60429,30.63649,return,3.554498200001035,,,,,,,14,21,female,up_down_width,2023_Oct_10_1503,exp1,2021.2.3,60.02984683988535,
,,,,,,,,,,,,,,,,5,9.25,9.625,10,10.375,10.75,0.375,0.275,0.1,1.6,10,match,36.05,333,347,361,374,388,9,9,9,9,9,,,,,5,0,5,0,0,12,12,19,,,,,num_4,0.8690310000001773,num_4,0.1,1.3,0.1,0.4,3.60429,14.41717,return,3.4896540000008827,,,,,,,14,21,female,up_down_width,2023_Oct_10_1503,exp1,2021.2.3,60.02984683988535,
,,,,,,,,,,,,,,,,5,8.95,9.475,10,10.525,11.05,0.525,0.275,0.25,2.35,10,match,36.05,323,342,361,379,398,9,9,9,9,9,,,,,5,0,5,0,0,13,13,27,,,,,num_5,0.8373499999997875,num_5,0.4,1.3,0.20000000000000007,0.55,7.20859,19.82361,return,4.512938200001372,,,,,,,14,21,female,up_down_width,2023_Oct_10_1503,exp1,2021.2.3,60.02984683988535,
,,,,,,,,,,,,,,,,3,9.5,10,10.5,0,0,0.5,0.09999999999999998,0.4,1.4000000000000001,10,initial,36.05,342,361,379,0,0,9,9,9,0,0,,,,,5,0,5,0,0,14,14,4,,,,,num_2,0.6629194999986794,num_2,0.45,1.6,0.30000000000000004,0.6,10.81288,21.62576,return,5.933818000001338,,,,,,,14,21,female,up_down_width,2023_Oct_10_1503,exp1,2021.2.3,60.02984683988535,
,,,,,,,,,,,,,,,,5,9,9.5,10,10.5,11,0.5,0.09999999999999998,0.4,2.4,10,initial,36.05,324,342,361,379,397,9,9,9,9,9,,,,,5,0,5,0,0,15,15,40,,,,,num_4,1.0707924999987881,num_4,0.4,0.5,0.35000000000000003,0.6,12.61502,21.62576,return,2.642157499998575,,,,,,,14,21,female,up_down_width,2023_Oct_10_1503,exp1,2021.2.3,60.02984683988535,
,,,,,,,,,,,,,,,,5,8.6,9.3,10,10.7,11.4,0.7,0.44999999999999996,0.25,3.05,10,initial,36.05,310,335,361,386,411,9,9,9,9,9,,,,,5,0,5,0,0,16,16,44,,,,,num_4,0.7372706000005564,num_4,0.45,0.6,0.30000000000000004,0.9,10.81288,32.43864,return,2.5947525999999925,,,,,,,14,21,female,up_down_width,2023_Oct_10_1503,exp1,2021.2.3,60.02984683988535,
,,,,,,,,,,,,,,,,4,9.5,9.833333333333334,10.166666666666666,10.5,0,0.3333333333333333,0.08333333333333333,0.25,1.25,10,match,36.05,342,354,367,379,0,9,9,9,9,0,,,,,5,0,5,0,0,17,17,3,,,,,num_3,0.7334336000003532,num_3,0.15,1.1,0.3,0.45,10.81288,16.21932,return,4.269746799998757,,,,,,,14,21,female,up_down_width,2023_Oct_10_1503,exp1,2021.2.3,60.02984683988535,
,,,,,,,,,,,,,,,,5,8.6,9.3,10,10.7,11.4,0.7,0.6,0.1,2.9,10,initial,36.05,310,335,361,386,411,9,9,9,9,9,,,,,5,0,5,0,0,18,18,42,,,,,num_5,0.7977383999987069,num_5,0.35,0.5,0.2,1.2,7.20859,43.25151,return,3.917840999998589,,,,,,,14,21,female,up_down_width,2023_Oct_10_1503,exp1,2021.2.3,60.02984683988535,
,,,,,,,,,,,,,,,,5,8.65,9.325,10,10.675,11.35,0.675,0.42500000000000004,0.25,2.95,10,match,36.05,312,336,361,385,409,9,9,9,9,9,,,,,5,0,5,0,0,19,19,33,,,,,num_4,0.6889957000003051,num_4,0.45,1.0,0.30000000000000004,1.1,10.81288,39.64722,return,1.589653700000781,,,,,,,14,21,female,up_down_width,2023_Oct_10_1503,exp1,2021.2.3,60.02984683988535,
,,,,,,,,,,,,,,,,4,9.3,9.766666666666667,10.233333333333333,10.7,0,0.4666666666666667,0.21666666666666665,0.25,1.65,10,match,36.05,335,352,369,386,0,9,9,9,9,0,,,,,5,0,5,0,0,20,20,9,,,,,num_4,0.9494274999997288,num_4,0.2,0.7,0.3,0.5,10.81288,18.02146,return,2.431425200000376,,,,,,,14,21,female,up_down_width,2023_Oct_10_1503,exp1,2021.2.3,60.02984683988535,
,,,,,,,,,,,,,,,,3,9,10,11,0,0,1,0.75,0.25,2.25,10,match,36.05,324,361,397,0,0,9,9,9,0,0,,,,,5,0,5,0,0,21,21,39,,,,,num_3,0.6282544000005146,num_3,0.25,0.8,0.25,1.2,9.01073,43.25151,return,1.8978953000005276,,,,,,,14,21,female,up_down_width,2023_Oct_10_1503,exp1,2021.2.3,60.02984683988535,
,,,,,,,,,,,,,,,,3,9.1,10,10.9,0,0,0.9,0.65,0.25,2.05,10,initial,36.05,328,361,393,0,0,9,9,9,0,0,,,,,5,0,5,0,0,22,22,14,,,,,num_3,0.8049661000004562,num_3,0.2,0.5,0.2,0.95,7.20859,34.24078,return,2.307341699999597,,,,,,,14,21,female,up_down_width,2023_Oct_10_1503,exp1,2021.2.3,60.02984683988535,
,,,,,,,,,,,,,,,,4,8.95,9.65,10.35,11.05,0,0.7,0.44999999999999996,0.25,2.3499999999999996,10,initial,36.05,323,348,373,398,0,9,9,9,9,0,,,,,5,0,5,0,0,23,23,26,,,,,num_4,0.8036248000007618,num_4,0.35,0.7,0.25,1.1,9.01073,39.64722,return,1.332680800000162,,,,,,,14,21,female,up_down_width,2023_Oct_10_1503,exp1,2021.2.3,60.02984683988535,
