amount_p,posx1_p,posx2_p,posx3_p,posx4_p,posx5_p,center_to_center_p,edge_to_edge_p,w_p,stim_lengt_p,eccentricity_p,line1_p,line2_p,line3_p,line4_p,line5_p,amount,posx1,posx2,posx3,posx4,posx5,center_to_center,edge_to_edge,w,stim_length,eccentricity,trial_type,deg_to_pix_index,posx1_in_pix,posx2_in_pix,posx3_in_pix,posx4_in_pix,posx5_in_pix,line1,line2,line3,line4,line5,trials.thisRepN,trials.thisTrialN,trials.thisN,trials.thisIndex,blocks.thisRepN,blocks.thisTrialN,blocks.thisN,blocks.thisIndex,loop.thisRepN,loop.thisTrialN,loop.thisN,loop.thisIndex,key_resp_3.keys,key_resp_3.rt,key_resp_3.started,key_resp_3.stopped,key_resp.keys,key_resp.rt,response,starting_width_deg,starting_space_deg,response_width_degree,response_spacing_degree,response_width_pixel,response_spacing_pixel,next_5.keys,next_5.rt,key_resp_4.keys,key_resp_4.rt,text_3.started,text_3.stopped,text_4.started,text_4.stopped,participant,age,gender,resp_group,date,expName,psychopyVersion,frameRate,
,,,,,,,,,,,,,,,,,,,,,,,,,,,,,,,,,,,,,,,,,,,,,,,,,,,c,44.26116080000065,65.01627979998011,None,,,,,,,,,,,,,,,,,,18,20,female,left_right_width,2023_Oct_18_1257,exp1,2021.2.3,59.96332642953104,
4,9.25,9.75,10.25,10.75,0,0.5,0.25,0.25,1.75,10,9,9,9,9,0,,,,,,,,,,,,,,,,,,,,,,,,0,0,0,4,,,,,,,,,,,,,num_3,1.4076134000206366,num_3,0.2,0.4,0.2,0.4,7.20859,14.41717,return,2.2463058999856003,,,,,,,18,20,female,left_right_width,2023_Oct_18_1257,exp1,2021.2.3,59.96332642953104,
3,8.2,10,11.8,0,0,1.7999999999999998,1.4,0.4,4,10,9,9,9,0,0,,,,,,,,,,,,,,,,,,,,,,,,0,1,1,2,,,,,,,,,,,,,num_3,2.1015871999552473,num_3,0.4,1,0.25000000000000006,1.4,9.01073,50.4601,return,9.024387100012973,,,,,,,18,20,female,left_right_width,2023_Oct_18_1257,exp1,2021.2.3,59.96332642953104,
4,8.65,9.55,10.45,11.35,0,0.9,0.5,0.4,3.1,10,9,9,9,9,0,,,,,,,,,,,,,,,,,,,,,,,,0,2,2,5,,,,,,,,,,,,,num_3,2.4884253999916837,num_3,0.4,0.8,0.4,1.05,14.41717,37.84507,return,3.411691899993457,,,,,,,18,20,female,left_right_width,2023_Oct_18_1257,exp1,2021.2.3,59.96332642953104,
3,9,10,11,0,0,1,0.9,0.1,2.1,10,9,9,9,0,0,,,,,,,,,,,,,,,,,,,,,,,,0,3,3,1,,,,,,,,,,,,,num_3,1.7946344999945723,num_3,0.25,0.8,0.05000000000000002,0.95,1.80215,34.24078,return,4.329869900015183,,,,,,,18,20,female,left_right_width,2023_Oct_18_1257,exp1,2021.2.3,59.96332642953104,
5,9.25,9.625,10,10.375,10.75,0.375,0.125,0.25,1.75,10,9,9,9,9,9,,,,,,,,,,,,,,,,,,,,,,,,0,4,4,6,,,,,,,,,,,,,num_4,5.1496085000108,num_4,0.25,1.3,0.15000000000000002,0.5,5.40644,18.02146,return,10.35110440000426,,,,,,,18,20,female,left_right_width,2023_Oct_18_1257,exp1,2021.2.3,59.96332642953104,
3,9.5,10,10.5,0,0,0.5,0.4,0.1,1.1,10,9,9,9,0,0,,,,,,,,,,,,,,,,,,,,,,,,0,5,5,0,,,,,,,,,,,,,num_3,3.1604657999705523,num_3,0.25,1.1,0.10000000000000002,0.4,3.60429,14.41717,return,10.488942300027702,,,,,,,18,20,female,left_right_width,2023_Oct_18_1257,exp1,2021.2.3,59.96332642953104,
5,9,9.5,10,10.5,11,0.5,0.09999999999999998,0.4,2.4,10,9,9,9,9,9,,,,,,,,,,,,,,,,,,,,,,,,0,6,6,8,,,,,,,,,,,,,num_3,2.430621200008318,num_3,0.2,0.7,0.44999999999999996,0.65,16.21932,23.4279,return,9.900693900010083,,,,,,,18,20,female,left_right_width,2023_Oct_18_1257,exp1,2021.2.3,59.96332642953104,
5,8.6,9.3,10,10.7,11.4,0.7,0.29999999999999993,0.4,3.1999999999999997,10,9,9,9,9,9,,,,,,,,,,,,,,,,,,,,,,,,0,7,7,7,,,,,,,,,,,,,num_5,2.199851600045804,num_5,0.3,0.5,0.3,0.55,10.81288,19.82361,return,3.727160200010985,,,,,,,18,20,female,left_right_width,2023_Oct_18_1257,exp1,2021.2.3,59.96332642953104,
4,9.5,9.833333333333334,10.166666666666666,10.5,0,0.33333333333333337,0.23333333333333336,0.1,1.1,10,9,9,9,9,0,,,,,,,,,,,,,,,,,,,,,,,,0,8,8,3,,,,,,,,,,,,,num_4,1.8470244000200182,num_4,0.15,0.5,0.09999999999999999,0.4,3.60429,14.41717,return,3.212476000015158,,,,,,,18,20,female,left_right_width,2023_Oct_18_1257,exp1,2021.2.3,59.96332642953104,
,,,,,,,,,,,,,,,,,,,,,,,,,,,,,,,,,,,,,,,,,,,,,,,,,,,,,,,,,,,,,,,,,,c,36.44293370004743,,,,,18,20,female,left_right_width,2023_Oct_18_1257,exp1,2021.2.3,59.96332642953104,
,,,,,,,,,,,,,,,,5,8.2,9.1,10,10.9,11.8,0.9,0.65,0.25,3.85,10,initial,36.05,296,328,361,393,425,9,9,9,9,9,,,,,0,0,0,0,0,0,0,50,,,,,num_4,1.2387293000356294,num_4,0.25,0.3,0.10000000000000002,0.8,3.60429,28.83434,return,3.155625899962615,,,,,,,18,20,female,left_right_width,2023_Oct_18_1257,exp1,2021.2.3,59.96332642953104,
,,,,,,,,,,,,,,,,5,8.95,9.475,10,10.525,11.05,0.525,0.42500000000000004,0.1,2.2,10,match,36.05,323,342,361,379,398,9,9,9,9,9,,,,,0,0,0,0,0,1,1,25,,,,,num_4,1.4782299000071362,num_4,0.35,0.4,0.10000000000000002,0.7,3.60429,25.23005,return,9.655364000005648,,,,,,,18,20,female,left_right_width,2023_Oct_18_1257,exp1,2021.2.3,59.96332642953104,
,,,,,,,,,,,,,,,,5,8.65,9.325,10,10.675,11.35,0.675,0.275,0.4,3.1,10,match,36.05,312,336,361,385,409,9,9,9,9,9,,,,,0,0,0,0,0,2,2,35,,,,,num_4,3.044226400030311,num_4,0.45,1.0,0.4,1.0,14.41717,36.04293,return,5.863518500002101,,,,,,,18,20,female,left_right_width,2023_Oct_18_1257,exp1,2021.2.3,59.96332642953104,
,,,,,,,,,,,,,,,,3,9.5,10,10.5,0,0,0.5,0.25,0.25,1.25,10,initial,36.05,342,361,379,0,0,9,9,9,0,0,,,,,0,0,0,0,0,3,3,2,,,,,num_2,1.647656800050754,num_2,0.25,1.6,0.25,0.7,9.01073,25.23005,return,4.524059000017587,,,,,,,18,20,female,left_right_width,2023_Oct_18_1257,exp1,2021.2.3,59.96332642953104,
,,,,,,,,,,,,,,,,3,8.525,10,11.475,0,0,1.475,1.225,0.25,3.2,10,match,36.05,307,361,414,0,0,9,9,9,0,0,,,,,0,0,0,0,0,4,4,47,,,,,num_2,1.34825290000299,num_2,0.45,1.6,0.15000000000000008,2.1,5.40644,75.69015,return,5.838257200026419,,,,,,,18,20,female,left_right_width,2023_Oct_18_1257,exp1,2021.2.3,59.96332642953104,
,,,,,,,,,,,,,,,,5,8.2,9.1,10,10.9,11.8,0.9,0.5,0.4,4,10,initial,36.05,296,328,361,393,425,9,9,9,9,9,,,,,0,0,0,0,0,5,5,52,,,,,num_4,2.0388951000059023,num_4,0.3,1.1,0.35,1.0,12.61502,36.04293,return,5.332786999992095,,,,,,,18,20,female,left_right_width,2023_Oct_18_1257,exp1,2021.2.3,59.96332642953104,
,,,,,,,,,,,,,,,,5,8.65,9.325,10,10.675,11.35,0.675,0.42500000000000004,0.25,2.95,10,match,36.05,312,336,361,385,409,9,9,9,9,9,,,,,0,0,0,0,0,6,6,33,,,,,num_5,2.1996181000140496,num_5,0.1,0.8,0.2,0.85,7.20859,30.63649,return,4.447205300035421,,,,,,,18,20,female,left_right_width,2023_Oct_18_1257,exp1,2021.2.3,59.96332642953104,
,,,,,,,,,,,,,,,,4,8.65,9.55,10.45,11.35,0,0.9,0.5,0.4,3.1,10,initial,36.05,312,344,377,409,0,9,9,9,9,0,,,,,0,0,0,0,0,7,7,34,,,,,num_4,1.6476393000339158,num_4,0.2,0.8,0.25,0.9,9.01073,32.43864,return,3.210513300029561,,,,,,,18,20,female,left_right_width,2023_Oct_18_1257,exp1,2021.2.3,59.96332642953104,
,,,,,,,,,,,,,,,,5,8.2,9.1,10,10.9,11.8,0.9,0.8,0.1,3.7,10,initial,36.05,296,328,361,393,425,9,9,9,9,9,,,,,0,0,0,0,0,8,8,48,,,,,num_4,1.8167446000152268,num_4,0.15,0.8,0.05000000000000002,0.9,1.80215,32.43864,return,3.3253242999780923,,,,,,,18,20,female,left_right_width,2023_Oct_18_1257,exp1,2021.2.3,59.96332642953104,
,,,,,,,,,,,,,,,,5,9,9.5,10,10.5,11,0.5,0.4,0.1,2.1,10,initial,36.05,324,342,361,379,397,9,9,9,9,9,,,,,0,0,0,0,0,9,9,36,,,,,num_4,3.6028821999789216,num_4,0.45,1.3,0.10000000000000007,1.1,3.60429,39.64722,return,7.2480245000333525,,,,,,,18,20,female,left_right_width,2023_Oct_18_1257,exp1,2021.2.3,59.96332642953104,
,,,,,,,,,,,,,,,,3,8.2,10,11.8,0,0,1.7999999999999998,1.4,0.4,4,10,match,36.05,296,361,425,0,0,9,9,9,0,0,,,,,0,0,0,0,0,10,10,53,,,,,num_2,1.4802431999705732,num_2,0.2,1.6,0.25,2.6,9.01073,93.71161,return,5.5165638999897055,,,,,,,18,20,female,left_right_width,2023_Oct_18_1257,exp1,2021.2.3,59.96332642953104,
,,,,,,,,,,,,,,,,5,8.6,9.3,10,10.7,11.4,0.7,0.29999999999999993,0.4,3.1999999999999997,10,initial,36.05,310,335,361,386,411,9,9,9,9,9,,,,,0,0,0,0,0,11,11,46,,,,,num_4,1.9361418000189587,num_4,0.15,0.3,0.25,0.7,9.01073,25.23005,return,4.719999300024938,,,,,,,18,20,female,left_right_width,2023_Oct_18_1257,exp1,2021.2.3,59.96332642953104,
,,,,,,,,,,,,,,,,3,8.2,10,11.8,0,0,1.8000000000000003,1.7000000000000002,0.1,3.7,10,match,36.05,296,361,425,0,0,9,9,9,0,0,,,,,0,0,0,0,0,12,12,49,,,,,num_2,1.3989704999839887,num_2,0.1,1.6,0.1,2.5,3.60429,90.10732,return,3.085908600012772,,,,,,,18,20,female,left_right_width,2023_Oct_18_1257,exp1,2021.2.3,59.96332642953104,
,,,,,,,,,,,,,,,,3,9,10,11,0,0,1,0.75,0.25,2.25,10,match,36.05,324,361,397,0,0,9,9,9,0,0,,,,,0,0,0,0,0,13,13,39,,,,,num_2,1.1159273000084795,num_2,0.1,1.6,0.15000000000000002,1.8,5.40644,64.87727,return,4.655130099970847,,,,,,,18,20,female,left_right_width,2023_Oct_18_1257,exp1,2021.2.3,59.96332642953104,
,,,,,,,,,,,,,,,,5,8.95,9.475,10,10.525,11.05,0.525,0.275,0.25,2.35,10,match,36.05,323,342,361,379,398,9,9,9,9,9,,,,,0,0,0,0,0,14,14,27,,,,,num_4,1.9176836999831721,num_4,0.1,0.9,0.25,0.8,9.01073,28.83434,return,5.359738199971616,,,,,,,18,20,female,left_right_width,2023_Oct_18_1257,exp1,2021.2.3,59.96332642953104,
,,,,,,,,,,,,,,,,4,9.3,9.766666666666667,10.233333333333333,10.7,0,0.4666666666666667,0.06666666666666665,0.4,1.8,10,match,36.05,335,352,369,386,0,9,9,9,9,0,,,,,0,0,0,0,0,15,15,11,,,,,num_3,1.3675813999725506,num_3,0.25,1,0.3,0.5,10.81288,18.02146,return,6.237820499984082,,,,,,,18,20,female,left_right_width,2023_Oct_18_1257,exp1,2021.2.3,59.96332642953104,
,,,,,,,,,,,,,,,,3,8.6,10,11.4,0,0,1.4,1.15,0.25,3.05,10,match,36.05,310,361,411,0,0,9,9,9,0,0,,,,,0,0,0,0,0,16,16,45,,,,,num_3,3.7142138999770395,num_3,0.25,0.5,0.2,0.65,7.20859,23.4279,return,6.475683199998457,,,,,,,18,20,female,left_right_width,2023_Oct_18_1257,exp1,2021.2.3,59.96332642953104,
,,,,,,,,,,,,,,,,4,9.25,9.75,10.25,10.75,0,0.5,0.25,0.25,1.75,10,initial,36.05,333,351,370,388,0,9,9,9,9,0,,,,,0,0,0,0,0,17,17,20,,,,,num_4,4.337106799997855,num_4,0.45,1.1,0.25000000000000006,0.5,9.01073,18.02146,return,3.8261945000267588,,,,,,,18,20,female,left_right_width,2023_Oct_18_1257,exp1,2021.2.3,59.96332642953104,
,,,,,,,,,,,,,,,,3,9,10,11,0,0,1,0.9,0.1,2.1,10,match,36.05,324,361,397,0,0,9,9,9,0,0,,,,,0,0,0,0,0,18,18,37,,,,,num_2,1.5000553000136279,num_2,0.25,1.6,0.10000000000000002,1.7,3.60429,61.27298,return,4.671655600017402,,,,,,,18,20,female,left_right_width,2023_Oct_18_1257,exp1,2021.2.3,59.96332642953104,
,,,,,,,,,,,,,,,,3,9.5,10,10.5,0,0,0.5,0.09999999999999998,0.4,1.4000000000000001,10,initial,36.05,342,361,379,0,0,9,9,9,0,0,,,,,0,0,0,0,0,19,19,4,,,,,num_2,1.2556134999613278,num_2,0.45,1.6,0.45,0.8,16.21932,28.83434,return,2.963447400019504,,,,,,,18,20,female,left_right_width,2023_Oct_18_1257,exp1,2021.2.3,59.96332642953104,
,,,,,,,,,,,,,,,,5,9.175,9.5875,10,10.4125,10.825,0.4125,0.16249999999999998,0.25,1.9,10,match,36.05,331,346,361,375,390,9,9,9,9,9,,,,,0,0,0,0,0,20,20,23,,,,,num_4,2.3462890000082552,num_4,0.2,0.4,0.25,0.5,9.01073,18.02146,return,7.7392379000084475,,,,,,,18,20,female,left_right_width,2023_Oct_18_1257,exp1,2021.2.3,59.96332642953104,
,,,,,,,,,,,,,,,,4,9.425,9.808333333333334,10.191666666666666,10.575,0,0.3833333333333333,0.1333333333333333,0.25,1.4,10,match,36.05,340,354,367,381,0,9,9,9,9,0,,,,,0,0,0,0,0,21,21,5,,,,,num_3,1.4942407999769785,num_3,0.3,0.5,0.3,0.6,10.81288,21.62576,return,6.759774199977983,,,,,,,18,20,female,left_right_width,2023_Oct_18_1257,exp1,2021.2.3,59.96332642953104,
,,,,,,,,,,,,,,,,3,8.6,10,11.4,0,0,1.4,1.2999999999999998,0.1,2.9,10,match,36.05,310,361,411,0,0,9,9,9,0,0,,,,,0,0,0,0,0,22,22,43,,,,,num_2,2.557442200020887,num_2,0.4,1.6,0.10000000000000007,2.1,3.60429,75.69015,return,4.211722899985034,,,,,,,18,20,female,left_right_width,2023_Oct_18_1257,exp1,2021.2.3,59.96332642953104,
,,,,,,,,,,,,,,,,4,9.25,9.75,10.25,10.75,0,0.5,0.09999999999999998,0.4,1.9,10,initial,36.05,333,351,370,388,0,9,9,9,9,0,,,,,0,0,0,0,0,23,23,22,,,,,num_3,1.290242400020361,num_3,0.3,0.4,0.39999999999999997,0.6,14.41717,21.62576,return,4.850722900009714,,,,,,,18,20,female,left_right_width,2023_Oct_18_1257,exp1,2021.2.3,59.96332642953104,
,,,,,,,,,,,,,,,,5,9,9.5,10,10.5,11,0.5,0.25,0.25,2.25,10,initial,36.05,324,342,361,379,397,9,9,9,9,9,,,,,0,0,0,0,0,24,24,38,,,,,num_4,3.0342825000407174,num_4,0.1,1.1,0.25,0.7,9.01073,25.23005,return,5.342071700026281,,,,,,,18,20,female,left_right_width,2023_Oct_18_1257,exp1,2021.2.3,59.96332642953104,
,,,,,,,,,,,,,,,,4,9.3,9.766666666666667,10.233333333333333,10.7,0,0.4666666666666667,0.3666666666666667,0.1,1.5,10,match,36.05,335,352,369,386,0,9,9,9,9,0,,,,,0,0,0,0,0,25,25,7,,,,,num_3,2.0648820999776945,num_3,0.2,1.2,0.15000000000000002,0.65,5.40644,23.4279,return,4.942132500000298,,,,,,,18,20,female,left_right_width,2023_Oct_18_1257,exp1,2021.2.3,59.96332642953104,
,,,,,,,,,,,,,,,,5,9.25,9.625,10,10.375,10.75,0.375,0.125,0.25,1.75,10,match,36.05,333,347,361,374,388,9,9,9,9,9,,,,,0,0,0,0,0,26,26,21,,,,,num_5,2.474053699988872,num_5,0.15,1.3,0.2,0.45,7.20859,16.21932,return,8.708814700017683,,,,,,,18,20,female,left_right_width,2023_Oct_18_1257,exp1,2021.2.3,59.96332642953104,
,,,,,,,,,,,,,,,,3,9,10,11,0,0,0.9999999999999999,0.5999999999999999,0.4,2.4,10,match,36.05,324,361,397,0,0,9,9,9,0,0,,,,,0,0,0,0,0,27,27,41,,,,,num_3,1.4521467000013217,num_3,0.15,0.3,0.2,0.6,7.20859,21.62576,return,3.8099023000104353,,,,,,,18,20,female,left_right_width,2023_Oct_18_1257,exp1,2021.2.3,59.96332642953104,
,,,,,,,,,,,,,,,,4,9.3,9.766666666666667,10.233333333333333,10.7,0,0.4666666666666667,0.21666666666666665,0.25,1.65,10,match,36.05,335,352,369,386,0,9,9,9,9,0,,,,,0,0,0,0,0,28,28,9,,,,,num_4,2.192968000017572,num_4,0.1,0.7,0.25,0.6,9.01073,21.62576,return,9.016635499952827,,,,,,,18,20,female,left_right_width,2023_Oct_18_1257,exp1,2021.2.3,59.96332642953104,
,,,,,,,,,,,,,,,,5,8.6,9.3,10,10.7,11.4,0.7,0.6,0.1,2.9,10,initial,36.05,310,335,361,386,411,9,9,9,9,9,,,,,0,0,0,0,0,29,29,42,,,,,num_4,1.6320654999581166,num_4,0.1,0.8,0.1,0.8,3.60429,28.83434,return,1.3575037999544293,,,,,,,18,20,female,left_right_width,2023_Oct_18_1257,exp1,2021.2.3,59.96332642953104,
,,,,,,,,,,,,,,,,4,8.95,9.65,10.35,11.05,0,0.7,0.6,0.1,2.1999999999999997,10,initial,36.05,323,348,373,398,0,9,9,9,9,0,,,,,0,0,0,0,0,30,30,24,,,,,num_4,1.6882424000068568,num_4,0.35,0.8,0.10000000000000002,0.8,3.60429,28.83434,return,8.305914299970027,,,,,,,18,20,female,left_right_width,2023_Oct_18_1257,exp1,2021.2.3,59.96332642953104,
,,,,,,,,,,,,,,,,3,9.3,10,10.7,0,0,0.7,0.6,0.1,1.5,10,initial,36.05,335,361,386,0,0,9,9,9,0,0,,,,,0,0,0,0,0,31,31,6,,,,,num_3,1.6456985999830067,num_3,0.3,0.4,0.10000000000000002,0.55,3.60429,19.82361,return,3.066173199971672,,,,,,,18,20,female,left_right_width,2023_Oct_18_1257,exp1,2021.2.3,59.96332642953104,
,,,,,,,,,,,,,,,,3,9.5,10,10.5,0,0,0.5,0.4,0.1,1.1,10,initial,36.05,342,361,379,0,0,9,9,9,0,0,,,,,0,0,0,0,0,32,32,0,,,,,num_3,2.464893199969083,num_3,0.35,0.5,0.15000000000000002,0.55,5.40644,19.82361,return,7.083539799961727,,,,,,,18,20,female,left_right_width,2023_Oct_18_1257,exp1,2021.2.3,59.96332642953104,
,,,,,,,,,,,,,,,,4,9.1,9.7,10.3,10.9,0,0.5999999999999999,0.3499999999999999,0.25,2.05,10,match,36.05,328,350,371,393,0,9,9,9,9,0,,,,,0,0,0,0,0,33,33,15,,,,,num_4,3.5188583999988623,num_4,0.3,0.5,0.2,0.4,7.20859,14.41717,return,3.48634740000125,,,,,,,18,20,female,left_right_width,2023_Oct_18_1257,exp1,2021.2.3,59.96332642953104,
,,,,,,,,,,,,,,,,3,9.1,10,10.9,0,0,0.9,0.65,0.25,2.05,10,initial,36.05,328,361,393,0,0,9,9,9,0,0,,,,,0,0,0,0,0,34,34,14,,,,,num_3,2.6636423000018112,num_3,0.45,0.9,0.20000000000000007,0.85,7.20859,30.63649,return,3.0990811999654397,,,,,,,18,20,female,left_right_width,2023_Oct_18_1257,exp1,2021.2.3,59.96332642953104,
,,,,,,,,,,,,,,,,4,8.65,9.55,10.45,11.35,0,0.9,0.65,0.25,2.95,10,initial,36.05,312,344,377,409,0,9,9,9,9,0,,,,,0,0,0,0,0,35,35,32,,,,,num_4,2.4166640999610536,num_4,0.35,0.8,0.25,0.8,9.01073,28.83434,return,1.9198551999870688,,,,,,,18,20,female,left_right_width,2023_Oct_18_1257,exp1,2021.2.3,59.96332642953104,
,,,,,,,,,,,,,,,,4,9.1,9.7,10.3,10.9,0,0.6000000000000001,0.20000000000000004,0.4,2.2,10,match,36.05,328,350,371,393,0,9,9,9,9,0,,,,,0,0,0,0,0,36,36,17,,,,,num_3,3.215326500008814,num_3,0.4,1.1,0.30000000000000004,0.7,10.81288,25.23005,return,4.73085049999645,,,,,,,18,20,female,left_right_width,2023_Oct_18_1257,exp1,2021.2.3,59.96332642953104,
,,,,,,,,,,,,,,,,4,9.5,9.833333333333334,10.166666666666666,10.5,0,0.33333333333333337,0.23333333333333336,0.1,1.1,10,match,36.05,342,354,367,379,0,9,9,9,9,0,,,,,0,0,0,0,0,37,37,1,,,,,num_4,1.6556456999969669,num_4,0.35,0.7,0.10000000000000002,0.4,3.60429,14.41717,return,2.9801698999945074,,,,,,,18,20,female,left_right_width,2023_Oct_18_1257,exp1,2021.2.3,59.96332642953104,
,,,,,,,,,,,,,,,,5,9,9.5,10,10.5,11,0.5,0.09999999999999998,0.4,2.4,10,initial,36.05,324,342,361,379,397,9,9,9,9,9,,,,,0,0,0,0,0,38,38,40,,,,,num_4,2.3035280000185594,num_4,0.25,0.6,0.39999999999999997,0.6,14.41717,21.62576,return,2.946011299965903,,,,,,,18,20,female,left_right_width,2023_Oct_18_1257,exp1,2021.2.3,59.96332642953104,
,,,,,,,,,,,,,,,,4,8.95,9.65,10.35,11.05,0,0.7,0.29999999999999993,0.4,2.5,10,initial,36.05,323,348,373,398,0,9,9,9,9,0,,,,,0,0,0,0,0,39,39,28,,,,,num_4,3.029014100029599,num_4,0.15,0.9,0.35,0.6,12.61502,21.62576,return,5.385713800031226,,,,,,,18,20,female,left_right_width,2023_Oct_18_1257,exp1,2021.2.3,59.96332642953104,
,,,,,,,,,,,,,,,,5,8.95,9.475,10,10.525,11.05,0.525,0.125,0.4,2.5,10,match,36.05,323,342,361,379,398,9,9,9,9,9,,,,,0,0,0,0,0,40,40,29,,,,,num_5,3.616269599995576,num_5,0.25,0.5,0.35,0.5,12.61502,18.02146,return,5.326152199995704,,,,,,,18,20,female,left_right_width,2023_Oct_18_1257,exp1,2021.2.3,59.96332642953104,
,,,,,,,,,,,,,,,,3,9.3,10,10.7,0,0,0.7,0.44999999999999996,0.25,1.65,10,initial,36.05,335,361,386,0,0,9,9,9,0,0,,,,,0,0,0,0,0,41,41,8,,,,,num_3,1.6574953999952413,num_3,0.15,0.6,0.2,0.95,7.20859,34.24078,return,3.686273799976334,,,,,,,18,20,female,left_right_width,2023_Oct_18_1257,exp1,2021.2.3,59.96332642953104,
,,,,,,,,,,,,,,,,3,9.1,10,10.9,0,0,0.9,0.8,0.1,1.9000000000000001,10,initial,36.05,328,361,393,0,0,9,9,9,0,0,,,,,0,0,0,0,0,42,42,12,,,,,num_2,1.664918199996464,num_2,0.25,1.6,0.15000000000000002,1.9,5.40644,68.48156,return,4.013044599967543,,,,,,,18,20,female,left_right_width,2023_Oct_18_1257,exp1,2021.2.3,59.96332642953104,
,,,,,,,,,,,,,,,,5,9.25,9.625,10,10.375,10.75,0.375,0.275,0.1,1.6,10,match,36.05,333,347,361,374,388,9,9,9,9,9,,,,,0,0,0,0,0,43,43,19,,,,,num_4,1.7255930999526754,num_4,0.35,0.4,0.10000000000000002,0.6,3.60429,21.62576,return,3.1112473999965005,,,,,,,18,20,female,left_right_width,2023_Oct_18_1257,exp1,2021.2.3,59.96332642953104,
,,,,,,,,,,,,,,,,3,9.1,10,10.9,0,0,0.9,0.5,0.4,2.2,10,initial,36.05,328,361,393,0,0,9,9,9,0,0,,,,,0,0,0,0,0,44,44,16,,,,,num_2,1.2595114999567159,num_2,0.4,1.6,0.45,2.0,16.21932,72.08586,return,2.2156160000013188,,,,,,,18,20,female,left_right_width,2023_Oct_18_1257,exp1,2021.2.3,59.96332642953104,
,,,,,,,,,,,,,,,,4,9.25,9.75,10.25,10.75,0,0.5,0.4,0.1,1.6,10,initial,36.05,333,351,370,388,0,9,9,9,9,0,,,,,0,0,0,0,0,45,45,18,,,,,num_4,1.8901288000051863,num_4,0.15,1.3,0.09999999999999999,0.8,3.60429,28.83434,return,3.0298747000051662,,,,,,,18,20,female,left_right_width,2023_Oct_18_1257,exp1,2021.2.3,59.96332642953104,
,,,,,,,,,,,,,,,,4,8.65,9.55,10.45,11.35,0,0.9,0.8,0.1,2.8000000000000003,10,initial,36.05,312,344,377,409,0,9,9,9,9,0,,,,,0,0,0,0,0,46,46,30,,,,,num_4,1.9649624000303447,num_4,0.45,1.0,0.15000000000000008,0.9,5.40644,32.43864,return,5.87105179997161,,,,,,,18,20,female,left_right_width,2023_Oct_18_1257,exp1,2021.2.3,59.96332642953104,
,,,,,,,,,,,,,,,,5,8.65,9.325,10,10.675,11.35,0.6749999999999999,0.575,0.1,2.8,10,match,36.05,312,336,361,385,409,9,9,9,9,9,,,,,0,0,0,0,0,47,47,31,,,,,num_5,1.5477557000122033,num_5,0.15,0.6,0.15,0.7,5.40644,25.23005,return,2.7328842999995686,,,,,,,18,20,female,left_right_width,2023_Oct_18_1257,exp1,2021.2.3,59.96332642953104,
,,,,,,,,,,,,,,,,3,9.3,10,10.7,0,0,0.7,0.29999999999999993,0.4,1.8,10,initial,36.05,335,361,386,0,0,9,9,9,0,0,,,,,0,0,0,0,0,48,48,10,,,,,num_2,1.6661309999763034,num_2,0.3,1.6,0.39999999999999997,0.9,14.41717,32.43864,return,8.54258889995981,,,,,,,18,20,female,left_right_width,2023_Oct_18_1257,exp1,2021.2.3,59.96332642953104,
,,,,,,,,,,,,,,,,4,8.95,9.65,10.35,11.05,0,0.7,0.44999999999999996,0.25,2.3499999999999996,10,initial,36.05,323,348,373,398,0,9,9,9,9,0,,,,,0,0,0,0,0,49,49,26,,,,,num_4,1.8353819999611005,num_4,0.3,0.9,0.25,0.9,9.01073,32.43864,return,6.030704499979038,,,,,,,18,20,female,left_right_width,2023_Oct_18_1257,exp1,2021.2.3,59.96332642953104,
,,,,,,,,,,,,,,,,4,9.1,9.7,10.3,10.9,0,0.6,0.5,0.1,1.9,10,match,36.05,328,350,371,393,0,9,9,9,9,0,,,,,0,0,0,0,0,50,50,13,,,,,num_4,1.7846352000487968,num_4,0.45,0.8,0.15000000000000008,0.9,5.40644,32.43864,return,3.4251380000496283,,,,,,,18,20,female,left_right_width,2023_Oct_18_1257,exp1,2021.2.3,59.96332642953104,
,,,,,,,,,,,,,,,,5,8.6,9.3,10,10.7,11.4,0.7,0.44999999999999996,0.25,3.05,10,initial,36.05,310,335,361,386,411,9,9,9,9,9,,,,,0,0,0,0,0,51,51,44,,,,,num_5,1.60424450004939,num_5,0.45,1.3,0.20000000000000007,0.95,7.20859,34.24078,return,4.656072599987965,,,,,,,18,20,female,left_right_width,2023_Oct_18_1257,exp1,2021.2.3,59.96332642953104,
,,,,,,,,,,,,,,,,4,9.5,9.833333333333334,10.166666666666666,10.5,0,0.3333333333333333,0.08333333333333333,0.25,1.25,10,match,36.05,342,354,367,379,0,9,9,9,9,0,,,,,0,0,0,0,0,52,52,3,,,,,num_3,1.656981199979782,num_3,0.3,0.8,0.3,0.45,10.81288,16.21932,return,6.022363999974914,,,,,,,18,20,female,left_right_width,2023_Oct_18_1257,exp1,2021.2.3,59.96332642953104,
,,,,,,,,,,,,,,,,3,8.2,10,11.8,0,0,1.8,1.55,0.25,3.85,10,match,36.05,296,361,425,0,0,9,9,9,0,0,,,,,0,0,0,0,0,53,53,51,,,,,num_2,1.1494556000106968,num_2,0.45,1.6,0.20000000000000007,2.9,7.20859,104.52449,return,6.461730899987742,,,,,,,18,20,female,left_right_width,2023_Oct_18_1257,exp1,2021.2.3,59.96332642953104,
,,,,,,,,,,,,,,,,,,,,,,,,,,,,,,,,,,,,,,,,,,,0,0,0,0,,,,,,,,,,,,,,,,,,,,,,707.3993352999678,None,707.3993352999678,None,18,20,female,left_right_width,2023_Oct_18_1257,exp1,2021.2.3,59.96332642953104,
,,,,,,,,,,,,,,,,5,8.95,9.475,10,10.525,11.05,0.525,0.42500000000000004,0.1,2.2,10,match,36.05,323,342,361,379,398,9,9,9,9,9,,,,,1,0,1,0,0,0,0,25,,,,,num_4,2.2464654999785125,num_4,0.4,1.3,0.10000000000000007,0.8,3.60429,28.83434,return,6.20204260002356,,,,,,,18,20,female,left_right_width,2023_Oct_18_1257,exp1,2021.2.3,59.96332642953104,
,,,,,,,,,,,,,,,,5,8.6,9.3,10,10.7,11.4,0.7,0.6,0.1,2.9,10,initial,36.05,310,335,361,386,411,9,9,9,9,9,,,,,1,0,1,0,0,1,1,42,,,,,num_5,1.364278299966827,num_5,0.3,1.3,0.10000000000000002,0.9,3.60429,32.43864,return,9.64472989999922,,,,,,,18,20,female,left_right_width,2023_Oct_18_1257,exp1,2021.2.3,59.96332642953104,
,,,,,,,,,,,,,,,,4,9.5,9.833333333333334,10.166666666666666,10.5,0,0.33333333333333337,0.23333333333333336,0.1,1.1,10,match,36.05,342,354,367,379,0,9,9,9,9,0,,,,,1,0,1,0,0,2,2,1,,,,,num_3,1.3774801999679767,num_3,0.25,1.3,0.10000000000000002,0.35,3.60429,12.61502,return,5.464645000000019,,,,,,,18,20,female,left_right_width,2023_Oct_18_1257,exp1,2021.2.3,59.96332642953104,
,,,,,,,,,,,,,,,,3,9,10,11,0,0,1,0.9,0.1,2.1,10,match,36.05,324,361,397,0,0,9,9,9,0,0,,,,,1,0,1,0,0,3,3,37,,,,,num_1,1.6956194000085816,num_1,0.4,9999,0.15000000000000008,9999,5.40644,360393.24009,return,8.410381200024858,,,,,,,18,20,female,left_right_width,2023_Oct_18_1257,exp1,2021.2.3,59.96332642953104,
,,,,,,,,,,,,,,,,3,9.1,10,10.9,0,0,0.9,0.65,0.25,2.05,10,initial,36.05,328,361,393,0,0,9,9,9,0,0,,,,,1,0,1,0,0,4,4,14,,,,,num_3,1.323022700031288,num_3,0.4,0.8,0.15000000000000008,0.85,5.40644,30.63649,return,5.010691900039092,,,,,,,18,20,female,left_right_width,2023_Oct_18_1257,exp1,2021.2.3,59.96332642953104,
,,,,,,,,,,,,,,,,3,8.525,10,11.475,0,0,1.475,1.225,0.25,3.2,10,match,36.05,307,361,414,0,0,9,9,9,0,0,,,,,1,0,1,0,0,5,5,47,,,,,num_2,1.4709282999974675,num_2,0.3,1.6,0.15000000000000002,2.3,5.40644,82.89874,return,2.8168695000349544,,,,,,,18,20,female,left_right_width,2023_Oct_18_1257,exp1,2021.2.3,59.96332642953104,
,,,,,,,,,,,,,,,,5,8.6,9.3,10,10.7,11.4,0.7,0.29999999999999993,0.4,3.1999999999999997,10,initial,36.05,310,335,361,386,411,9,9,9,9,9,,,,,1,0,1,0,0,6,6,46,,,,,num_4,2.104829999967478,num_4,0.2,0.4,0.2,0.7,7.20859,25.23005,return,2.273986899992451,,,,,,,18,20,female,left_right_width,2023_Oct_18_1257,exp1,2021.2.3,59.96332642953104,
,,,,,,,,,,,,,,,,3,9,10,11,0,0,0.9999999999999999,0.5999999999999999,0.4,2.4,10,match,36.05,324,361,397,0,0,9,9,9,0,0,,,,,1,0,1,0,0,7,7,41,,,,,num_2,1.9626878999988548,num_2,0.1,1.6,0.35,1.6,12.61502,57.66869,return,3.7719533999916166,,,,,,,18,20,female,left_right_width,2023_Oct_18_1257,exp1,2021.2.3,59.96332642953104,
,,,,,,,,,,,,,,,,4,9.1,9.7,10.3,10.9,0,0.6,0.5,0.1,1.9,10,match,36.05,328,350,371,393,0,9,9,9,9,0,,,,,1,0,1,0,0,8,8,13,,,,,num_3,2.4610781999654137,num_3,0.2,1.1,0.15000000000000002,0.95,5.40644,34.24078,return,2.4093831999925897,,,,,,,18,20,female,left_right_width,2023_Oct_18_1257,exp1,2021.2.3,59.96332642953104,
,,,,,,,,,,,,,,,,3,9.3,10,10.7,0,0,0.7,0.29999999999999993,0.4,1.8,10,initial,36.05,335,361,386,0,0,9,9,9,0,0,,,,,1,0,1,0,0,9,9,10,,,,,num_2,1.273698200006038,num_2,0.1,1.6,0.35,0.9,12.61502,32.43864,return,7.620998900034465,,,,,,,18,20,female,left_right_width,2023_Oct_18_1257,exp1,2021.2.3,59.96332642953104,
,,,,,,,,,,,,,,,,4,8.65,9.55,10.45,11.35,0,0.9,0.65,0.25,2.95,10,initial,36.05,312,344,377,409,0,9,9,9,9,0,,,,,1,0,1,0,0,10,10,32,,,,,num_3,2.4013589000096545,num_3,0.45,1.1,0.25000000000000006,1.0,9.01073,36.04293,return,2.8795967000187375,,,,,,,18,20,female,left_right_width,2023_Oct_18_1257,exp1,2021.2.3,59.96332642953104,
,,,,,,,,,,,,,,,,5,9.25,9.625,10,10.375,10.75,0.375,0.275,0.1,1.6,10,match,36.05,333,347,361,374,388,9,9,9,9,9,,,,,1,0,1,0,0,11,11,19,,,,,num_4,2.484540299978107,num_4,0.45,1.2,0.15000000000000008,0.6,5.40644,21.62576,return,5.599883200018667,,,,,,,18,20,female,left_right_width,2023_Oct_18_1257,exp1,2021.2.3,59.96332642953104,
,,,,,,,,,,,,,,,,3,8.6,10,11.4,0,0,1.4,1.15,0.25,3.05,10,match,36.05,310,361,411,0,0,9,9,9,0,0,,,,,1,0,1,0,0,12,12,45,,,,,num_2,2.2089566999929957,num_2,0.25,1.6,0.15000000000000002,2.7,5.40644,97.31591,return,4.1344402999966405,,,,,,,18,20,female,left_right_width,2023_Oct_18_1257,exp1,2021.2.3,59.96332642953104,
,,,,,,,,,,,,,,,,3,9.5,10,10.5,0,0,0.5,0.4,0.1,1.1,10,initial,36.05,342,361,379,0,0,9,9,9,0,0,,,,,1,0,1,0,0,13,13,0,,,,,num_2,1.3971652999753132,num_2,0.1,1.6,0.15000000000000002,0.9,5.40644,32.43864,return,3.515763400006108,,,,,,,18,20,female,left_right_width,2023_Oct_18_1257,exp1,2021.2.3,59.96332642953104,
,,,,,,,,,,,,,,,,3,9,10,11,0,0,1,0.75,0.25,2.25,10,match,36.05,324,361,397,0,0,9,9,9,0,0,,,,,1,0,1,0,0,14,14,39,,,,,num_2,1.292208999977447,num_2,0.15,1.6,0.25,1.3,9.01073,46.85581,return,2.694313300016802,,,,,,,18,20,female,left_right_width,2023_Oct_18_1257,exp1,2021.2.3,59.96332642953104,
,,,,,,,,,,,,,,,,3,8.2,10,11.8,0,0,1.8000000000000003,1.7000000000000002,0.1,3.7,10,match,36.05,296,361,425,0,0,9,9,9,0,0,,,,,1,0,1,0,0,15,15,49,,,,,num_2,1.230192600050941,num_2,0.4,1.6,0.20000000000000007,2.7,7.20859,97.31591,return,3.549300500017125,,,,,,,18,20,female,left_right_width,2023_Oct_18_1257,exp1,2021.2.3,59.96332642953104,
,,,,,,,,,,,,,,,,5,8.65,9.325,10,10.675,11.35,0.6749999999999999,0.575,0.1,2.8,10,match,36.05,312,336,361,385,409,9,9,9,9,9,,,,,1,0,1,0,0,16,16,31,,,,,num_3,1.7651915999595076,num_3,0.35,0.5,0.15000000000000002,0.95,5.40644,34.24078,return,3.675747599976603,,,,,,,18,20,female,left_right_width,2023_Oct_18_1257,exp1,2021.2.3,59.96332642953104,
,,,,,,,,,,,,,,,,4,8.95,9.65,10.35,11.05,0,0.7,0.6,0.1,2.1999999999999997,10,initial,36.05,323,348,373,398,0,9,9,9,9,0,,,,,1,0,1,0,0,17,17,24,,,,,num_4,2.6788665000349283,num_4,0.2,1.1,0.15000000000000002,0.5,5.40644,18.02146,return,3.1157114999950863,,,,,,,18,20,female,left_right_width,2023_Oct_18_1257,exp1,2021.2.3,59.96332642953104,
,,,,,,,,,,,,,,,,4,9.3,9.766666666666667,10.233333333333333,10.7,0,0.4666666666666667,0.06666666666666665,0.4,1.8,10,match,36.05,335,352,369,386,0,9,9,9,9,0,,,,,1,0,1,0,0,18,18,11,,,,,num_3,1.3774178000167012,num_3,0.25,0.3,0.39999999999999997,0.55,14.41717,19.82361,return,6.952001800003927,,,,,,,18,20,female,left_right_width,2023_Oct_18_1257,exp1,2021.2.3,59.96332642953104,
,,,,,,,,,,,,,,,,3,9.1,10,10.9,0,0,0.9,0.8,0.1,1.9000000000000001,10,initial,36.05,328,361,393,0,0,9,9,9,0,0,,,,,1,0,1,0,0,19,19,12,,,,,num_3,1.3437180999899283,num_3,0.15,0.3,0.15,0.5,5.40644,18.02146,return,4.089442899974529,,,,,,,18,20,female,left_right_width,2023_Oct_18_1257,exp1,2021.2.3,59.96332642953104,
,,,,,,,,,,,,,,,,5,9,9.5,10,10.5,11,0.5,0.4,0.1,2.1,10,initial,36.05,324,342,361,379,397,9,9,9,9,9,,,,,1,0,1,0,0,20,20,36,,,,,num_4,2.7655143000301905,num_4,0.3,0.3,0.10000000000000002,0.4,3.60429,14.41717,return,6.894691599998623,,,,,,,18,20,female,left_right_width,2023_Oct_18_1257,exp1,2021.2.3,59.96332642953104,
,,,,,,,,,,,,,,,,4,8.95,9.65,10.35,11.05,0,0.7,0.29999999999999993,0.4,2.5,10,initial,36.05,323,348,373,398,0,9,9,9,9,0,,,,,1,0,1,0,0,21,21,28,,,,,num_3,1.610858800006099,num_3,0.2,0.9,0.49999999999999994,0.8,18.02146,28.83434,return,4.984970100049395,,,,,,,18,20,female,left_right_width,2023_Oct_18_1257,exp1,2021.2.3,59.96332642953104,
,,,,,,,,,,,,,,,,5,8.2,9.1,10,10.9,11.8,0.9,0.8,0.1,3.7,10,initial,36.05,296,328,361,393,425,9,9,9,9,9,,,,,1,0,1,0,0,22,22,48,,,,,num_5,1.8073388999910094,num_5,0.1,1.3,0.1,0.55,3.60429,19.82361,return,5.573209700000007,,,,,,,18,20,female,left_right_width,2023_Oct_18_1257,exp1,2021.2.3,59.96332642953104,
,,,,,,,,,,,,,,,,5,8.6,9.3,10,10.7,11.4,0.7,0.44999999999999996,0.25,3.05,10,initial,36.05,310,335,361,386,411,9,9,9,9,9,,,,,1,0,1,0,0,23,23,44,,,,,num_5,1.2348675000248477,num_5,0.1,1.1,0.2,0.7,7.20859,25.23005,return,3.377010700001847,,,,,,,18,20,female,left_right_width,2023_Oct_18_1257,exp1,2021.2.3,59.96332642953104,
,,,,,,,,,,,,,,,,4,9.25,9.75,10.25,10.75,0,0.5,0.25,0.25,1.75,10,initial,36.05,333,351,370,388,0,9,9,9,9,0,,,,,1,0,1,0,0,24,24,20,,,,,num_4,1.7721680999966338,num_4,0.4,0.5,0.30000000000000004,0.6,10.81288,21.62576,return,6.5954572999617085,,,,,,,18,20,female,left_right_width,2023_Oct_18_1257,exp1,2021.2.3,59.96332642953104,
,,,,,,,,,,,,,,,,4,8.65,9.55,10.45,11.35,0,0.9,0.5,0.4,3.1,10,initial,36.05,312,344,377,409,0,9,9,9,9,0,,,,,1,0,1,0,0,25,25,34,,,,,num_4,1.33692680002423,num_4,0.1,1.1,0.49999999999999994,1.1,18.02146,39.64722,return,2.7041176999919116,,,,,,,18,20,female,left_right_width,2023_Oct_18_1257,exp1,2021.2.3,59.96332642953104,
,,,,,,,,,,,,,,,,4,8.65,9.55,10.45,11.35,0,0.9,0.8,0.1,2.8000000000000003,10,initial,36.05,312,344,377,409,0,9,9,9,9,0,,,,,1,0,1,0,0,26,26,30,,,,,num_4,3.0227995000313967,num_4,0.4,1.3,0.15000000000000008,1.1,5.40644,39.64722,return,3.893233600014355,,,,,,,18,20,female,left_right_width,2023_Oct_18_1257,exp1,2021.2.3,59.96332642953104,
,,,,,,,,,,,,,,,,4,9.25,9.75,10.25,10.75,0,0.5,0.4,0.1,1.6,10,initial,36.05,333,351,370,388,0,9,9,9,9,0,,,,,1,0,1,0,0,27,27,18,,,,,num_4,2.1809663000167347,num_4,0.35,0.8,0.10000000000000002,0.6,3.60429,21.62576,return,2.8113203000393696,,,,,,,18,20,female,left_right_width,2023_Oct_18_1257,exp1,2021.2.3,59.96332642953104,
,,,,,,,,,,,,,,,,4,9.425,9.808333333333334,10.191666666666666,10.575,0,0.3833333333333333,0.1333333333333333,0.25,1.4,10,match,36.05,340,354,367,381,0,9,9,9,9,0,,,,,1,0,1,0,0,28,28,5,,,,,num_3,2.1810736999614164,num_3,0.45,1.1,0.35000000000000003,0.65,12.61502,23.4279,return,7.659892899973784,,,,,,,18,20,female,left_right_width,2023_Oct_18_1257,exp1,2021.2.3,59.96332642953104,
,,,,,,,,,,,,,,,,5,8.65,9.325,10,10.675,11.35,0.675,0.275,0.4,3.1,10,match,36.05,312,336,361,385,409,9,9,9,9,9,,,,,1,0,1,0,0,29,29,35,,,,,num_4,1.858978100004606,num_4,0.45,0.7,0.5,0.9,18.02146,32.43864,return,6.7447715000016615,,,,,,,18,20,female,left_right_width,2023_Oct_18_1257,exp1,2021.2.3,59.96332642953104,
,,,,,,,,,,,,,,,,5,8.95,9.475,10,10.525,11.05,0.525,0.125,0.4,2.5,10,match,36.05,323,342,361,379,398,9,9,9,9,9,,,,,1,0,1,0,0,30,30,29,,,,,num_4,1.2283620000234805,num_4,0.4,0.8,0.55,0.8,19.82361,28.83434,return,1.817426500027068,,,,,,,18,20,female,left_right_width,2023_Oct_18_1257,exp1,2021.2.3,59.96332642953104,
,,,,,,,,,,,,,,,,4,9.3,9.766666666666667,10.233333333333333,10.7,0,0.4666666666666667,0.3666666666666667,0.1,1.5,10,match,36.05,335,352,369,386,0,9,9,9,9,0,,,,,1,0,1,0,0,31,31,7,,,,,num_3,1.474353700003121,num_3,0.1,0.9,0.1,0.75,3.60429,27.0322,return,4.068394500005525,,,,,,,18,20,female,left_right_width,2023_Oct_18_1257,exp1,2021.2.3,59.96332642953104,
,,,,,,,,,,,,,,,,5,9.175,9.5875,10,10.4125,10.825,0.4125,0.16249999999999998,0.25,1.9,10,match,36.05,331,346,361,375,390,9,9,9,9,9,,,,,1,0,1,0,0,32,32,23,,,,,num_4,2.532344800012652,num_4,0.25,1.0,0.35,0.5,12.61502,18.02146,return,3.2307478000293486,,,,,,,18,20,female,left_right_width,2023_Oct_18_1257,exp1,2021.2.3,59.96332642953104,
,,,,,,,,,,,,,,,,3,8.2,10,11.8,0,0,1.8,1.55,0.25,3.85,10,match,36.05,296,361,425,0,0,9,9,9,0,0,,,,,1,0,1,0,0,33,33,51,,,,,num_2,1.1414668000070378,num_2,0.15,1.6,0.15,2.9,5.40644,104.52449,return,4.085241199994925,,,,,,,18,20,female,left_right_width,2023_Oct_18_1257,exp1,2021.2.3,59.96332642953104,
,,,,,,,,,,,,,,,,4,9.3,9.766666666666667,10.233333333333333,10.7,0,0.4666666666666667,0.21666666666666665,0.25,1.65,10,match,36.05,335,352,369,386,0,9,9,9,9,0,,,,,1,0,1,0,0,34,34,9,,,,,num_3,1.0143403999973089,num_3,0.15,1,0.25,0.9,9.01073,32.43864,return,9.276185999973677,,,,,,,18,20,female,left_right_width,2023_Oct_18_1257,exp1,2021.2.3,59.96332642953104,
,,,,,,,,,,,,,,,,5,8.65,9.325,10,10.675,11.35,0.675,0.42500000000000004,0.25,2.95,10,match,36.05,312,336,361,385,409,9,9,9,9,9,,,,,1,0,1,0,0,35,35,33,,,,,num_5,1.2163194000022486,num_5,0.15,0.3,0.15000000000000002,0.7,5.40644,25.23005,return,6.700057200039737,,,,,,,18,20,female,left_right_width,2023_Oct_18_1257,exp1,2021.2.3,59.96332642953104,
,,,,,,,,,,,,,,,,3,9.5,10,10.5,0,0,0.5,0.09999999999999998,0.4,1.4000000000000001,10,initial,36.05,342,361,379,0,0,9,9,9,0,0,,,,,1,0,1,0,0,36,36,4,,,,,num_1,1.055613500007894,num_1,0.2,9999,0.3,9999,10.81288,360393.24009,return,7.57103890000144,,,,,,,18,20,female,left_right_width,2023_Oct_18_1257,exp1,2021.2.3,59.96332642953104,
,,,,,,,,,,,,,,,,3,9.3,10,10.7,0,0,0.7,0.44999999999999996,0.25,1.65,10,initial,36.05,335,361,386,0,0,9,9,9,0,0,,,,,1,0,1,0,0,37,37,8,,,,,num_2,1.1437122999923304,num_2,0.2,1.6,0.25,1.0,9.01073,36.04293,return,6.793336100003216,,,,,,,18,20,female,left_right_width,2023_Oct_18_1257,exp1,2021.2.3,59.96332642953104,
,,,,,,,,,,,,,,,,4,9.1,9.7,10.3,10.9,0,0.5999999999999999,0.3499999999999999,0.25,2.05,10,match,36.05,328,350,371,393,0,9,9,9,9,0,,,,,1,0,1,0,0,38,38,15,,,,,num_3,2.689735199965071,num_3,0.35,0.4,0.25,0.8,9.01073,28.83434,return,10.006800599978305,,,,,,,18,20,female,left_right_width,2023_Oct_18_1257,exp1,2021.2.3,59.96332642953104,
,,,,,,,,,,,,,,,,5,9,9.5,10,10.5,11,0.5,0.09999999999999998,0.4,2.4,10,initial,36.05,324,342,361,379,397,9,9,9,9,9,,,,,1,0,1,0,0,39,39,40,,,,,num_4,1.3334664000431076,num_4,0.2,1.3,0.39999999999999997,0.6,14.41717,21.62576,return,3.999481000006199,,,,,,,18,20,female,left_right_width,2023_Oct_18_1257,exp1,2021.2.3,59.96332642953104,
,,,,,,,,,,,,,,,,5,8.2,9.1,10,10.9,11.8,0.9,0.65,0.25,3.85,10,initial,36.05,296,328,361,393,425,9,9,9,9,9,,,,,1,0,1,0,0,40,40,50,,,,,num_4,3.1421369000454433,num_4,0.35,1.3,0.25,1.2,9.01073,43.25151,return,3.7165955000091344,,,,,,,18,20,female,left_right_width,2023_Oct_18_1257,exp1,2021.2.3,59.96332642953104,
,,,,,,,,,,,,,,,,3,8.6,10,11.4,0,0,1.4,1.2999999999999998,0.1,2.9,10,match,36.05,310,361,411,0,0,9,9,9,0,0,,,,,1,0,1,0,0,41,41,43,,,,,num_2,0.9816067999927327,num_2,0.4,1.6,0.10000000000000007,2.8,3.60429,100.9202,return,6.122407199989539,,,,,,,18,20,female,left_right_width,2023_Oct_18_1257,exp1,2021.2.3,59.96332642953104,
,,,,,,,,,,,,,,,,3,9.1,10,10.9,0,0,0.9,0.5,0.4,2.2,10,initial,36.05,328,361,393,0,0,9,9,9,0,0,,,,,1,0,1,0,0,42,42,16,,,,,num_2,1.1469819000340067,num_2,0.4,1.6,0.45,2.3,16.21932,82.89874,return,4.028207900002599,,,,,,,18,20,female,left_right_width,2023_Oct_18_1257,exp1,2021.2.3,59.96332642953104,
,,,,,,,,,,,,,,,,3,8.2,10,11.8,0,0,1.7999999999999998,1.4,0.4,4,10,match,36.05,296,361,425,0,0,9,9,9,0,0,,,,,1,0,1,0,0,43,43,53,,,,,num_2,1.27551060001133,num_2,0.35,1.6,0.44999999999999996,2.8,16.21932,100.9202,return,4.518227500026114,,,,,,,18,20,female,left_right_width,2023_Oct_18_1257,exp1,2021.2.3,59.96332642953104,
,,,,,,,,,,,,,,,,4,9.1,9.7,10.3,10.9,0,0.6000000000000001,0.20000000000000004,0.4,2.2,10,match,36.05,328,350,371,393,0,9,9,9,9,0,,,,,1,0,1,0,0,44,44,17,,,,,num_3,1.5355110000236891,num_3,0.35,1.1,0.5499999999999999,1.1,19.82361,39.64722,return,6.1452045000041835,,,,,,,18,20,female,left_right_width,2023_Oct_18_1257,exp1,2021.2.3,59.96332642953104,
,,,,,,,,,,,,,,,,5,9,9.5,10,10.5,11,0.5,0.25,0.25,2.25,10,initial,36.05,324,342,361,379,397,9,9,9,9,9,,,,,1,0,1,0,0,45,45,38,,,,,num_5,1.4957075000274926,num_5,0.35,0.7,0.3,0.55,10.81288,19.82361,return,3.8351077999686822,,,,,,,18,20,female,left_right_width,2023_Oct_18_1257,exp1,2021.2.3,59.96332642953104,
,,,,,,,,,,,,,,,,4,9.5,9.833333333333334,10.166666666666666,10.5,0,0.3333333333333333,0.08333333333333333,0.25,1.25,10,match,36.05,342,354,367,379,0,9,9,9,9,0,,,,,1,0,1,0,0,46,46,3,,,,,num_4,2.090161900036037,num_4,0.45,1.0,0.30000000000000004,0.5,10.81288,18.02146,return,4.8532195999869145,,,,,,,18,20,female,left_right_width,2023_Oct_18_1257,exp1,2021.2.3,59.96332642953104,
,,,,,,,,,,,,,,,,5,8.95,9.475,10,10.525,11.05,0.525,0.275,0.25,2.35,10,match,36.05,323,342,361,379,398,9,9,9,9,9,,,,,1,0,1,0,0,47,47,27,,,,,num_5,1.5422962000011466,num_5,0.3,1.0,0.2,0.45,7.20859,16.21932,return,4.230615599954035,,,,,,,18,20,female,left_right_width,2023_Oct_18_1257,exp1,2021.2.3,59.96332642953104,
,,,,,,,,,,,,,,,,3,9.5,10,10.5,0,0,0.5,0.25,0.25,1.25,10,initial,36.05,342,361,379,0,0,9,9,9,0,0,,,,,1,0,1,0,0,48,48,2,,,,,num_3,2.0428101000143215,num_3,0.3,0.5,0.3,0.5,10.81288,18.02146,return,2.162096999993082,,,,,,,18,20,female,left_right_width,2023_Oct_18_1257,exp1,2021.2.3,59.96332642953104,
,,,,,,,,,,,,,,,,4,9.25,9.75,10.25,10.75,0,0.5,0.09999999999999998,0.4,1.9,10,initial,36.05,333,351,370,388,0,9,9,9,9,0,,,,,1,0,1,0,0,49,49,22,,,,,num_3,1.378961900016293,num_3,0.15,0.8,0.44999999999999996,0.65,16.21932,23.4279,return,4.842330500017852,,,,,,,18,20,female,left_right_width,2023_Oct_18_1257,exp1,2021.2.3,59.96332642953104,
,,,,,,,,,,,,,,,,4,8.95,9.65,10.35,11.05,0,0.7,0.44999999999999996,0.25,2.3499999999999996,10,initial,36.05,323,348,373,398,0,9,9,9,9,0,,,,,1,0,1,0,0,50,50,26,,,,,num_3,1.0177436000085436,num_3,0.45,1,0.35000000000000003,1.1,12.61502,39.64722,return,4.593171099957544,,,,,,,18,20,female,left_right_width,2023_Oct_18_1257,exp1,2021.2.3,59.96332642953104,
,,,,,,,,,,,,,,,,5,9.25,9.625,10,10.375,10.75,0.375,0.125,0.25,1.75,10,match,36.05,333,347,361,374,388,9,9,9,9,9,,,,,1,0,1,0,0,51,51,21,,,,,num_5,1.944429700030014,num_5,0.4,0.6,0.35000000000000003,0.65,12.61502,23.4279,return,3.8333337000221945,,,,,,,18,20,female,left_right_width,2023_Oct_18_1257,exp1,2021.2.3,59.96332642953104,
,,,,,,,,,,,,,,,,5,8.2,9.1,10,10.9,11.8,0.9,0.5,0.4,4,10,initial,36.05,296,328,361,393,425,9,9,9,9,9,,,,,1,0,1,0,0,52,52,52,,,,,num_5,1.868819099967368,num_5,0.45,0.7,0.35000000000000003,0.95,12.61502,34.24078,return,3.9686214000103064,,,,,,,18,20,female,left_right_width,2023_Oct_18_1257,exp1,2021.2.3,59.96332642953104,
,,,,,,,,,,,,,,,,3,9.3,10,10.7,0,0,0.7,0.6,0.1,1.5,10,initial,36.05,335,361,386,0,0,9,9,9,0,0,,,,,1,0,1,0,0,53,53,6,,,,,num_2,0.9949979000375606,num_2,0.1,1.6,0.1,2.3,3.60429,82.89874,return,3.7531703999848105,,,,,,,18,20,female,left_right_width,2023_Oct_18_1257,exp1,2021.2.3,59.96332642953104,
,,,,,,,,,,,,,,,,,,,,,,,,,,,,,,,,,,,,,,,,,,,1,0,1,0,,,,,,,,,,,,,,,,,,,,,,1157.5940974999685,None,1157.5940974999685,None,18,20,female,left_right_width,2023_Oct_18_1257,exp1,2021.2.3,59.96332642953104,
,,,,,,,,,,,,,,,,3,9.5,10,10.5,0,0,0.5,0.09999999999999998,0.4,1.4000000000000001,10,initial,36.05,342,361,379,0,0,9,9,9,0,0,,,,,2,0,2,0,0,0,0,4,,,,,num_2,1.051134200009983,num_2,0.3,1.6,0.35,0.6,12.61502,21.62576,return,7.296028700016905,,,,,,,18,20,female,left_right_width,2023_Oct_18_1257,exp1,2021.2.3,59.96332642953104,
,,,,,,,,,,,,,,,,5,8.95,9.475,10,10.525,11.05,0.525,0.42500000000000004,0.1,2.2,10,match,36.05,323,342,361,379,398,9,9,9,9,9,,,,,2,0,2,0,0,1,1,25,,,,,num_4,1.8130177999846637,num_4,0.2,0.4,0.10000000000000002,0.6,3.60429,21.62576,return,4.810571100038942,,,,,,,18,20,female,left_right_width,2023_Oct_18_1257,exp1,2021.2.3,59.96332642953104,
,,,,,,,,,,,,,,,,4,8.95,9.65,10.35,11.05,0,0.7,0.44999999999999996,0.25,2.3499999999999996,10,initial,36.05,323,348,373,398,0,9,9,9,9,0,,,,,2,0,2,0,0,2,2,26,,,,,num_4,1.3397319000214338,num_4,0.15,1.3,0.2,0.8,7.20859,28.83434,return,4.3226205999962986,,,,,,,18,20,female,left_right_width,2023_Oct_18_1257,exp1,2021.2.3,59.96332642953104,
,,,,,,,,,,,,,,,,4,8.95,9.65,10.35,11.05,0,0.7,0.29999999999999993,0.4,2.5,10,initial,36.05,323,348,373,398,0,9,9,9,9,0,,,,,2,0,2,0,0,3,3,28,,,,,num_3,1.5344068999984302,num_3,0.35,1,0.49999999999999994,1.05,18.02146,37.84507,return,4.751029100036249,,,,,,,18,20,female,left_right_width,2023_Oct_18_1257,exp1,2021.2.3,59.96332642953104,
,,,,,,,,,,,,,,,,3,9.5,10,10.5,0,0,0.5,0.25,0.25,1.25,10,initial,36.05,342,361,379,0,0,9,9,9,0,0,,,,,2,0,2,0,0,4,4,2,,,,,num_2,0.9849439999670722,num_2,0.25,1.6,0.3,0.7,10.81288,25.23005,return,3.8891085000359453,,,,,,,18,20,female,left_right_width,2023_Oct_18_1257,exp1,2021.2.3,59.96332642953104,
,,,,,,,,,,,,,,,,4,9.1,9.7,10.3,10.9,0,0.6000000000000001,0.20000000000000004,0.4,2.2,10,match,36.05,328,350,371,393,0,9,9,9,9,0,,,,,2,0,2,0,0,5,5,17,,,,,num_3,1.6556426000315696,num_3,0.15,0.5,0.35,0.7,12.61502,25.23005,return,5.297452400031034,,,,,,,18,20,female,left_right_width,2023_Oct_18_1257,exp1,2021.2.3,59.96332642953104,
,,,,,,,,,,,,,,,,4,9.5,9.833333333333334,10.166666666666666,10.5,0,0.33333333333333337,0.23333333333333336,0.1,1.1,10,match,36.05,342,354,367,379,0,9,9,9,9,0,,,,,2,0,2,0,0,6,6,1,,,,,num_3,1.5770224999869242,num_3,0.4,1.1,0.20000000000000007,0.55,7.20859,19.82361,return,4.9200860999990255,,,,,,,18,20,female,left_right_width,2023_Oct_18_1257,exp1,2021.2.3,59.96332642953104,
,,,,,,,,,,,,,,,,5,8.6,9.3,10,10.7,11.4,0.7,0.29999999999999993,0.4,3.1999999999999997,10,initial,36.05,310,335,361,386,411,9,9,9,9,9,,,,,2,0,2,0,0,7,7,46,,,,,num_4,4.3012868000078015,num_4,0.25,1.2,0.3,0.6,10.81288,21.62576,return,5.3733200000133365,,,,,,,18,20,female,left_right_width,2023_Oct_18_1257,exp1,2021.2.3,59.96332642953104,
,,,,,,,,,,,,,,,,4,9.3,9.766666666666667,10.233333333333333,10.7,0,0.4666666666666667,0.06666666666666665,0.4,1.8,10,match,36.05,335,352,369,386,0,9,9,9,9,0,,,,,2,0,2,0,0,8,8,11,,,,,num_3,1.5450048999628052,num_3,0.35,1.3,0.49999999999999994,0.7,18.02146,25.23005,return,7.049932099995203,,,,,,,18,20,female,left_right_width,2023_Oct_18_1257,exp1,2021.2.3,59.96332642953104,
,,,,,,,,,,,,,,,,5,8.95,9.475,10,10.525,11.05,0.525,0.275,0.25,2.35,10,match,36.05,323,342,361,379,398,9,9,9,9,9,,,,,2,0,2,0,0,9,9,27,,,,,num_5,2.4970430999528617,num_5,0.3,0.6,0.2,0.6,7.20859,21.62576,return,5.086348799988627,,,,,,,18,20,female,left_right_width,2023_Oct_18_1257,exp1,2021.2.3,59.96332642953104,
,,,,,,,,,,,,,,,,4,9.25,9.75,10.25,10.75,0,0.5,0.25,0.25,1.75,10,initial,36.05,333,351,370,388,0,9,9,9,9,0,,,,,2,0,2,0,0,10,10,20,,,,,num_4,2.2096476000151597,num_4,0.1,0.5,0.2,0.6,7.20859,21.62576,return,2.7290684999898076,,,,,,,18,20,female,left_right_width,2023_Oct_18_1257,exp1,2021.2.3,59.96332642953104,
,,,,,,,,,,,,,,,,5,8.65,9.325,10,10.675,11.35,0.675,0.275,0.4,3.1,10,match,36.05,312,336,361,385,409,9,9,9,9,9,,,,,2,0,2,0,0,11,11,35,,,,,num_4,1.4196766000241041,num_4,0.2,1.2,0.25,0.6,9.01073,21.62576,return,3.041275800031144,,,,,,,18,20,female,left_right_width,2023_Oct_18_1257,exp1,2021.2.3,59.96332642953104,
,,,,,,,,,,,,,,,,3,8.525,10,11.475,0,0,1.475,1.225,0.25,3.2,10,match,36.05,307,361,414,0,0,9,9,9,0,0,,,,,2,0,2,0,0,12,12,47,,,,,num_2,0.9961341000162065,num_2,0.1,1.6,0.2,1.9,7.20859,68.48156,return,3.786819800036028,,,,,,,18,20,female,left_right_width,2023_Oct_18_1257,exp1,2021.2.3,59.96332642953104,
,,,,,,,,,,,,,,,,3,8.2,10,11.8,0,0,1.8,1.55,0.25,3.85,10,match,36.05,296,361,425,0,0,9,9,9,0,0,,,,,2,0,2,0,0,13,13,51,,,,,num_2,0.893113500031177,num_2,0.45,1.6,0.25000000000000006,2.7,9.01073,97.31591,return,3.990920400014147,,,,,,,18,20,female,left_right_width,2023_Oct_18_1257,exp1,2021.2.3,59.96332642953104,
,,,,,,,,,,,,,,,,4,9.3,9.766666666666667,10.233333333333333,10.7,0,0.4666666666666667,0.3666666666666667,0.1,1.5,10,match,36.05,335,352,369,386,0,9,9,9,9,0,,,,,2,0,2,0,0,14,14,7,,,,,num_3,1.2652039999957196,num_3,0.15,1.2,0.15,0.85,5.40644,30.63649,return,5.0704033999936655,,,,,,,18,20,female,left_right_width,2023_Oct_18_1257,exp1,2021.2.3,59.96332642953104,
,,,,,,,,,,,,,,,,5,9,9.5,10,10.5,11,0.5,0.4,0.1,2.1,10,initial,36.05,324,342,361,379,397,9,9,9,9,9,,,,,2,0,2,0,0,15,15,36,,,,,num_4,1.8437975000124425,num_4,0.25,1.2,0.15000000000000002,0.6,5.40644,21.62576,return,3.560943100019358,,,,,,,18,20,female,left_right_width,2023_Oct_18_1257,exp1,2021.2.3,59.96332642953104,
,,,,,,,,,,,,,,,,3,9.1,10,10.9,0,0,0.9,0.65,0.25,2.05,10,initial,36.05,328,361,393,0,0,9,9,9,0,0,,,,,2,0,2,0,0,16,16,14,,,,,num_2,1.3710319999954663,num_2,0.15,1.6,0.15,1.1,5.40644,39.64722,return,6.932063399988692,,,,,,,18,20,female,left_right_width,2023_Oct_18_1257,exp1,2021.2.3,59.96332642953104,
,,,,,,,,,,,,,,,,4,8.65,9.55,10.45,11.35,0,0.9,0.8,0.1,2.8000000000000003,10,initial,36.05,312,344,377,409,0,9,9,9,9,0,,,,,2,0,2,0,0,17,17,30,,,,,num_3,1.6702334000146948,num_3,0.1,0.5,0.1,1.1,3.60429,39.64722,return,3.2000027000322007,,,,,,,18,20,female,left_right_width,2023_Oct_18_1257,exp1,2021.2.3,59.96332642953104,
,,,,,,,,,,,,,,,,4,8.95,9.65,10.35,11.05,0,0.7,0.6,0.1,2.1999999999999997,10,initial,36.05,323,348,373,398,0,9,9,9,9,0,,,,,2,0,2,0,0,18,18,24,,,,,num_3,1.4668651999672875,num_3,0.2,0.8,0.10000000000000002,1.1,3.60429,39.64722,return,8.591451200016309,,,,,,,18,20,female,left_right_width,2023_Oct_18_1257,exp1,2021.2.3,59.96332642953104,
,,,,,,,,,,,,,,,,4,9.25,9.75,10.25,10.75,0,0.5,0.4,0.1,1.6,10,initial,36.05,333,351,370,388,0,9,9,9,9,0,,,,,2,0,2,0,0,19,19,18,,,,,num_4,1.882006099971477,num_4,0.15,0.8,0.09999999999999999,0.7,3.60429,25.23005,return,5.9809618999715894,,,,,,,18,20,female,left_right_width,2023_Oct_18_1257,exp1,2021.2.3,59.96332642953104,
,,,,,,,,,,,,,,,,5,9,9.5,10,10.5,11,0.5,0.09999999999999998,0.4,2.4,10,initial,36.05,324,342,361,379,397,9,9,9,9,9,,,,,2,0,2,0,0,20,20,40,,,,,num_4,1.8298623000155203,num_4,0.4,1.2,0.6000000000000001,0.8,21.62576,28.83434,return,11.339675299997907,,,,,,,18,20,female,left_right_width,2023_Oct_18_1257,exp1,2021.2.3,59.96332642953104,
,,,,,,,,,,,,,,,,4,9.25,9.75,10.25,10.75,0,0.5,0.09999999999999998,0.4,1.9,10,initial,36.05,333,351,370,388,0,9,9,9,9,0,,,,,2,0,2,0,0,21,21,22,,,,,num_3,2.6805671000038274,num_3,0.15,1.1,0.44999999999999996,0.65,16.21932,23.4279,return,5.549228599993512,,,,,,,18,20,female,left_right_width,2023_Oct_18_1257,exp1,2021.2.3,59.96332642953104,
,,,,,,,,,,,,,,,,4,8.65,9.55,10.45,11.35,0,0.9,0.65,0.25,2.95,10,initial,36.05,312,344,377,409,0,9,9,9,9,0,,,,,2,0,2,0,0,22,22,32,,,,,num_3,1.1566192000173032,num_3,0.15,0.5,0.25,1.2,9.01073,43.25151,return,4.438461899990216,,,,,,,18,20,female,left_right_width,2023_Oct_18_1257,exp1,2021.2.3,59.96332642953104,
,,,,,,,,,,,,,,,,3,8.6,10,11.4,0,0,1.4,1.2999999999999998,0.1,2.9,10,match,36.05,310,361,411,0,0,9,9,9,0,0,,,,,2,0,2,0,0,23,23,43,,,,,num_3,1.264881899987813,num_3,0.35,0.7,0.10000000000000002,1.35,3.60429,48.65795,return,4.896004100039136,,,,,,,18,20,female,left_right_width,2023_Oct_18_1257,exp1,2021.2.3,59.96332642953104,
,,,,,,,,,,,,,,,,3,9.3,10,10.7,0,0,0.7,0.29999999999999993,0.4,1.8,10,initial,36.05,335,361,386,0,0,9,9,9,0,0,,,,,2,0,2,0,0,24,24,10,,,,,num_2,1.1843353000003844,num_2,0.1,1.6,0.49999999999999994,1.0,18.02146,36.04293,return,5.055953799979761,,,,,,,18,20,female,left_right_width,2023_Oct_18_1257,exp1,2021.2.3,59.96332642953104,
,,,,,,,,,,,,,,,,3,8.2,10,11.8,0,0,1.8000000000000003,1.7000000000000002,0.1,3.7,10,match,36.05,296,361,425,0,0,9,9,9,0,0,,,,,2,0,2,0,0,25,25,49,,,,,num_2,1.0682160000433214,num_2,0.1,1.6,0.1,3.0,3.60429,108.12878,return,4.273475900001358,,,,,,,18,20,female,left_right_width,2023_Oct_18_1257,exp1,2021.2.3,59.96332642953104,
,,,,,,,,,,,,,,,,3,9,10,11,0,0,0.9999999999999999,0.5999999999999999,0.4,2.4,10,match,36.05,324,361,397,0,0,9,9,9,0,0,,,,,2,0,2,0,0,26,26,41,,,,,num_2,0.9820195999927819,num_2,0.1,1.6,0.35,2.0,12.61502,72.08586,return,5.006132999958936,,,,,,,18,20,female,left_right_width,2023_Oct_18_1257,exp1,2021.2.3,59.96332642953104,
,,,,,,,,,,,,,,,,5,9.25,9.625,10,10.375,10.75,0.375,0.125,0.25,1.75,10,match,36.05,333,347,361,374,388,9,9,9,9,9,,,,,2,0,2,0,0,27,27,21,,,,,num_4,2.204276899981778,num_4,0.1,0.6,0.35,0.6,12.61502,21.62576,return,5.888037000026088,,,,,,,18,20,female,left_right_width,2023_Oct_18_1257,exp1,2021.2.3,59.96332642953104,
,,,,,,,,,,,,,,,,3,9,10,11,0,0,1,0.9,0.1,2.1,10,match,36.05,324,361,397,0,0,9,9,9,0,0,,,,,2,0,2,0,0,28,28,37,,,,,num_2,1.9654761000419967,num_2,0.35,1.6,0.10000000000000002,1.9,3.60429,68.48156,return,3.435489700001199,,,,,,,18,20,female,left_right_width,2023_Oct_18_1257,exp1,2021.2.3,59.96332642953104,
,,,,,,,,,,,,,,,,5,9.25,9.625,10,10.375,10.75,0.375,0.275,0.1,1.6,10,match,36.05,333,347,361,374,388,9,9,9,9,9,,,,,2,0,2,0,0,29,29,19,,,,,num_4,1.8611915999790654,num_4,0.1,1.3,0.1,0.5,3.60429,18.02146,return,4.423262699972838,,,,,,,18,20,female,left_right_width,2023_Oct_18_1257,exp1,2021.2.3,59.96332642953104,
,,,,,,,,,,,,,,,,5,8.2,9.1,10,10.9,11.8,0.9,0.65,0.25,3.85,10,initial,36.05,296,328,361,393,425,9,9,9,9,9,,,,,2,0,2,0,0,30,30,50,,,,,num_5,4.86318470002152,num_5,0.25,1.1,0.2,0.6,7.20859,21.62576,return,8.171528199978638,,,,,,,18,20,female,left_right_width,2023_Oct_18_1257,exp1,2021.2.3,59.96332642953104,
,,,,,,,,,,,,,,,,3,8.6,10,11.4,0,0,1.4,1.15,0.25,3.05,10,match,36.05,310,361,411,0,0,9,9,9,0,0,,,,,2,0,2,0,0,31,31,45,,,,,num_2,1.0781455000396818,num_2,0.35,1.6,0.2,2.0,7.20859,72.08586,return,4.009566899971105,,,,,,,18,20,female,left_right_width,2023_Oct_18_1257,exp1,2021.2.3,59.96332642953104,
,,,,,,,,,,,,,,,,5,8.6,9.3,10,10.7,11.4,0.7,0.44999999999999996,0.25,3.05,10,initial,36.05,310,335,361,386,411,9,9,9,9,9,,,,,2,0,2,0,0,32,32,44,,,,,num_4,1.643657799984794,num_4,0.45,0.9,0.20000000000000007,1.0,7.20859,36.04293,return,3.6251432999852113,,,,,,,18,20,female,left_right_width,2023_Oct_18_1257,exp1,2021.2.3,59.96332642953104,
,,,,,,,,,,,,,,,,4,8.65,9.55,10.45,11.35,0,0.9,0.5,0.4,3.1,10,initial,36.05,312,344,377,409,0,9,9,9,9,0,,,,,2,0,2,0,0,33,33,34,,,,,num_4,2.432137799973134,num_4,0.4,0.9,0.25000000000000006,0.9,9.01073,32.43864,return,3.0070722000091337,,,,,,,18,20,female,left_right_width,2023_Oct_18_1257,exp1,2021.2.3,59.96332642953104,
,,,,,,,,,,,,,,,,3,9.1,10,10.9,0,0,0.9,0.5,0.4,2.2,10,initial,36.05,328,361,393,0,0,9,9,9,0,0,,,,,2,0,2,0,0,34,34,16,,,,,num_3,1.7902454999857582,num_3,0.25,0.8,0.3,1.0,10.81288,36.04293,return,6.390351300011389,,,,,,,18,20,female,left_right_width,2023_Oct_18_1257,exp1,2021.2.3,59.96332642953104,
,,,,,,,,,,,,,,,,4,9.1,9.7,10.3,10.9,0,0.5999999999999999,0.3499999999999999,0.25,2.05,10,match,36.05,328,350,371,393,0,9,9,9,9,0,,,,,2,0,2,0,0,35,35,15,,,,,num_3,2.6323726000264287,num_3,0.1,1.1,0.3,0.85,10.81288,30.63649,return,4.013375399983488,,,,,,,18,20,female,left_right_width,2023_Oct_18_1257,exp1,2021.2.3,59.96332642953104,
,,,,,,,,,,,,,,,,5,8.2,9.1,10,10.9,11.8,0.9,0.8,0.1,3.7,10,initial,36.05,296,328,361,393,425,9,9,9,9,9,,,,,2,0,2,0,0,36,36,48,,,,,num_4,2.020200000028126,num_4,0.4,0.7,0.10000000000000007,0.8,3.60429,28.83434,return,5.442592400009744,,,,,,,18,20,female,left_right_width,2023_Oct_18_1257,exp1,2021.2.3,59.96332642953104,
,,,,,,,,,,,,,,,,5,8.65,9.325,10,10.675,11.35,0.675,0.42500000000000004,0.25,2.95,10,match,36.05,312,336,361,385,409,9,9,9,9,9,,,,,2,0,2,0,0,37,37,33,,,,,num_5,2.011147200013511,num_5,0.35,0.6,0.15000000000000002,0.65,5.40644,23.4279,return,9.257762700028252,,,,,,,18,20,female,left_right_width,2023_Oct_18_1257,exp1,2021.2.3,59.96332642953104,
,,,,,,,,,,,,,,,,5,9,9.5,10,10.5,11,0.5,0.25,0.25,2.25,10,initial,36.05,324,342,361,379,397,9,9,9,9,9,,,,,2,0,2,0,0,38,38,38,,,,,num_4,1.8316568000009283,num_4,0.4,0.9,0.30000000000000004,0.5,10.81288,18.02146,return,9.131258699984755,,,,,,,18,20,female,left_right_width,2023_Oct_18_1257,exp1,2021.2.3,59.96332642953104,
,,,,,,,,,,,,,,,,3,9.1,10,10.9,0,0,0.9,0.8,0.1,1.9000000000000001,10,initial,36.05,328,361,393,0,0,9,9,9,0,0,,,,,2,0,2,0,0,39,39,12,,,,,num_2,0.9450576000381261,num_2,0.35,1.6,0.15000000000000002,2.1,5.40644,75.69015,return,2.697673999995459,,,,,,,18,20,female,left_right_width,2023_Oct_18_1257,exp1,2021.2.3,59.96332642953104,
,,,,,,,,,,,,,,,,3,9.5,10,10.5,0,0,0.5,0.4,0.1,1.1,10,initial,36.05,342,361,379,0,0,9,9,9,0,0,,,,,2,0,2,0,0,40,40,0,,,,,num_2,1.2172143999487162,num_2,0.4,1.6,0.20000000000000007,0.8,7.20859,28.83434,return,3.167350199946668,,,,,,,18,20,female,left_right_width,2023_Oct_18_1257,exp1,2021.2.3,59.96332642953104,
,,,,,,,,,,,,,,,,5,8.6,9.3,10,10.7,11.4,0.7,0.6,0.1,2.9,10,initial,36.05,310,335,361,386,411,9,9,9,9,9,,,,,2,0,2,0,0,41,41,42,,,,,num_4,2.0036493000225164,num_4,0.2,1.1,0.15000000000000002,0.6,5.40644,21.62576,return,2.7529164000297897,,,,,,,18,20,female,left_right_width,2023_Oct_18_1257,exp1,2021.2.3,59.96332642953104,
,,,,,,,,,,,,,,,,4,9.1,9.7,10.3,10.9,0,0.6,0.5,0.1,1.9,10,match,36.05,328,350,371,393,0,9,9,9,9,0,,,,,2,0,2,0,0,42,42,13,,,,,num_4,1.9109429999953136,num_4,0.35,0.7,0.10000000000000002,0.6,3.60429,21.62576,return,6.0100334999733604,,,,,,,18,20,female,left_right_width,2023_Oct_18_1257,exp1,2021.2.3,59.96332642953104,
,,,,,,,,,,,,,,,,5,9.175,9.5875,10,10.4125,10.825,0.4125,0.16249999999999998,0.25,1.9,10,match,36.05,331,346,361,375,390,9,9,9,9,9,,,,,2,0,2,0,0,43,43,23,,,,,num_5,5.039968400029466,num_5,0.45,0.6,0.35000000000000003,0.5,12.61502,18.02146,return,3.5747272999724373,,,,,,,18,20,female,left_right_width,2023_Oct_18_1257,exp1,2021.2.3,59.96332642953104,
,,,,,,,,,,,,,,,,3,9.3,10,10.7,0,0,0.7,0.6,0.1,1.5,10,initial,36.05,335,361,386,0,0,9,9,9,0,0,,,,,2,0,2,0,0,44,44,6,,,,,num_2,1.2123199999914505,num_2,0.3,1.6,0.15000000000000002,2.3,5.40644,82.89874,return,3.132332500012126,,,,,,,18,20,female,left_right_width,2023_Oct_18_1257,exp1,2021.2.3,59.96332642953104,
,,,,,,,,,,,,,,,,3,8.2,10,11.8,0,0,1.7999999999999998,1.4,0.4,4,10,match,36.05,296,361,425,0,0,9,9,9,0,0,,,,,2,0,2,0,0,45,45,53,,,,,num_2,1.2363852999988012,num_2,0.45,1.6,0.5,2.9,18.02146,104.52449,return,4.8799498999724165,,,,,,,18,20,female,left_right_width,2023_Oct_18_1257,exp1,2021.2.3,59.96332642953104,
,,,,,,,,,,,,,,,,4,9.5,9.833333333333334,10.166666666666666,10.5,0,0.3333333333333333,0.08333333333333333,0.25,1.25,10,match,36.05,342,354,367,379,0,9,9,9,9,0,,,,,2,0,2,0,0,46,46,3,,,,,num_3,1.3168953999993391,num_3,0.15,0.8,0.35,0.5,12.61502,18.02146,return,4.494274500000756,,,,,,,18,20,female,left_right_width,2023_Oct_18_1257,exp1,2021.2.3,59.96332642953104,
,,,,,,,,,,,,,,,,5,8.95,9.475,10,10.525,11.05,0.525,0.125,0.4,2.5,10,match,36.05,323,342,361,379,398,9,9,9,9,9,,,,,2,0,2,0,0,47,47,29,,,,,num_4,1.8124401000095531,num_4,0.1,0.3,0.35,0.5,12.61502,18.02146,return,4.601510600012261,,,,,,,18,20,female,left_right_width,2023_Oct_18_1257,exp1,2021.2.3,59.96332642953104,
,,,,,,,,,,,,,,,,4,9.425,9.808333333333334,10.191666666666666,10.575,0,0.3833333333333333,0.1333333333333333,0.25,1.4,10,match,36.05,340,354,367,381,0,9,9,9,9,0,,,,,2,0,2,0,0,48,48,5,,,,,num_4,1.7637218000018038,num_4,0.3,0.5,0.3,0.4,10.81288,14.41717,return,6.5380800000275485,,,,,,,18,20,female,left_right_width,2023_Oct_18_1257,exp1,2021.2.3,59.96332642953104,
,,,,,,,,,,,,,,,,3,9,10,11,0,0,1,0.75,0.25,2.25,10,match,36.05,324,361,397,0,0,9,9,9,0,0,,,,,2,0,2,0,0,49,49,39,,,,,num_2,1.359092700004112,num_2,0.1,1.6,0.2,1.9,7.20859,68.48156,return,3.1285188000183553,,,,,,,18,20,female,left_right_width,2023_Oct_18_1257,exp1,2021.2.3,59.96332642953104,
,,,,,,,,,,,,,,,,5,8.2,9.1,10,10.9,11.8,0.9,0.5,0.4,4,10,initial,36.05,296,328,361,393,425,9,9,9,9,9,,,,,2,0,2,0,0,50,50,52,,,,,num_4,1.6991143999621272,num_4,0.25,1.0,0.39999999999999997,0.9,14.41717,32.43864,return,3.021823699993547,,,,,,,18,20,female,left_right_width,2023_Oct_18_1257,exp1,2021.2.3,59.96332642953104,
,,,,,,,,,,,,,,,,3,9.3,10,10.7,0,0,0.7,0.44999999999999996,0.25,1.65,10,initial,36.05,335,361,386,0,0,9,9,9,0,0,,,,,2,0,2,0,0,51,51,8,,,,,num_3,1.661679600016214,num_3,0.25,0.8,0.25,0.85,9.01073,30.63649,return,3.098096500034444,,,,,,,18,20,female,left_right_width,2023_Oct_18_1257,exp1,2021.2.3,59.96332642953104,
,,,,,,,,,,,,,,,,4,9.3,9.766666666666667,10.233333333333333,10.7,0,0.4666666666666667,0.21666666666666665,0.25,1.65,10,match,36.05,335,352,369,386,0,9,9,9,9,0,,,,,2,0,2,0,0,52,52,9,,,,,num_3,1.6071570999920368,num_3,0.1,1,0.3,0.55,10.81288,19.82361,return,4.803767200035509,,,,,,,18,20,female,left_right_width,2023_Oct_18_1257,exp1,2021.2.3,59.96332642953104,
,,,,,,,,,,,,,,,,5,8.65,9.325,10,10.675,11.35,0.6749999999999999,0.575,0.1,2.8,10,match,36.05,312,336,361,385,409,9,9,9,9,9,,,,,2,0,2,0,0,53,53,31,,,,,num_4,1.430204899981618,num_4,0.45,1.0,0.15000000000000008,1.0,5.40644,36.04293,return,1.96552970004268,,,,,,,18,20,female,left_right_width,2023_Oct_18_1257,exp1,2021.2.3,59.96332642953104,
,,,,,,,,,,,,,,,,,,,,,,,,,,,,,,,,,,,,,,,,,,,2,0,2,0,,,,,,,,,,,,,,,,,,,,,,1612.1768430999946,None,1612.1768430999946,None,18,20,female,left_right_width,2023_Oct_18_1257,exp1,2021.2.3,59.96332642953104,
,,,,,,,,,,,,,,,,3,9,10,11,0,0,1,0.75,0.25,2.25,10,match,36.05,324,361,397,0,0,9,9,9,0,0,,,,,3,0,3,0,0,0,0,39,,,,,num_2,0.8995029999641702,num_2,0.35,1.6,0.15000000000000002,2.3,5.40644,82.89874,return,4.5911755000124685,,,,,,,18,20,female,left_right_width,2023_Oct_18_1257,exp1,2021.2.3,59.96332642953104,
,,,,,,,,,,,,,,,,5,8.2,9.1,10,10.9,11.8,0.9,0.5,0.4,4,10,initial,36.05,296,328,361,393,425,9,9,9,9,9,,,,,3,0,3,0,0,1,1,52,,,,,num_5,2.265579600003548,num_5,0.25,0.5,0.3,0.75,10.81288,27.0322,return,3.375086000014562,,,,,,,18,20,female,left_right_width,2023_Oct_18_1257,exp1,2021.2.3,59.96332642953104,
,,,,,,,,,,,,,,,,5,9.175,9.5875,10,10.4125,10.825,0.4125,0.16249999999999998,0.25,1.9,10,match,36.05,331,346,361,375,390,9,9,9,9,9,,,,,3,0,3,0,0,2,2,23,,,,,num_4,1.8396968999877572,num_4,0.3,1.1,0.3,0.5,10.81288,18.02146,return,3.2974422000115737,,,,,,,18,20,female,left_right_width,2023_Oct_18_1257,exp1,2021.2.3,59.96332642953104,
,,,,,,,,,,,,,,,,3,8.2,10,11.8,0,0,1.8,1.55,0.25,3.85,10,match,36.05,296,361,425,0,0,9,9,9,0,0,,,,,3,0,3,0,0,3,3,51,,,,,num_2,1.7036082000122406,num_2,0.3,1.6,0.3,2.4,10.81288,86.50303,return,2.9615979000227526,,,,,,,18,20,female,left_right_width,2023_Oct_18_1257,exp1,2021.2.3,59.96332642953104,
,,,,,,,,,,,,,,,,4,9.5,9.833333333333334,10.166666666666666,10.5,0,0.33333333333333337,0.23333333333333336,0.1,1.1,10,match,36.05,342,354,367,379,0,9,9,9,9,0,,,,,3,0,3,0,0,4,4,1,,,,,num_3,1.6724117999547161,num_3,0.35,0.5,0.2,0.45,7.20859,16.21932,return,5.013228600029834,,,,,,,18,20,female,left_right_width,2023_Oct_18_1257,exp1,2021.2.3,59.96332642953104,
,,,,,,,,,,,,,,,,4,9.1,9.7,10.3,10.9,0,0.6000000000000001,0.20000000000000004,0.4,2.2,10,match,36.05,328,350,371,393,0,9,9,9,9,0,,,,,3,0,3,0,0,5,5,17,,,,,num_3,1.7001423999899998,num_3,0.25,0.6,0.39999999999999997,0.6,14.41717,21.62576,return,3.1496729999780655,,,,,,,18,20,female,left_right_width,2023_Oct_18_1257,exp1,2021.2.3,59.96332642953104,
,,,,,,,,,,,,,,,,3,9.1,10,10.9,0,0,0.9,0.65,0.25,2.05,10,initial,36.05,328,361,393,0,0,9,9,9,0,0,,,,,3,0,3,0,0,6,6,14,,,,,num_2,1.6204158999607898,num_2,0.35,1.6,0.25,1.3,9.01073,46.85581,return,2.8500551999895833,,,,,,,18,20,female,left_right_width,2023_Oct_18_1257,exp1,2021.2.3,59.96332642953104,
,,,,,,,,,,,,,,,,5,8.65,9.325,10,10.675,11.35,0.675,0.275,0.4,3.1,10,match,36.05,312,336,361,385,409,9,9,9,9,9,,,,,3,0,3,0,0,7,7,35,,,,,num_5,1.6870412999996915,num_5,0.3,0.7,0.25,0.5,9.01073,18.02146,return,2.5322430999949574,,,,,,,18,20,female,left_right_width,2023_Oct_18_1257,exp1,2021.2.3,59.96332642953104,
,,,,,,,,,,,,,,,,4,9.25,9.75,10.25,10.75,0,0.5,0.25,0.25,1.75,10,initial,36.05,333,351,370,388,0,9,9,9,9,0,,,,,3,0,3,0,0,8,8,20,,,,,num_4,1.749605699966196,num_4,0.35,1.3,0.3,0.6,10.81288,21.62576,return,4.703818299982231,,,,,,,18,20,female,left_right_width,2023_Oct_18_1257,exp1,2021.2.3,59.96332642953104,
,,,,,,,,,,,,,,,,4,9.425,9.808333333333334,10.191666666666666,10.575,0,0.3833333333333333,0.1333333333333333,0.25,1.4,10,match,36.05,340,354,367,381,0,9,9,9,9,0,,,,,3,0,3,0,0,9,9,5,,,,,num_4,1.7537244000122882,num_4,0.3,1.0,0.15000000000000002,0.3,5.40644,10.81288,return,11.122387400013395,,,,,,,18,20,female,left_right_width,2023_Oct_18_1257,exp1,2021.2.3,59.96332642953104,
,,,,,,,,,,,,,,,,3,9.3,10,10.7,0,0,0.7,0.6,0.1,1.5,10,initial,36.05,335,361,386,0,0,9,9,9,0,0,,,,,3,0,3,0,0,10,10,6,,,,,num_1,1.3136374999885447,num_1,0.2,9999,0.2,9999,7.20859,360393.24009,return,1.3848721000249498,,,,,,,18,20,female,left_right_width,2023_Oct_18_1257,exp1,2021.2.3,59.96332642953104,
,,,,,,,,,,,,,,,,3,8.6,10,11.4,0,0,1.4,1.15,0.25,3.05,10,match,36.05,310,361,411,0,0,9,9,9,0,0,,,,,3,0,3,0,0,11,11,45,,,,,num_2,1.077822700026445,num_2,0.3,1.6,0.15000000000000002,1.7,5.40644,61.27298,return,3.4325204999768175,,,,,,,18,20,female,left_right_width,2023_Oct_18_1257,exp1,2021.2.3,59.96332642953104,
,,,,,,,,,,,,,,,,5,8.6,9.3,10,10.7,11.4,0.7,0.44999999999999996,0.25,3.05,10,initial,36.05,310,335,361,386,411,9,9,9,9,9,,,,,3,0,3,0,0,12,12,44,,,,,num_5,2.3070082999765873,num_5,0.35,0.7,0.15000000000000002,0.6,5.40644,21.62576,return,3.605665899987798,,,,,,,18,20,female,left_right_width,2023_Oct_18_1257,exp1,2021.2.3,59.96332642953104,
,,,,,,,,,,,,,,,,4,9.1,9.7,10.3,10.9,0,0.5999999999999999,0.3499999999999999,0.25,2.05,10,match,36.05,328,350,371,393,0,9,9,9,9,0,,,,,3,0,3,0,0,13,13,15,,,,,num_4,2.4559733999776654,num_4,0.3,1.3,0.2,0.6,7.20859,21.62576,return,5.539182799984701,,,,,,,18,20,female,left_right_width,2023_Oct_18_1257,exp1,2021.2.3,59.96332642953104,
,,,,,,,,,,,,,,,,3,9.3,10,10.7,0,0,0.7,0.44999999999999996,0.25,1.65,10,initial,36.05,335,361,386,0,0,9,9,9,0,0,,,,,3,0,3,0,0,14,14,8,,,,,num_3,1.2950798000092618,num_3,0.1,1.1,0.25,0.6,9.01073,21.62576,return,4.774875800008886,,,,,,,18,20,female,left_right_width,2023_Oct_18_1257,exp1,2021.2.3,59.96332642953104,
,,,,,,,,,,,,,,,,4,9.3,9.766666666666667,10.233333333333333,10.7,0,0.4666666666666667,0.21666666666666665,0.25,1.65,10,match,36.05,335,352,369,386,0,9,9,9,9,0,,,,,3,0,3,0,0,15,15,9,,,,,num_4,1.09160470002098,num_4,0.1,0.3,0.2,0.4,7.20859,14.41717,return,5.269444799982011,,,,,,,18,20,female,left_right_width,2023_Oct_18_1257,exp1,2021.2.3,59.96332642953104,
,,,,,,,,,,,,,,,,3,9.5,10,10.5,0,0,0.5,0.4,0.1,1.1,10,initial,36.05,342,361,379,0,0,9,9,9,0,0,,,,,3,0,3,0,0,16,16,0,,,,,num_3,1.0351714999997057,num_3,0.25,1.3,0.10000000000000002,0.55,3.60429,19.82361,return,7.4867634999682195,,,,,,,18,20,female,left_right_width,2023_Oct_18_1257,exp1,2021.2.3,59.96332642953104,
,,,,,,,,,,,,,,,,4,8.95,9.65,10.35,11.05,0,0.7,0.29999999999999993,0.4,2.5,10,initial,36.05,323,348,373,398,0,9,9,9,9,0,,,,,3,0,3,0,0,17,17,28,,,,,num_3,1.0618147000204772,num_3,0.35,0.8,0.39999999999999997,1.05,14.41717,37.84507,return,3.593509099970106,,,,,,,18,20,female,left_right_width,2023_Oct_18_1257,exp1,2021.2.3,59.96332642953104,
,,,,,,,,,,,,,,,,4,8.95,9.65,10.35,11.05,0,0.7,0.44999999999999996,0.25,2.3499999999999996,10,initial,36.05,323,348,373,398,0,9,9,9,9,0,,,,,3,0,3,0,0,18,18,26,,,,,num_3,1.655120800016448,num_3,0.1,0.6,0.25,0.8,9.01073,28.83434,return,2.9455708999885246,,,,,,,18,20,female,left_right_width,2023_Oct_18_1257,exp1,2021.2.3,59.96332642953104,
,,,,,,,,,,,,,,,,5,9,9.5,10,10.5,11,0.5,0.25,0.25,2.25,10,initial,36.05,324,342,361,379,397,9,9,9,9,9,,,,,3,0,3,0,0,19,19,38,,,,,num_4,3.9622449000016786,num_4,0.1,1.1,0.3,0.7,10.81288,25.23005,return,5.927749600028619,,,,,,,18,20,female,left_right_width,2023_Oct_18_1257,exp1,2021.2.3,59.96332642953104,
,,,,,,,,,,,,,,,,5,8.6,9.3,10,10.7,11.4,0.7,0.29999999999999993,0.4,3.1999999999999997,10,initial,36.05,310,335,361,386,411,9,9,9,9,9,,,,,3,0,3,0,0,20,20,46,,,,,num_4,1.9986683999886736,num_4,0.45,1.3,0.5,0.9,18.02146,32.43864,return,3.212659199954942,,,,,,,18,20,female,left_right_width,2023_Oct_18_1257,exp1,2021.2.3,59.96332642953104,
,,,,,,,,,,,,,,,,5,8.95,9.475,10,10.525,11.05,0.525,0.275,0.25,2.35,10,match,36.05,323,342,361,379,398,9,9,9,9,9,,,,,3,0,3,0,0,21,21,27,,,,,num_5,2.6117656999849714,num_5,0.3,1.3,0.2,0.65,7.20859,23.4279,return,5.3867777999839745,,,,,,,18,20,female,left_right_width,2023_Oct_18_1257,exp1,2021.2.3,59.96332642953104,
,,,,,,,,,,,,,,,,5,8.6,9.3,10,10.7,11.4,0.7,0.6,0.1,2.9,10,initial,36.05,310,335,361,386,411,9,9,9,9,9,,,,,3,0,3,0,0,22,22,42,,,,,num_4,1.923853499989491,num_4,0.2,1.2,0.10000000000000002,0.7,3.60429,25.23005,return,4.083056500006933,,,,,,,18,20,female,left_right_width,2023_Oct_18_1257,exp1,2021.2.3,59.96332642953104,
,,,,,,,,,,,,,,,,4,9.1,9.7,10.3,10.9,0,0.6,0.5,0.1,1.9,10,match,36.05,328,350,371,393,0,9,9,9,9,0,,,,,3,0,3,0,0,23,23,13,,,,,num_4,1.6632663999916986,num_4,0.45,0.6,0.15000000000000008,0.7,5.40644,25.23005,return,3.5950058000162244,,,,,,,18,20,female,left_right_width,2023_Oct_18_1257,exp1,2021.2.3,59.96332642953104,
,,,,,,,,,,,,,,,,4,8.65,9.55,10.45,11.35,0,0.9,0.65,0.25,2.95,10,initial,36.05,312,344,377,409,0,9,9,9,9,0,,,,,3,0,3,0,0,24,24,32,,,,,num_4,1.9644875000230968,num_4,0.35,0.4,0.05000000000000002,0.7,1.80215,25.23005,return,3.5327080999850295,,,,,,,18,20,female,left_right_width,2023_Oct_18_1257,exp1,2021.2.3,59.96332642953104,
,,,,,,,,,,,,,,,,4,9.3,9.766666666666667,10.233333333333333,10.7,0,0.4666666666666667,0.06666666666666665,0.4,1.8,10,match,36.05,335,352,369,386,0,9,9,9,9,0,,,,,3,0,3,0,0,25,25,11,,,,,num_3,1.4263857000041753,num_3,0.45,0.7,0.45,0.6,16.21932,21.62576,return,2.569199400022626,,,,,,,18,20,female,left_right_width,2023_Oct_18_1257,exp1,2021.2.3,59.96332642953104,
,,,,,,,,,,,,,,,,5,8.95,9.475,10,10.525,11.05,0.525,0.42500000000000004,0.1,2.2,10,match,36.05,323,342,361,379,398,9,9,9,9,9,,,,,3,0,3,0,0,26,26,25,,,,,num_5,1.8805665000109002,num_5,0.35,0.5,0.05000000000000002,0.55,1.80215,19.82361,return,2.8899697000160813,,,,,,,18,20,female,left_right_width,2023_Oct_18_1257,exp1,2021.2.3,59.96332642953104,
,,,,,,,,,,,,,,,,4,9.5,9.833333333333334,10.166666666666666,10.5,0,0.3333333333333333,0.08333333333333333,0.25,1.25,10,match,36.05,342,354,367,379,0,9,9,9,9,0,,,,,3,0,3,0,0,27,27,3,,,,,num_3,1.5309784000273794,num_3,0.4,0.9,0.35000000000000003,0.55,12.61502,19.82361,return,4.2857224000035785,,,,,,,18,20,female,left_right_width,2023_Oct_18_1257,exp1,2021.2.3,59.96332642953104,
,,,,,,,,,,,,,,,,4,9.25,9.75,10.25,10.75,0,0.5,0.09999999999999998,0.4,1.9,10,initial,36.05,333,351,370,388,0,9,9,9,9,0,,,,,3,0,3,0,0,28,28,22,,,,,num_3,1.0744830999756232,num_3,0.35,1.2,0.25,0.45,9.01073,16.21932,return,5.01521889999276,,,,,,,18,20,female,left_right_width,2023_Oct_18_1257,exp1,2021.2.3,59.96332642953104,
,,,,,,,,,,,,,,,,3,9,10,11,0,0,1,0.9,0.1,2.1,10,match,36.05,324,361,397,0,0,9,9,9,0,0,,,,,3,0,3,0,0,29,29,37,,,,,num_2,0.9230263999779709,num_2,0.45,1.6,0.20000000000000007,0.7,7.20859,25.23005,return,6.068562000000384,,,,,,,18,20,female,left_right_width,2023_Oct_18_1257,exp1,2021.2.3,59.96332642953104,
,,,,,,,,,,,,,,,,4,9.3,9.766666666666667,10.233333333333333,10.7,0,0.4666666666666667,0.3666666666666667,0.1,1.5,10,match,36.05,335,352,369,386,0,9,9,9,9,0,,,,,3,0,3,0,0,30,30,7,,,,,num_2,1.3143407999887131,num_2,0.1,1.6,0.1,0.6,3.60429,21.62576,return,4.4286274000187404,,,,,,,18,20,female,left_right_width,2023_Oct_18_1257,exp1,2021.2.3,59.96332642953104,
,,,,,,,,,,,,,,,,5,8.65,9.325,10,10.675,11.35,0.675,0.42500000000000004,0.25,2.95,10,match,36.05,312,336,361,385,409,9,9,9,9,9,,,,,3,0,3,0,0,31,31,33,,,,,num_3,1.6786343000130728,num_3,0.2,0.9,0.10000000000000002,1.0,3.60429,36.04293,return,5.033676599967293,,,,,,,18,20,female,left_right_width,2023_Oct_18_1257,exp1,2021.2.3,59.96332642953104,
,,,,,,,,,,,,,,,,3,9.3,10,10.7,0,0,0.7,0.29999999999999993,0.4,1.8,10,initial,36.05,335,361,386,0,0,9,9,9,0,0,,,,,3,0,3,0,0,32,32,10,,,,,num_2,1.4436266999691725,num_2,0.4,1.6,0.45,1.0,16.21932,36.04293,return,3.8949244000250474,,,,,,,18,20,female,left_right_width,2023_Oct_18_1257,exp1,2021.2.3,59.96332642953104,
,,,,,,,,,,,,,,,,5,8.95,9.475,10,10.525,11.05,0.525,0.125,0.4,2.5,10,match,36.05,323,342,361,379,398,9,9,9,9,9,,,,,3,0,3,0,0,33,33,29,,,,,num_4,1.561661700019613,num_4,0.15,0.6,0.35,0.6,12.61502,21.62576,return,2.074687600019388,,,,,,,18,20,female,left_right_width,2023_Oct_18_1257,exp1,2021.2.3,59.96332642953104,
,,,,,,,,,,,,,,,,4,8.95,9.65,10.35,11.05,0,0.7,0.6,0.1,2.1999999999999997,10,initial,36.05,323,348,373,398,0,9,9,9,9,0,,,,,3,0,3,0,0,34,34,24,,,,,num_5,1.4695462000090629,num_5,0.1,0.3,0.1,0.4,3.60429,14.41717,return,5.9529592000180855,,,,,,,18,20,female,left_right_width,2023_Oct_18_1257,exp1,2021.2.3,59.96332642953104,
,,,,,,,,,,,,,,,,4,9.25,9.75,10.25,10.75,0,0.5,0.4,0.1,1.6,10,initial,36.05,333,351,370,388,0,9,9,9,9,0,,,,,3,0,3,0,0,35,35,18,,,,,num_3,1.264526700018905,num_3,0.35,1,0.25,0.85,9.01073,30.63649,return,2.7159023000276648,,,,,,,18,20,female,left_right_width,2023_Oct_18_1257,exp1,2021.2.3,59.96332642953104,
,,,,,,,,,,,,,,,,3,9.5,10,10.5,0,0,0.5,0.25,0.25,1.25,10,initial,36.05,342,361,379,0,0,9,9,9,0,0,,,,,3,0,3,0,0,36,36,2,,,,,num_2,1.250855699996464,num_2,0.35,1.6,0.35,0.6,12.61502,21.62576,return,3.3264763000188395,,,,,,,18,20,female,left_right_width,2023_Oct_18_1257,exp1,2021.2.3,59.96332642953104,
,,,,,,,,,,,,,,,,5,9,9.5,10,10.5,11,0.5,0.4,0.1,2.1,10,initial,36.05,324,342,361,379,397,9,9,9,9,9,,,,,3,0,3,0,0,37,37,36,,,,,num_4,1.805853100027889,num_4,0.4,0.9,0.25000000000000006,0.6,9.01073,21.62576,return,3.1249198999721557,,,,,,,18,20,female,left_right_width,2023_Oct_18_1257,exp1,2021.2.3,59.96332642953104,
,,,,,,,,,,,,,,,,5,8.2,9.1,10,10.9,11.8,0.9,0.65,0.25,3.85,10,initial,36.05,296,328,361,393,425,9,9,9,9,9,,,,,3,0,3,0,0,38,38,50,,,,,num_4,1.8076620000065304,num_4,0.35,0.8,0.2,1.1,7.20859,39.64722,return,3.398456199967768,,,,,,,18,20,female,left_right_width,2023_Oct_18_1257,exp1,2021.2.3,59.96332642953104,
,,,,,,,,,,,,,,,,5,9.25,9.625,10,10.375,10.75,0.375,0.125,0.25,1.75,10,match,36.05,333,347,361,374,388,9,9,9,9,9,,,,,3,0,3,0,0,39,39,21,,,,,num_5,1.6391058000153862,num_5,0.4,1.1,0.30000000000000004,0.45,10.81288,16.21932,return,4.883095099998172,,,,,,,18,20,female,left_right_width,2023_Oct_18_1257,exp1,2021.2.3,59.96332642953104,
,,,,,,,,,,,,,,,,3,9.1,10,10.9,0,0,0.9,0.5,0.4,2.2,10,initial,36.05,328,361,393,0,0,9,9,9,0,0,,,,,3,0,3,0,0,40,40,16,,,,,num_3,1.6416184999980032,num_3,0.3,0.9,0.3,1.0,10.81288,36.04293,return,4.692503500031307,,,,,,,18,20,female,left_right_width,2023_Oct_18_1257,exp1,2021.2.3,59.96332642953104,
,,,,,,,,,,,,,,,,3,9.5,10,10.5,0,0,0.5,0.09999999999999998,0.4,1.4000000000000001,10,initial,36.05,342,361,379,0,0,9,9,9,0,0,,,,,3,0,3,0,0,41,41,4,,,,,num_2,1.6617298000492156,num_2,0.15,1.6,0.39999999999999997,0.6,14.41717,21.62576,return,4.1854267999879085,,,,,,,18,20,female,left_right_width,2023_Oct_18_1257,exp1,2021.2.3,59.96332642953104,
,,,,,,,,,,,,,,,,5,9,9.5,10,10.5,11,0.5,0.09999999999999998,0.4,2.4,10,initial,36.05,324,342,361,379,397,9,9,9,9,9,,,,,3,0,3,0,0,42,42,40,,,,,num_5,1.4937758999876678,num_5,0.4,0.6,0.35000000000000003,0.6,12.61502,21.62576,return,4.328334800025914,,,,,,,18,20,female,left_right_width,2023_Oct_18_1257,exp1,2021.2.3,59.96332642953104,
,,,,,,,,,,,,,,,,3,8.2,10,11.8,0,0,1.8000000000000003,1.7000000000000002,0.1,3.7,10,match,36.05,296,361,425,0,0,9,9,9,0,0,,,,,3,0,3,0,0,43,43,49,,,,,num_2,0.9364200999843888,num_2,0.35,1.6,0.15000000000000002,2.3,5.40644,82.89874,return,3.9031568000209518,,,,,,,18,20,female,left_right_width,2023_Oct_18_1257,exp1,2021.2.3,59.96332642953104,
,,,,,,,,,,,,,,,,3,8.6,10,11.4,0,0,1.4,1.2999999999999998,0.1,2.9,10,match,36.05,310,361,411,0,0,9,9,9,0,0,,,,,3,0,3,0,0,44,44,43,,,,,num_2,0.9675841000280343,num_2,0.35,1.6,0.15000000000000002,2.4,5.40644,86.50303,return,3.166269200039096,,,,,,,18,20,female,left_right_width,2023_Oct_18_1257,exp1,2021.2.3,59.96332642953104,
,,,,,,,,,,,,,,,,4,8.65,9.55,10.45,11.35,0,0.9,0.8,0.1,2.8000000000000003,10,initial,36.05,312,344,377,409,0,9,9,9,9,0,,,,,3,0,3,0,0,45,45,30,,,,,num_3,1.6363974999985658,num_3,0.4,1.1,0.20000000000000007,1.6,7.20859,57.66869,return,3.4742128999787383,,,,,,,18,20,female,left_right_width,2023_Oct_18_1257,exp1,2021.2.3,59.96332642953104,
,,,,,,,,,,,,,,,,5,8.2,9.1,10,10.9,11.8,0.9,0.8,0.1,3.7,10,initial,36.05,296,328,361,393,425,9,9,9,9,9,,,,,3,0,3,0,0,46,46,48,,,,,num_4,1.2730414000106975,num_4,0.35,0.4,0.10000000000000002,1.0,3.60429,36.04293,return,3.747495399962645,,,,,,,18,20,female,left_right_width,2023_Oct_18_1257,exp1,2021.2.3,59.96332642953104,
,,,,,,,,,,,,,,,,3,8.525,10,11.475,0,0,1.475,1.225,0.25,3.2,10,match,36.05,307,361,414,0,0,9,9,9,0,0,,,,,3,0,3,0,0,47,47,47,,,,,num_2,0.9298271000152454,num_2,0.35,1.6,0.3,2.9,10.81288,104.52449,return,5.84894009999698,,,,,,,18,20,female,left_right_width,2023_Oct_18_1257,exp1,2021.2.3,59.96332642953104,
,,,,,,,,,,,,,,,,5,9.25,9.625,10,10.375,10.75,0.375,0.275,0.1,1.6,10,match,36.05,333,347,361,374,388,9,9,9,9,9,,,,,3,0,3,0,0,48,48,19,,,,,num_5,1.342466100002639,num_5,0.1,0.3,0.15000000000000002,0.45,5.40644,16.21932,return,3.511549199989531,,,,,,,18,20,female,left_right_width,2023_Oct_18_1257,exp1,2021.2.3,59.96332642953104,
,,,,,,,,,,,,,,,,4,8.65,9.55,10.45,11.35,0,0.9,0.5,0.4,3.1,10,initial,36.05,312,344,377,409,0,9,9,9,9,0,,,,,3,0,3,0,0,49,49,34,,,,,num_4,1.181817900040187,num_4,0.3,0.4,0.35,0.9,12.61502,32.43864,return,5.949357900011819,,,,,,,18,20,female,left_right_width,2023_Oct_18_1257,exp1,2021.2.3,59.96332642953104,
,,,,,,,,,,,,,,,,3,9,10,11,0,0,0.9999999999999999,0.5999999999999999,0.4,2.4,10,match,36.05,324,361,397,0,0,9,9,9,0,0,,,,,3,0,3,0,0,50,50,41,,,,,num_2,0.9244124999968335,num_2,0.45,1.6,0.45,1.0,16.21932,36.04293,return,2.917848300014157,,,,,,,18,20,female,left_right_width,2023_Oct_18_1257,exp1,2021.2.3,59.96332642953104,
,,,,,,,,,,,,,,,,5,8.65,9.325,10,10.675,11.35,0.6749999999999999,0.575,0.1,2.8,10,match,36.05,312,336,361,385,409,9,9,9,9,9,,,,,3,0,3,0,0,51,51,31,,,,,num_4,2.321919300011359,num_4,0.45,0.8,0.25000000000000006,0.5,9.01073,18.02146,return,3.5394113999791443,,,,,,,18,20,female,left_right_width,2023_Oct_18_1257,exp1,2021.2.3,59.96332642953104,
,,,,,,,,,,,,,,,,3,9.1,10,10.9,0,0,0.9,0.8,0.1,1.9000000000000001,10,initial,36.05,328,361,393,0,0,9,9,9,0,0,,,,,3,0,3,0,0,52,52,12,,,,,num_2,0.9464113999856636,num_2,0.4,1.6,0.10000000000000007,1.8,3.60429,64.87727,return,8.20181199995568,,,,,,,18,20,female,left_right_width,2023_Oct_18_1257,exp1,2021.2.3,59.96332642953104,
,,,,,,,,,,,,,,,,3,8.2,10,11.8,0,0,1.7999999999999998,1.4,0.4,4,10,match,36.05,296,361,425,0,0,9,9,9,0,0,,,,,3,0,3,0,0,53,53,53,,,,,num_2,1.460461899987422,num_2,0.3,1.6,0.39999999999999997,3.0,14.41717,108.12878,return,4.0896316999569535,,,,,,,18,20,female,left_right_width,2023_Oct_18_1257,exp1,2021.2.3,59.96332642953104,
,,,,,,,,,,,,,,,,,,,,,,,,,,,,,,,,,,,,,,,,,,,3,0,3,0,,,,,,,,,,,,,,,,,,,,,,2037.1763566000154,None,2037.1763566000154,None,18,20,female,left_right_width,2023_Oct_18_1257,exp1,2021.2.3,59.96332642953104,
,,,,,,,,,,,,,,,,4,8.65,9.55,10.45,11.35,0,0.9,0.5,0.4,3.1,10,initial,36.05,312,344,377,409,0,9,9,9,9,0,,,,,4,0,4,0,0,0,0,34,,,,,num_3,1.3852197999949567,num_3,0.35,1,0.35,1.05,12.61502,37.84507,return,3.070121700002346,,,,,,,18,20,female,left_right_width,2023_Oct_18_1257,exp1,2021.2.3,59.96332642953104,
,,,,,,,,,,,,,,,,3,9,10,11,0,0,0.9999999999999999,0.5999999999999999,0.4,2.4,10,match,36.05,324,361,397,0,0,9,9,9,0,0,,,,,4,0,4,0,0,1,1,41,,,,,num_3,0.9717590999789536,num_3,0.15,0.6,0.3,0.7,10.81288,25.23005,return,3.7134464000118896,,,,,,,18,20,female,left_right_width,2023_Oct_18_1257,exp1,2021.2.3,59.96332642953104,
,,,,,,,,,,,,,,,,4,9.5,9.833333333333334,10.166666666666666,10.5,0,0.33333333333333337,0.23333333333333336,0.1,1.1,10,match,36.05,342,354,367,379,0,9,9,9,9,0,,,,,4,0,4,0,0,2,2,1,,,,,num_3,1.265713200031314,num_3,0.4,1.3,0.15000000000000008,0.7,5.40644,25.23005,return,6.685683900024742,,,,,,,18,20,female,left_right_width,2023_Oct_18_1257,exp1,2021.2.3,59.96332642953104,
,,,,,,,,,,,,,,,,4,9.25,9.75,10.25,10.75,0,0.5,0.4,0.1,1.6,10,initial,36.05,333,351,370,388,0,9,9,9,9,0,,,,,4,0,4,0,0,3,3,18,,,,,num_3,1.2377524999901652,num_3,0.45,1.2,0.20000000000000007,0.65,7.20859,23.4279,return,5.158164700027555,,,,,,,18,20,female,left_right_width,2023_Oct_18_1257,exp1,2021.2.3,59.96332642953104,
,,,,,,,,,,,,,,,,5,8.95,9.475,10,10.525,11.05,0.525,0.275,0.25,2.35,10,match,36.05,323,342,361,379,398,9,9,9,9,9,,,,,4,0,4,0,0,4,4,27,,,,,num_4,1.0530264000408351,num_4,0.15,1.3,0.15,0.7,5.40644,25.23005,return,3.3930848999880254,,,,,,,18,20,female,left_right_width,2023_Oct_18_1257,exp1,2021.2.3,59.96332642953104,
,,,,,,,,,,,,,,,,3,9.1,10,10.9,0,0,0.9,0.5,0.4,2.2,10,initial,36.05,328,361,393,0,0,9,9,9,0,0,,,,,4,0,4,0,0,5,5,16,,,,,num_3,0.9863821999751963,num_3,0.35,0.8,0.35,1.05,12.61502,37.84507,return,1.7304061999893747,,,,,,,18,20,female,left_right_width,2023_Oct_18_1257,exp1,2021.2.3,59.96332642953104,
,,,,,,,,,,,,,,,,5,8.2,9.1,10,10.9,11.8,0.9,0.5,0.4,4,10,initial,36.05,296,328,361,393,425,9,9,9,9,9,,,,,4,0,4,0,0,6,6,52,,,,,num_4,0.9891099000233226,num_4,0.35,1.3,0.3,0.9,10.81288,32.43864,return,3.1381310999859124,,,,,,,18,20,female,left_right_width,2023_Oct_18_1257,exp1,2021.2.3,59.96332642953104,
,,,,,,,,,,,,,,,,3,8.525,10,11.475,0,0,1.475,1.225,0.25,3.2,10,match,36.05,307,361,414,0,0,9,9,9,0,0,,,,,4,0,4,0,0,7,7,47,,,,,num_3,1.0050002000061795,num_3,0.2,0.6,0.2,1.55,7.20859,55.86654,return,4.914422800007742,,,,,,,18,20,female,left_right_width,2023_Oct_18_1257,exp1,2021.2.3,59.96332642953104,
,,,,,,,,,,,,,,,,4,8.65,9.55,10.45,11.35,0,0.9,0.8,0.1,2.8000000000000003,10,initial,36.05,312,344,377,409,0,9,9,9,9,0,,,,,4,0,4,0,0,8,8,30,,,,,num_3,0.8798112999647856,num_3,0.1,0.7,0.1,1.45,3.60429,52.26225,return,3.8200954999774694,,,,,,,18,20,female,left_right_width,2023_Oct_18_1257,exp1,2021.2.3,59.96332642953104,
,,,,,,,,,,,,,,,,3,9,10,11,0,0,1,0.9,0.1,2.1,10,match,36.05,324,361,397,0,0,9,9,9,0,0,,,,,4,0,4,0,0,9,9,37,,,,,num_2,1.177525400009472,num_2,0.35,1.6,0.15000000000000002,2.0,5.40644,72.08586,return,2.9209005999728106,,,,,,,18,20,female,left_right_width,2023_Oct_18_1257,exp1,2021.2.3,59.96332642953104,
,,,,,,,,,,,,,,,,5,8.95,9.475,10,10.525,11.05,0.525,0.42500000000000004,0.1,2.2,10,match,36.05,323,342,361,379,398,9,9,9,9,9,,,,,4,0,4,0,0,10,10,25,,,,,num_4,1.307061799976509,num_4,0.3,1.2,0.10000000000000002,1.0,3.60429,36.04293,return,7.876286000013351,,,,,,,18,20,female,left_right_width,2023_Oct_18_1257,exp1,2021.2.3,59.96332642953104,
,,,,,,,,,,,,,,,,5,9,9.5,10,10.5,11,0.5,0.4,0.1,2.1,10,initial,36.05,324,342,361,379,397,9,9,9,9,9,,,,,4,0,4,0,0,11,11,36,,,,,num_4,2.0932213999913074,num_4,0.2,0.8,0.10000000000000002,0.7,3.60429,25.23005,return,3.479308400012087,,,,,,,18,20,female,left_right_width,2023_Oct_18_1257,exp1,2021.2.3,59.96332642953104,
,,,,,,,,,,,,,,,,3,8.2,10,11.8,0,0,1.7999999999999998,1.4,0.4,4,10,match,36.05,296,361,425,0,0,9,9,9,0,0,,,,,4,0,4,0,0,12,12,53,,,,,num_2,0.9279032999766059,num_2,0.4,1.6,0.45,2.8,16.21932,100.9202,return,3.5592447000090033,,,,,,,18,20,female,left_right_width,2023_Oct_18_1257,exp1,2021.2.3,59.96332642953104,
,,,,,,,,,,,,,,,,4,8.95,9.65,10.35,11.05,0,0.7,0.6,0.1,2.1999999999999997,10,initial,36.05,323,348,373,398,0,9,9,9,9,0,,,,,4,0,4,0,0,13,13,24,,,,,num_4,1.2837625999818556,num_4,0.35,1.0,0.10000000000000002,1.1,3.60429,39.64722,return,2.2395562999881804,,,,,,,18,20,female,left_right_width,2023_Oct_18_1257,exp1,2021.2.3,59.96332642953104,
,,,,,,,,,,,,,,,,3,9.3,10,10.7,0,0,0.7,0.6,0.1,1.5,10,initial,36.05,335,361,386,0,0,9,9,9,0,0,,,,,4,0,4,0,0,14,14,6,,,,,num_2,1.0065990000148304,num_2,0.35,1.6,0.15000000000000002,1.8,5.40644,64.87727,return,2.5648463999968953,,,,,,,18,20,female,left_right_width,2023_Oct_18_1257,exp1,2021.2.3,59.96332642953104,
,,,,,,,,,,,,,,,,5,8.65,9.325,10,10.675,11.35,0.675,0.42500000000000004,0.25,2.95,10,match,36.05,312,336,361,385,409,9,9,9,9,9,,,,,4,0,4,0,0,15,15,33,,,,,num_4,1.0513471000012942,num_4,0.35,0.9,0.2,1.0,7.20859,36.04293,return,2.652502600045409,,,,,,,18,20,female,left_right_width,2023_Oct_18_1257,exp1,2021.2.3,59.96332642953104,
,,,,,,,,,,,,,,,,3,8.6,10,11.4,0,0,1.4,1.15,0.25,3.05,10,match,36.05,310,361,411,0,0,9,9,9,0,0,,,,,4,0,4,0,0,16,16,45,,,,,num_2,0.827979099994991,num_2,0.45,1.6,0.25000000000000006,2.1,9.01073,75.69015,return,3.4020508999819867,,,,,,,18,20,female,left_right_width,2023_Oct_18_1257,exp1,2021.2.3,59.96332642953104,
,,,,,,,,,,,,,,,,5,8.6,9.3,10,10.7,11.4,0.7,0.44999999999999996,0.25,3.05,10,initial,36.05,310,335,361,386,411,9,9,9,9,9,,,,,4,0,4,0,0,17,17,44,,,,,num_5,1.7002294000121765,num_5,0.45,1.0,0.25000000000000006,0.75,9.01073,27.0322,return,11.44030809996184,,,,,,,18,20,female,left_right_width,2023_Oct_18_1257,exp1,2021.2.3,59.96332642953104,
,,,,,,,,,,,,,,,,3,8.6,10,11.4,0,0,1.4,1.2999999999999998,0.1,2.9,10,match,36.05,310,361,411,0,0,9,9,9,0,0,,,,,4,0,4,0,0,18,18,43,,,,,num_2,1.0624971999786794,num_2,0.2,1.6,0.10000000000000002,3.0,3.60429,108.12878,return,4.474348299962003,,,,,,,18,20,female,left_right_width,2023_Oct_18_1257,exp1,2021.2.3,59.96332642953104,
,,,,,,,,,,,,,,,,5,8.2,9.1,10,10.9,11.8,0.9,0.8,0.1,3.7,10,initial,36.05,296,328,361,393,425,9,9,9,9,9,,,,,4,0,4,0,0,19,19,48,,,,,num_4,1.3124731999705546,num_4,0.35,0.6,0.10000000000000002,1.1,3.60429,39.64722,return,2.793716599990148,,,,,,,18,20,female,left_right_width,2023_Oct_18_1257,exp1,2021.2.3,59.96332642953104,
,,,,,,,,,,,,,,,,3,9.5,10,10.5,0,0,0.5,0.4,0.1,1.1,10,initial,36.05,342,361,379,0,0,9,9,9,0,0,,,,,4,0,4,0,0,20,20,0,,,,,num_2,1.3896400000085123,num_2,0.1,1.6,0.1,0.6,3.60429,21.62576,return,4.003480599960312,,,,,,,18,20,female,left_right_width,2023_Oct_18_1257,exp1,2021.2.3,59.96332642953104,
,,,,,,,,,,,,,,,,4,9.3,9.766666666666667,10.233333333333333,10.7,0,0.4666666666666667,0.06666666666666665,0.4,1.8,10,match,36.05,335,352,369,386,0,9,9,9,9,0,,,,,4,0,4,0,0,21,21,11,,,,,num_3,1.461303999996744,num_3,0.45,0.6,0.45,0.65,16.21932,23.4279,return,1.641845500038471,,,,,,,18,20,female,left_right_width,2023_Oct_18_1257,exp1,2021.2.3,59.96332642953104,
,,,,,,,,,,,,,,,,3,9.5,10,10.5,0,0,0.5,0.25,0.25,1.25,10,initial,36.05,342,361,379,0,0,9,9,9,0,0,,,,,4,0,4,0,0,22,22,2,,,,,num_2,2.3043518000049517,num_2,0.45,1.6,0.4,0.7,14.41717,25.23005,return,5.138103500008583,,,,,,,18,20,female,left_right_width,2023_Oct_18_1257,exp1,2021.2.3,59.96332642953104,
,,,,,,,,,,,,,,,,3,8.2,10,11.8,0,0,1.8,1.55,0.25,3.85,10,match,36.05,296,361,425,0,0,9,9,9,0,0,,,,,4,0,4,0,0,23,23,51,,,,,num_2,1.4855298000038601,num_2,0.4,1.6,0.20000000000000007,3.1,7.20859,111.73308,return,5.790725899976678,,,,,,,18,20,female,left_right_width,2023_Oct_18_1257,exp1,2021.2.3,59.96332642953104,
,,,,,,,,,,,,,,,,5,9.25,9.625,10,10.375,10.75,0.375,0.275,0.1,1.6,10,match,36.05,333,347,361,374,388,9,9,9,9,9,,,,,4,0,4,0,0,24,24,19,,,,,num_4,2.5598850999958813,num_4,0.2,0.3,0.10000000000000002,0.5,3.60429,18.02146,return,3.12912649998907,,,,,,,18,20,female,left_right_width,2023_Oct_18_1257,exp1,2021.2.3,59.96332642953104,
,,,,,,,,,,,,,,,,3,8.2,10,11.8,0,0,1.8000000000000003,1.7000000000000002,0.1,3.7,10,match,36.05,296,361,425,0,0,9,9,9,0,0,,,,,4,0,4,0,0,25,25,49,,,,,num_2,1.5157140000374056,num_2,0.45,1.6,0.25000000000000006,2.5,9.01073,90.10732,return,4.093876000028104,,,,,,,18,20,female,left_right_width,2023_Oct_18_1257,exp1,2021.2.3,59.96332642953104,
,,,,,,,,,,,,,,,,3,9,10,11,0,0,1,0.75,0.25,2.25,10,match,36.05,324,361,397,0,0,9,9,9,0,0,,,,,4,0,4,0,0,26,26,39,,,,,num_2,1.1633678000071086,num_2,0.4,1.6,0.20000000000000007,2.0,7.20859,72.08586,return,2.299403400043957,,,,,,,18,20,female,left_right_width,2023_Oct_18_1257,exp1,2021.2.3,59.96332642953104,
,,,,,,,,,,,,,,,,5,8.65,9.325,10,10.675,11.35,0.6749999999999999,0.575,0.1,2.8,10,match,36.05,312,336,361,385,409,9,9,9,9,9,,,,,4,0,4,0,0,27,27,31,,,,,num_4,1.2324321999913082,num_4,0.35,0.8,0.15000000000000002,1.0,5.40644,36.04293,return,2.3182872000033967,,,,,,,18,20,female,left_right_width,2023_Oct_18_1257,exp1,2021.2.3,59.96332642953104,
,,,,,,,,,,,,,,,,4,9.1,9.7,10.3,10.9,0,0.6,0.5,0.1,1.9,10,match,36.05,328,350,371,393,0,9,9,9,9,0,,,,,4,0,4,0,0,28,28,13,,,,,num_4,1.208440700022038,num_4,0.4,1.3,0.15000000000000008,0.9,5.40644,32.43864,return,3.622129400027916,,,,,,,18,20,female,left_right_width,2023_Oct_18_1257,exp1,2021.2.3,59.96332642953104,
,,,,,,,,,,,,,,,,4,9.425,9.808333333333334,10.191666666666666,10.575,0,0.3833333333333333,0.1333333333333333,0.25,1.4,10,match,36.05,340,354,367,381,0,9,9,9,9,0,,,,,4,0,4,0,0,29,29,5,,,,,num_3,1.0946552000241354,num_3,0.15,0.6,0.35,0.6,12.61502,21.62576,return,1.9928204999887384,,,,,,,18,20,female,left_right_width,2023_Oct_18_1257,exp1,2021.2.3,59.96332642953104,
,,,,,,,,,,,,,,,,5,8.6,9.3,10,10.7,11.4,0.7,0.6,0.1,2.9,10,initial,36.05,310,335,361,386,411,9,9,9,9,9,,,,,4,0,4,0,0,30,30,42,,,,,num_4,1.0183663999778219,num_4,0.25,0.7,0.10000000000000002,1.0,3.60429,36.04293,return,3.328716500021983,,,,,,,18,20,female,left_right_width,2023_Oct_18_1257,exp1,2021.2.3,59.96332642953104,
,,,,,,,,,,,,,,,,5,9,9.5,10,10.5,11,0.5,0.25,0.25,2.25,10,initial,36.05,324,342,361,379,397,9,9,9,9,9,,,,,4,0,4,0,0,31,31,38,,,,,num_4,1.2464755999972112,num_4,0.4,1.2,0.45,0.8,16.21932,28.83434,return,7.402210699976422,,,,,,,18,20,female,left_right_width,2023_Oct_18_1257,exp1,2021.2.3,59.96332642953104,
,,,,,,,,,,,,,,,,5,8.2,9.1,10,10.9,11.8,0.9,0.65,0.25,3.85,10,initial,36.05,296,328,361,393,425,9,9,9,9,9,,,,,4,0,4,0,0,32,32,50,,,,,num_4,1.1724925999878906,num_4,0.45,0.8,0.30000000000000004,1.1,10.81288,39.64722,return,2.4518620999879204,,,,,,,18,20,female,left_right_width,2023_Oct_18_1257,exp1,2021.2.3,59.96332642953104,
,,,,,,,,,,,,,,,,4,9.25,9.75,10.25,10.75,0,0.5,0.09999999999999998,0.4,1.9,10,initial,36.05,333,351,370,388,0,9,9,9,9,0,,,,,4,0,4,0,0,33,33,22,,,,,num_3,1.1870218999683857,num_3,0.15,0.6,0.39999999999999997,0.6,14.41717,21.62576,return,2.1608340999810025,,,,,,,18,20,female,left_right_width,2023_Oct_18_1257,exp1,2021.2.3,59.96332642953104,
,,,,,,,,,,,,,,,,5,9,9.5,10,10.5,11,0.5,0.09999999999999998,0.4,2.4,10,initial,36.05,324,342,361,379,397,9,9,9,9,9,,,,,4,0,4,0,0,34,34,40,,,,,num_4,1.234728500014171,num_4,0.1,0.5,0.35,0.5,12.61502,18.02146,return,3.390920699981507,,,,,,,18,20,female,left_right_width,2023_Oct_18_1257,exp1,2021.2.3,59.96332642953104,
,,,,,,,,,,,,,,,,4,9.3,9.766666666666667,10.233333333333333,10.7,0,0.4666666666666667,0.21666666666666665,0.25,1.65,10,match,36.05,335,352,369,386,0,9,9,9,9,0,,,,,4,0,4,0,0,35,35,9,,,,,num_4,0.9811074999743141,num_4,0.1,0.5,0.3,0.5,10.81288,18.02146,return,2.974393099953886,,,,,,,18,20,female,left_right_width,2023_Oct_18_1257,exp1,2021.2.3,59.96332642953104,
,,,,,,,,,,,,,,,,3,9.5,10,10.5,0,0,0.5,0.09999999999999998,0.4,1.4000000000000001,10,initial,36.05,342,361,379,0,0,9,9,9,0,0,,,,,4,0,4,0,0,36,36,4,,,,,num_2,1.3423852999694645,num_2,0.15,1.6,0.44999999999999996,0.7,16.21932,25.23005,return,5.461656500003301,,,,,,,18,20,female,left_right_width,2023_Oct_18_1257,exp1,2021.2.3,59.96332642953104,
,,,,,,,,,,,,,,,,5,8.6,9.3,10,10.7,11.4,0.7,0.29999999999999993,0.4,3.1999999999999997,10,initial,36.05,310,335,361,386,411,9,9,9,9,9,,,,,4,0,4,0,0,37,37,46,,,,,num_3,1.4298739000223577,num_3,0.35,1.2,0.39999999999999997,0.75,14.41717,27.0322,return,4.793929899984505,,,,,,,18,20,female,left_right_width,2023_Oct_18_1257,exp1,2021.2.3,59.96332642953104,
,,,,,,,,,,,,,,,,5,9.25,9.625,10,10.375,10.75,0.375,0.125,0.25,1.75,10,match,36.05,333,347,361,374,388,9,9,9,9,9,,,,,4,0,4,0,0,38,38,21,,,,,num_4,1.2465487999725156,num_4,0.45,1.1,0.4,0.6,14.41717,21.62576,return,5.148849000048358,,,,,,,18,20,female,left_right_width,2023_Oct_18_1257,exp1,2021.2.3,59.96332642953104,
,,,,,,,,,,,,,,,,4,9.1,9.7,10.3,10.9,0,0.6000000000000001,0.20000000000000004,0.4,2.2,10,match,36.05,328,350,371,393,0,9,9,9,9,0,,,,,4,0,4,0,0,39,39,17,,,,,num_3,3.034702200035099,num_3,0.1,0.5,0.3,0.5,10.81288,18.02146,return,3.950600200041663,,,,,,,18,20,female,left_right_width,2023_Oct_18_1257,exp1,2021.2.3,59.96332642953104,
,,,,,,,,,,,,,,,,3,9.3,10,10.7,0,0,0.7,0.29999999999999993,0.4,1.8,10,initial,36.05,335,361,386,0,0,9,9,9,0,0,,,,,4,0,4,0,0,40,40,10,,,,,num_2,1.3466024000081234,num_2,0.25,1.6,0.35,0.6,12.61502,21.62576,return,6.730476500000805,,,,,,,18,20,female,left_right_width,2023_Oct_18_1257,exp1,2021.2.3,59.96332642953104,
,,,,,,,,,,,,,,,,4,8.95,9.65,10.35,11.05,0,0.7,0.29999999999999993,0.4,2.5,10,initial,36.05,323,348,373,398,0,9,9,9,9,0,,,,,4,0,4,0,0,41,41,28,,,,,num_4,1.5792140999692492,num_4,0.15,1.3,0.35,0.7,12.61502,25.23005,return,3.082108100003097,,,,,,,18,20,female,left_right_width,2023_Oct_18_1257,exp1,2021.2.3,59.96332642953104,
,,,,,,,,,,,,,,,,4,9.5,9.833333333333334,10.166666666666666,10.5,0,0.3333333333333333,0.08333333333333333,0.25,1.25,10,match,36.05,342,354,367,379,0,9,9,9,9,0,,,,,4,0,4,0,0,42,42,3,,,,,num_2,1.9682806999771856,num_2,0.25,1.6,0.25,0.5,9.01073,18.02146,return,5.070563999994192,,,,,,,18,20,female,left_right_width,2023_Oct_18_1257,exp1,2021.2.3,59.96332642953104,
,,,,,,,,,,,,,,,,3,9.3,10,10.7,0,0,0.7,0.44999999999999996,0.25,1.65,10,initial,36.05,335,361,386,0,0,9,9,9,0,0,,,,,4,0,4,0,0,43,43,8,,,,,num_2,1.5125433999928646,num_2,0.2,1.6,0.25,1.0,9.01073,36.04293,return,4.330679299950134,,,,,,,18,20,female,left_right_width,2023_Oct_18_1257,exp1,2021.2.3,59.96332642953104,
,,,,,,,,,,,,,,,,3,9.1,10,10.9,0,0,0.9,0.8,0.1,1.9000000000000001,10,initial,36.05,328,361,393,0,0,9,9,9,0,0,,,,,4,0,4,0,0,44,44,12,,,,,num_2,1.5725433999905363,num_2,0.15,1.6,0.15,1.7,5.40644,61.27298,return,2.354018800018821,,,,,,,18,20,female,left_right_width,2023_Oct_18_1257,exp1,2021.2.3,59.96332642953104,
,,,,,,,,,,,,,,,,4,8.95,9.65,10.35,11.05,0,0.7,0.44999999999999996,0.25,2.3499999999999996,10,initial,36.05,323,348,373,398,0,9,9,9,9,0,,,,,4,0,4,0,0,45,45,26,,,,,num_3,1.004262100032065,num_3,0.1,1,0.15000000000000002,1.05,5.40644,37.84507,return,3.2668341999524273,,,,,,,18,20,female,left_right_width,2023_Oct_18_1257,exp1,2021.2.3,59.96332642953104,
,,,,,,,,,,,,,,,,4,9.1,9.7,10.3,10.9,0,0.5999999999999999,0.3499999999999999,0.25,2.05,10,match,36.05,328,350,371,393,0,9,9,9,9,0,,,,,4,0,4,0,0,46,46,15,,,,,num_4,1.1614074000390247,num_4,0.25,0.6,0.15000000000000002,0.6,5.40644,21.62576,return,4.728669600037392,,,,,,,18,20,female,left_right_width,2023_Oct_18_1257,exp1,2021.2.3,59.96332642953104,
,,,,,,,,,,,,,,,,4,8.65,9.55,10.45,11.35,0,0.9,0.65,0.25,2.95,10,initial,36.05,312,344,377,409,0,9,9,9,9,0,,,,,4,0,4,0,0,47,47,32,,,,,num_4,1.161075699958019,num_4,0.2,0.7,0.15000000000000002,0.8,5.40644,28.83434,return,1.9271958000026643,,,,,,,18,20,female,left_right_width,2023_Oct_18_1257,exp1,2021.2.3,59.96332642953104,
,,,,,,,,,,,,,,,,4,9.25,9.75,10.25,10.75,0,0.5,0.25,0.25,1.75,10,initial,36.05,333,351,370,388,0,9,9,9,9,0,,,,,4,0,4,0,0,48,48,20,,,,,num_4,2.0890922999824397,num_4,0.35,0.5,0.10000000000000002,0.6,3.60429,21.62576,return,2.2269515999942087,,,,,,,18,20,female,left_right_width,2023_Oct_18_1257,exp1,2021.2.3,59.96332642953104,
,,,,,,,,,,,,,,,,5,8.65,9.325,10,10.675,11.35,0.675,0.275,0.4,3.1,10,match,36.05,312,336,361,385,409,9,9,9,9,9,,,,,4,0,4,0,0,49,49,35,,,,,num_5,2.2696224999963306,num_5,0.4,1.2,0.35000000000000003,0.7,12.61502,25.23005,return,5.183733900019433,,,,,,,18,20,female,left_right_width,2023_Oct_18_1257,exp1,2021.2.3,59.96332642953104,
,,,,,,,,,,,,,,,,3,9.1,10,10.9,0,0,0.9,0.65,0.25,2.05,10,initial,36.05,328,361,393,0,0,9,9,9,0,0,,,,,4,0,4,0,0,50,50,14,,,,,num_2,1.0271895000478253,num_2,0.2,1.6,0.3,0.9,10.81288,32.43864,return,4.185226000030525,,,,,,,18,20,female,left_right_width,2023_Oct_18_1257,exp1,2021.2.3,59.96332642953104,
,,,,,,,,,,,,,,,,5,8.95,9.475,10,10.525,11.05,0.525,0.125,0.4,2.5,10,match,36.05,323,342,361,379,398,9,9,9,9,9,,,,,4,0,4,0,0,51,51,29,,,,,num_4,1.5144206000259146,num_4,0.45,1.1,0.45,0.7,16.21932,25.23005,return,2.5738804999855347,,,,,,,18,20,female,left_right_width,2023_Oct_18_1257,exp1,2021.2.3,59.96332642953104,
,,,,,,,,,,,,,,,,5,9.175,9.5875,10,10.4125,10.825,0.4125,0.16249999999999998,0.25,1.9,10,match,36.05,331,346,361,375,390,9,9,9,9,9,,,,,4,0,4,0,0,52,52,23,,,,,num_4,1.0426048999652267,num_4,0.3,1.0,0.39999999999999997,0.7,14.41717,25.23005,return,2.646156200033147,,,,,,,18,20,female,left_right_width,2023_Oct_18_1257,exp1,2021.2.3,59.96332642953104,
,,,,,,,,,,,,,,,,4,9.3,9.766666666666667,10.233333333333333,10.7,0,0.4666666666666667,0.3666666666666667,0.1,1.5,10,match,36.05,335,352,369,386,0,9,9,9,9,0,,,,,4,0,4,0,0,53,53,7,,,,,num_3,1.0764767000218853,num_3,0.15,0.9,0.09999999999999999,0.5,3.60429,18.02146,return,3.4483581999666058,,,,,,,18,20,female,left_right_width,2023_Oct_18_1257,exp1,2021.2.3,59.96332642953104,
,,,,,,,,,,,,,,,,,,,,,,,,,,,,,,,,,,,,,,,,,,,4,0,4,0,,,,,,,,,,,,,,,,,,,,,,2470.542695000011,None,2470.542695000011,None,18,20,female,left_right_width,2023_Oct_18_1257,exp1,2021.2.3,59.96332642953104,
,,,,,,,,,,,,,,,,3,9,10,11,0,0,1,0.75,0.25,2.25,10,match,36.05,324,361,397,0,0,9,9,9,0,0,,,,,5,0,5,0,0,0,0,39,,,,,num_2,0.9424519999884069,num_2,0.45,1.6,0.20000000000000007,0.9,7.20859,32.43864,return,4.1522305000107735,,,,,,,18,20,female,left_right_width,2023_Oct_18_1257,exp1,2021.2.3,59.96332642953104,
,,,,,,,,,,,,,,,,5,8.65,9.325,10,10.675,11.35,0.675,0.275,0.4,3.1,10,match,36.05,312,336,361,385,409,9,9,9,9,9,,,,,5,0,5,0,0,1,1,35,,,,,num_4,1.304415499966126,num_4,0.35,1.3,0.35,0.7,12.61502,25.23005,return,3.0747314000036567,,,,,,,18,20,female,left_right_width,2023_Oct_18_1257,exp1,2021.2.3,59.96332642953104,
,,,,,,,,,,,,,,,,5,9,9.5,10,10.5,11,0.5,0.09999999999999998,0.4,2.4,10,initial,36.05,324,342,361,379,397,9,9,9,9,9,,,,,5,0,5,0,0,2,2,40,,,,,num_3,0.9863601999823004,num_3,0.4,0.8,0.55,0.7,19.82361,25.23005,return,6.066379699972458,,,,,,,18,20,female,left_right_width,2023_Oct_18_1257,exp1,2021.2.3,59.96332642953104,
,,,,,,,,,,,,,,,,4,9.3,9.766666666666667,10.233333333333333,10.7,0,0.4666666666666667,0.06666666666666665,0.4,1.8,10,match,36.05,335,352,369,386,0,9,9,9,9,0,,,,,5,0,5,0,0,3,3,11,,,,,num_3,1.2697779000154696,num_3,0.4,1.3,0.6000000000000001,0.75,21.62576,27.0322,return,4.817953900026623,,,,,,,18,20,female,left_right_width,2023_Oct_18_1257,exp1,2021.2.3,59.96332642953104,
,,,,,,,,,,,,,,,,3,9.5,10,10.5,0,0,0.5,0.4,0.1,1.1,10,initial,36.05,342,361,379,0,0,9,9,9,0,0,,,,,5,0,5,0,0,4,4,0,,,,,num_2,1.0656742000137456,num_2,0.2,1.6,0.05000000000000002,0.9,1.80215,32.43864,return,2.9433761999825947,,,,,,,18,20,female,left_right_width,2023_Oct_18_1257,exp1,2021.2.3,59.96332642953104,
,,,,,,,,,,,,,,,,4,9.3,9.766666666666667,10.233333333333333,10.7,0,0.4666666666666667,0.3666666666666667,0.1,1.5,10,match,36.05,335,352,369,386,0,9,9,9,9,0,,,,,5,0,5,0,0,5,5,7,,,,,num_3,0.8910022000200115,num_3,0.45,0.5,0.05000000000000007,0.65,1.80215,23.4279,return,3.7345028999843635,,,,,,,18,20,female,left_right_width,2023_Oct_18_1257,exp1,2021.2.3,59.96332642953104,
,,,,,,,,,,,,,,,,4,9.1,9.7,10.3,10.9,0,0.5999999999999999,0.3499999999999999,0.25,2.05,10,match,36.05,328,350,371,393,0,9,9,9,9,0,,,,,5,0,5,0,0,6,6,15,,,,,num_4,1.085475099971518,num_4,0.25,0.8,0.15000000000000002,0.7,5.40644,25.23005,return,3.665523100004066,,,,,,,18,20,female,left_right_width,2023_Oct_18_1257,exp1,2021.2.3,59.96332642953104,
,,,,,,,,,,,,,,,,5,8.2,9.1,10,10.9,11.8,0.9,0.65,0.25,3.85,10,initial,36.05,296,328,361,393,425,9,9,9,9,9,,,,,5,0,5,0,0,7,7,50,,,,,num_5,1.0952437999658287,num_5,0.3,1.2,0.2,0.9,7.20859,32.43864,return,2.938138799974695,,,,,,,18,20,female,left_right_width,2023_Oct_18_1257,exp1,2021.2.3,59.96332642953104,
,,,,,,,,,,,,,,,,3,9.3,10,10.7,0,0,0.7,0.44999999999999996,0.25,1.65,10,initial,36.05,335,361,386,0,0,9,9,9,0,0,,,,,5,0,5,0,0,8,8,8,,,,,num_3,1.0696297000395134,num_3,0.35,0.6,0.2,0.75,7.20859,27.0322,return,2.353071000019554,,,,,,,18,20,female,left_right_width,2023_Oct_18_1257,exp1,2021.2.3,59.96332642953104,
,,,,,,,,,,,,,,,,3,8.525,10,11.475,0,0,1.475,1.225,0.25,3.2,10,match,36.05,307,361,414,0,0,9,9,9,0,0,,,,,5,0,5,0,0,9,9,47,,,,,num_2,1.0361804999993183,num_2,0.2,1.6,0.15000000000000002,2.4,5.40644,86.50303,return,3.279752800008282,,,,,,,18,20,female,left_right_width,2023_Oct_18_1257,exp1,2021.2.3,59.96332642953104,
,,,,,,,,,,,,,,,,3,9.3,10,10.7,0,0,0.7,0.29999999999999993,0.4,1.8,10,initial,36.05,335,361,386,0,0,9,9,9,0,0,,,,,5,0,5,0,0,10,10,10,,,,,num_3,2.821082199981902,num_3,0.1,0.9,0.3,0.65,10.81288,23.4279,return,3.8416470999945886,,,,,,,18,20,female,left_right_width,2023_Oct_18_1257,exp1,2021.2.3,59.96332642953104,
,,,,,,,,,,,,,,,,3,9.1,10,10.9,0,0,0.9,0.65,0.25,2.05,10,initial,36.05,328,361,393,0,0,9,9,9,0,0,,,,,5,0,5,0,0,11,11,14,,,,,num_2,0.8258696999982931,num_2,0.4,1.6,0.30000000000000004,1.4,10.81288,50.4601,return,2.4389635999687016,,,,,,,18,20,female,left_right_width,2023_Oct_18_1257,exp1,2021.2.3,59.96332642953104,
,,,,,,,,,,,,,,,,4,8.95,9.65,10.35,11.05,0,0.7,0.29999999999999993,0.4,2.5,10,initial,36.05,323,348,373,398,0,9,9,9,9,0,,,,,5,0,5,0,0,12,12,28,,,,,num_3,1.0910738999955356,num_3,0.25,0.6,0.35,0.8,12.61502,28.83434,return,2.0982680000015534,,,,,,,18,20,female,left_right_width,2023_Oct_18_1257,exp1,2021.2.3,59.96332642953104,
,,,,,,,,,,,,,,,,3,9.3,10,10.7,0,0,0.7,0.6,0.1,1.5,10,initial,36.05,335,361,386,0,0,9,9,9,0,0,,,,,5,0,5,0,0,13,13,6,,,,,num_3,0.9790763999917544,num_3,0.15,1.1,0.09999999999999999,0.8,3.60429,28.83434,return,2.826915099984035,,,,,,,18,20,female,left_right_width,2023_Oct_18_1257,exp1,2021.2.3,59.96332642953104,
,,,,,,,,,,,,,,,,4,9.1,9.7,10.3,10.9,0,0.6000000000000001,0.20000000000000004,0.4,2.2,10,match,36.05,328,350,371,393,0,9,9,9,9,0,,,,,5,0,5,0,0,14,14,17,,,,,num_3,0.9245137000107206,num_3,0.3,0.5,0.35,0.6,12.61502,21.62576,return,3.063418100005947,,,,,,,18,20,female,left_right_width,2023_Oct_18_1257,exp1,2021.2.3,59.96332642953104,
,,,,,,,,,,,,,,,,3,9.1,10,10.9,0,0,0.9,0.8,0.1,1.9000000000000001,10,initial,36.05,328,361,393,0,0,9,9,9,0,0,,,,,5,0,5,0,0,15,15,12,,,,,num_3,1.1605570000247099,num_3,0.3,1.2,0.15000000000000002,1.1,5.40644,39.64722,return,2.392681299999822,,,,,,,18,20,female,left_right_width,2023_Oct_18_1257,exp1,2021.2.3,59.96332642953104,
,,,,,,,,,,,,,,,,4,9.425,9.808333333333334,10.191666666666666,10.575,0,0.3833333333333333,0.1333333333333333,0.25,1.4,10,match,36.05,340,354,367,381,0,9,9,9,9,0,,,,,5,0,5,0,0,16,16,5,,,,,num_3,0.9219663999974728,num_3,0.45,1.2,0.30000000000000004,0.55,10.81288,19.82361,return,5.205072699987795,,,,,,,18,20,female,left_right_width,2023_Oct_18_1257,exp1,2021.2.3,59.96332642953104,
,,,,,,,,,,,,,,,,4,8.65,9.55,10.45,11.35,0,0.9,0.5,0.4,3.1,10,initial,36.05,312,344,377,409,0,9,9,9,9,0,,,,,5,0,5,0,0,17,17,34,,,,,num_4,1.0785598999937065,num_4,0.45,1.2,0.35000000000000003,1.0,12.61502,36.04293,return,2.459425100008957,,,,,,,18,20,female,left_right_width,2023_Oct_18_1257,exp1,2021.2.3,59.96332642953104,
,,,,,,,,,,,,,,,,5,8.95,9.475,10,10.525,11.05,0.525,0.275,0.25,2.35,10,match,36.05,323,342,361,379,398,9,9,9,9,9,,,,,5,0,5,0,0,18,18,27,,,,,num_5,1.2084244000143372,num_5,0.45,0.7,0.25000000000000006,0.65,9.01073,23.4279,return,2.5003658999921754,,,,,,,18,20,female,left_right_width,2023_Oct_18_1257,exp1,2021.2.3,59.96332642953104,
,,,,,,,,,,,,,,,,4,9.5,9.833333333333334,10.166666666666666,10.5,0,0.33333333333333337,0.23333333333333336,0.1,1.1,10,match,36.05,342,354,367,379,0,9,9,9,9,0,,,,,5,0,5,0,0,19,19,1,,,,,num_4,2.2076257999869995,num_4,0.45,0.9,0.10000000000000007,0.4,3.60429,14.41717,return,4.070554100035224,,,,,,,18,20,female,left_right_width,2023_Oct_18_1257,exp1,2021.2.3,59.96332642953104,
,,,,,,,,,,,,,,,,3,9.5,10,10.5,0,0,0.5,0.09999999999999998,0.4,1.4000000000000001,10,initial,36.05,342,361,379,0,0,9,9,9,0,0,,,,,5,0,5,0,0,20,20,4,,,,,num_3,2.218475900008343,num_3,0.45,0.7,0.4,0.55,14.41717,19.82361,return,3.840817100019194,,,,,,,18,20,female,left_right_width,2023_Oct_18_1257,exp1,2021.2.3,59.96332642953104,
