amount_p,posx1_p,posx2_p,posx3_p,posx4_p,posx5_p,center_to_center_p,edge_to_edge_p,w_p,stim_lengt_p,eccentricity_p,line1_p,line2_p,line3_p,line4_p,line5_p,amount,posx1,posx2,posx3,posx4,posx5,center_to_center,edge_to_edge,w,stim_length,eccentricity,trial_type,deg_to_pix_index,posx1_in_pix,posx2_in_pix,posx3_in_pix,posx4_in_pix,posx5_in_pix,line1,line2,line3,line4,line5,trials.thisRepN,trials.thisTrialN,trials.thisN,trials.thisIndex,blocks.thisRepN,blocks.thisTrialN,blocks.thisN,blocks.thisIndex,loop.thisRepN,loop.thisTrialN,loop.thisN,loop.thisIndex,key_resp_3.keys,key_resp_3.rt,key_resp_3.started,key_resp_3.stopped,key_resp.keys,key_resp.rt,response,starting_width_deg,starting_space_deg,response_width_degree,response_spacing_degree,response_width_pixel,response_spacing_pixel,next_5.keys,next_5.rt,key_resp_4.keys,key_resp_4.rt,text_3.started,text_3.stopped,text_4.started,text_4.stopped,participant,age,gender,resp_group,date,expName,psychopyVersion,frameRate,
,,,,,,,,,,,,,,,,,,,,,,,,,,,,,,,,,,,,,,,,,,,,,,,,,,,c,112.57228359999135,24.369779000000563,None,,,,,,,,,,,,,,,,,,20,21,female,left_right_width,2023_Oct_25_1359,exp1,2021.2.3,59.90717980624089,
4,9.25,9.75,10.25,10.75,0,0.5,0.25,0.25,1.75,10,9,9,9,9,0,,,,,,,,,,,,,,,,,,,,,,,,0,0,0,4,,,,,,,,,,,,,num_3,6.250465400022222,num_3,0.2,1.2,0.2,1.05,7.20859,37.84507,return,23.15137079998385,,,,,,,20,21,female,left_right_width,2023_Oct_25_1359,exp1,2021.2.3,59.90717980624089,
5,9,9.5,10,10.5,11,0.5,0.09999999999999998,0.4,2.4,10,9,9,9,9,9,,,,,,,,,,,,,,,,,,,,,,,,0,1,1,8,,,,,,,,,,,,,num_4,3.034994399989955,num_4,0.3,0.3,0.15000000000000002,0.5,5.40644,18.02146,return,13.872589800012065,,,,,,,20,21,female,left_right_width,2023_Oct_25_1359,exp1,2021.2.3,59.90717980624089,
5,9.25,9.625,10,10.375,10.75,0.375,0.125,0.25,1.75,10,9,9,9,9,9,,,,,,,,,,,,,,,,,,,,,,,,0,2,2,6,,,,,,,,,,,,,num_4,7.304702800000086,num_4,0.2,0.6,0.15000000000000002,0.4,5.40644,14.41717,return,17.504589299991494,,,,,,,20,21,female,left_right_width,2023_Oct_25_1359,exp1,2021.2.3,59.90717980624089,
3,9.5,10,10.5,0,0,0.5,0.4,0.1,1.1,10,9,9,9,0,0,,,,,,,,,,,,,,,,,,,,,,,,0,3,3,0,,,,,,,,,,,,,num_3,2.4152150999871083,num_3,0.3,1,0.10000000000000002,0.95,3.60429,34.24078,return,6.5237879999913275,,,,,,,20,21,female,left_right_width,2023_Oct_25_1359,exp1,2021.2.3,59.90717980624089,
3,8.2,10,11.8,0,0,1.7999999999999998,1.4,0.4,4,10,9,9,9,0,0,,,,,,,,,,,,,,,,,,,,,,,,0,4,4,2,,,,,,,,,,,,,num_3,2.633286299998872,num_3,0.35,1.3,0.39999999999999997,1.25,14.41717,45.05366,return,7.263115000008838,,,,,,,20,21,female,left_right_width,2023_Oct_25_1359,exp1,2021.2.3,59.90717980624089,
3,9,10,11,0,0,1,0.9,0.1,2.1,10,9,9,9,0,0,,,,,,,,,,,,,,,,,,,,,,,,0,5,5,1,,,,,,,,,,,,,num_3,2.0852959000039846,num_3,0.25,0.3,0.05000000000000002,0.8,1.80215,28.83434,return,6.352767700009281,,,,,,,20,21,female,left_right_width,2023_Oct_25_1359,exp1,2021.2.3,59.90717980624089,
4,8.65,9.55,10.45,11.35,0,0.9,0.5,0.4,3.1,10,9,9,9,9,0,,,,,,,,,,,,,,,,,,,,,,,,0,6,6,5,,,,,,,,,,,,,num_4,2.773549200006528,num_4,0.3,1.1,0.3,1.0,10.81288,36.04293,return,8.739176399976714,,,,,,,20,21,female,left_right_width,2023_Oct_25_1359,exp1,2021.2.3,59.90717980624089,
4,9.5,9.833333333333334,10.166666666666666,10.5,0,0.33333333333333337,0.23333333333333336,0.1,1.1,10,9,9,9,9,0,,,,,,,,,,,,,,,,,,,,,,,,0,7,7,3,,,,,,,,,,,,,num_4,2.500058900011936,num_4,0.15,1.1,0.09999999999999999,0.7,3.60429,25.23005,return,8.879697299998952,,,,,,,20,21,female,left_right_width,2023_Oct_25_1359,exp1,2021.2.3,59.90717980624089,
5,8.6,9.3,10,10.7,11.4,0.7,0.29999999999999993,0.4,3.1999999999999997,10,9,9,9,9,9,,,,,,,,,,,,,,,,,,,,,,,,0,8,8,7,,,,,,,,,,,,,num_5,1.8609638000198174,num_5,0.15,0.7,0.2,0.7,7.20859,25.23005,return,4.5514177000150084,,,,,,,20,21,female,left_right_width,2023_Oct_25_1359,exp1,2021.2.3,59.90717980624089,
,,,,,,,,,,,,,,,,,,,,,,,,,,,,,,,,,,,,,,,,,,,,,,,,,,,,,,,,,,,,,,,,,,c,21.857398399995873,,,,,20,21,female,left_right_width,2023_Oct_25_1359,exp1,2021.2.3,59.90717980624089,
,,,,,,,,,,,,,,,,5,8.6,9.3,10,10.7,11.4,0.7,0.44999999999999996,0.25,3.05,10,initial,36.05,310,335,361,386,411,9,9,9,9,9,,,,,0,0,0,0,0,0,0,44,,,,,num_4,2.010936800012132,num_4,0.15,0.6,0.15000000000000002,0.9,5.40644,32.43864,return,4.599677499994868,,,,,,,20,21,female,left_right_width,2023_Oct_25_1359,exp1,2021.2.3,59.90717980624089,
,,,,,,,,,,,,,,,,4,9.25,9.75,10.25,10.75,0,0.5,0.09999999999999998,0.4,1.9,10,initial,36.05,333,351,370,388,0,9,9,9,9,0,,,,,0,0,0,0,0,1,1,22,,,,,num_4,1.8921811000036541,num_4,0.25,1.1,0.2,0.6,7.20859,21.62576,return,10.276910100015812,,,,,,,20,21,female,left_right_width,2023_Oct_25_1359,exp1,2021.2.3,59.90717980624089,
,,,,,,,,,,,,,,,,5,8.2,9.1,10,10.9,11.8,0.9,0.5,0.4,4,10,initial,36.05,296,328,361,393,425,9,9,9,9,9,,,,,0,0,0,0,0,2,2,52,,,,,num_5,2.652892999991309,num_5,0.1,0.3,0.15000000000000002,0.55,5.40644,19.82361,return,5.394083199993474,,,,,,,20,21,female,left_right_width,2023_Oct_25_1359,exp1,2021.2.3,59.90717980624089,
,,,,,,,,,,,,,,,,5,8.6,9.3,10,10.7,11.4,0.7,0.29999999999999993,0.4,3.1999999999999997,10,initial,36.05,310,335,361,386,411,9,9,9,9,9,,,,,0,0,0,0,0,3,3,46,,,,,num_4,2.6040734999987762,num_4,0.4,1.1,0.30000000000000004,0.8,10.81288,28.83434,return,4.67397269999492,,,,,,,20,21,female,left_right_width,2023_Oct_25_1359,exp1,2021.2.3,59.90717980624089,
,,,,,,,,,,,,,,,,4,9.3,9.766666666666667,10.233333333333333,10.7,0,0.4666666666666667,0.06666666666666665,0.4,1.8,10,match,36.05,335,352,369,386,0,9,9,9,9,0,,,,,0,0,0,0,0,4,4,11,,,,,num_4,4.05814140001894,num_4,0.1,0.4,0.25,0.5,9.01073,18.02146,return,5.015023999992991,,,,,,,20,21,female,left_right_width,2023_Oct_25_1359,exp1,2021.2.3,59.90717980624089,
,,,,,,,,,,,,,,,,4,9.1,9.7,10.3,10.9,0,0.6,0.5,0.1,1.9,10,match,36.05,328,350,371,393,0,9,9,9,9,0,,,,,0,0,0,0,0,5,5,13,,,,,num_4,2.8048875000094995,num_4,0.3,0.5,0.05000000000000002,0.6,1.80215,21.62576,return,4.002305800007889,,,,,,,20,21,female,left_right_width,2023_Oct_25_1359,exp1,2021.2.3,59.90717980624089,
,,,,,,,,,,,,,,,,5,8.95,9.475,10,10.525,11.05,0.525,0.125,0.4,2.5,10,match,36.05,323,342,361,379,398,9,9,9,9,9,,,,,0,0,0,0,0,6,6,29,,,,,num_4,1.862345900008222,num_4,0.15,1.1,0.35,0.8,12.61502,28.83434,return,7.034164700016845,,,,,,,20,21,female,left_right_width,2023_Oct_25_1359,exp1,2021.2.3,59.90717980624089,
,,,,,,,,,,,,,,,,4,8.65,9.55,10.45,11.35,0,0.9,0.5,0.4,3.1,10,initial,36.05,312,344,377,409,0,9,9,9,9,0,,,,,0,0,0,0,0,7,7,34,,,,,num_4,2.5302952000056393,num_4,0.2,0.4,0.3,0.7,10.81288,25.23005,return,4.28374499999336,,,,,,,20,21,female,left_right_width,2023_Oct_25_1359,exp1,2021.2.3,59.90717980624089,
,,,,,,,,,,,,,,,,4,8.95,9.65,10.35,11.05,0,0.7,0.44999999999999996,0.25,2.3499999999999996,10,initial,36.05,323,348,373,398,0,9,9,9,9,0,,,,,0,0,0,0,0,8,8,26,,,,,num_4,2.545465700008208,num_4,0.45,1.0,0.15000000000000008,0.8,5.40644,28.83434,return,5.259029000008013,,,,,,,20,21,female,left_right_width,2023_Oct_25_1359,exp1,2021.2.3,59.90717980624089,
,,,,,,,,,,,,,,,,4,9.25,9.75,10.25,10.75,0,0.5,0.4,0.1,1.6,10,initial,36.05,333,351,370,388,0,9,9,9,9,0,,,,,0,0,0,0,0,9,9,18,,,,,num_5,4.094890000007581,num_5,0.1,0.5,0.05,0.5,1.80215,18.02146,return,2.3452369000006,,,,,,,20,21,female,left_right_width,2023_Oct_25_1359,exp1,2021.2.3,59.90717980624089,
,,,,,,,,,,,,,,,,3,9.3,10,10.7,0,0,0.7,0.29999999999999993,0.4,1.8,10,initial,36.05,335,361,386,0,0,9,9,9,0,0,,,,,0,0,0,0,0,10,10,10,,,,,num_3,2.8125948999950197,num_3,0.3,0.5,0.25,0.7,9.01073,25.23005,return,3.7872078999935184,,,,,,,20,21,female,left_right_width,2023_Oct_25_1359,exp1,2021.2.3,59.90717980624089,
,,,,,,,,,,,,,,,,3,8.2,10,11.8,0,0,1.7999999999999998,1.4,0.4,4,10,match,36.05,296,361,425,0,0,9,9,9,0,0,,,,,0,0,0,0,0,11,11,53,,,,,num_3,1.6109375999949407,num_3,0.1,1.3,0.25,1.4,9.01073,50.4601,return,3.7050550999992993,,,,,,,20,21,female,left_right_width,2023_Oct_25_1359,exp1,2021.2.3,59.90717980624089,
,,,,,,,,,,,,,,,,5,8.95,9.475,10,10.525,11.05,0.525,0.42500000000000004,0.1,2.2,10,match,36.05,323,342,361,379,398,9,9,9,9,9,,,,,0,0,0,0,0,12,12,25,,,,,num_6,2.2643274999863934,num_6,0.35,0.7,0.05000000000000002,0.7,1.80215,25.23005,return,5.917927500006044,,,,,,,20,21,female,left_right_width,2023_Oct_25_1359,exp1,2021.2.3,59.90717980624089,
,,,,,,,,,,,,,,,,3,8.2,10,11.8,0,0,1.8000000000000003,1.7000000000000002,0.1,3.7,10,match,36.05,296,361,425,0,0,9,9,9,0,0,,,,,0,0,0,0,0,13,13,49,,,,,num_3,1.7029413999989629,num_3,0.35,1.1,0.05000000000000002,1.4,1.80215,50.4601,return,7.6174642000114545,,,,,,,20,21,female,left_right_width,2023_Oct_25_1359,exp1,2021.2.3,59.90717980624089,
,,,,,,,,,,,,,,,,4,9.425,9.808333333333334,10.191666666666666,10.575,0,0.3833333333333333,0.1333333333333333,0.25,1.4,10,match,36.05,340,354,367,381,0,9,9,9,9,0,,,,,0,0,0,0,0,14,14,5,,,,,num_4,1.6833630000182893,num_4,0.25,0.3,0.10000000000000002,0.5,3.60429,18.02146,return,5.134296499978518,,,,,,,20,21,female,left_right_width,2023_Oct_25_1359,exp1,2021.2.3,59.90717980624089,
,,,,,,,,,,,,,,,,5,9.25,9.625,10,10.375,10.75,0.375,0.275,0.1,1.6,10,match,36.05,333,347,361,374,388,9,9,9,9,9,,,,,0,0,0,0,0,15,15,19,,,,,num_5,2.426895599986892,num_5,0.2,1.1,0.10000000000000002,0.6,3.60429,21.62576,return,5.848998400004348,,,,,,,20,21,female,left_right_width,2023_Oct_25_1359,exp1,2021.2.3,59.90717980624089,
,,,,,,,,,,,,,,,,3,9.3,10,10.7,0,0,0.7,0.44999999999999996,0.25,1.65,10,initial,36.05,335,361,386,0,0,9,9,9,0,0,,,,,0,0,0,0,0,16,16,8,,,,,num_3,1.333294100011699,num_3,0.45,1.2,0.20000000000000007,1.1,7.20859,39.64722,return,3.790740900003584,,,,,,,20,21,female,left_right_width,2023_Oct_25_1359,exp1,2021.2.3,59.90717980624089,
,,,,,,,,,,,,,,,,5,9,9.5,10,10.5,11,0.5,0.4,0.1,2.1,10,initial,36.05,324,342,361,379,397,9,9,9,9,9,,,,,0,0,0,0,0,17,17,36,,,,,num_5,2.2062789000046905,num_5,0.4,0.6,0.10000000000000007,0.6,3.60429,21.62576,return,4.531283699994674,,,,,,,20,21,female,left_right_width,2023_Oct_25_1359,exp1,2021.2.3,59.90717980624089,
,,,,,,,,,,,,,,,,4,9.25,9.75,10.25,10.75,0,0.5,0.25,0.25,1.75,10,initial,36.05,333,351,370,388,0,9,9,9,9,0,,,,,0,0,0,0,0,18,18,20,,,,,num_4,1.7782773000071757,num_4,0.1,0.8,0.2,0.7,7.20859,25.23005,return,5.94558450000477,,,,,,,20,21,female,left_right_width,2023_Oct_25_1359,exp1,2021.2.3,59.90717980624089,
,,,,,,,,,,,,,,,,5,8.65,9.325,10,10.675,11.35,0.6749999999999999,0.575,0.1,2.8,10,match,36.05,312,336,361,385,409,9,9,9,9,9,,,,,0,0,0,0,0,19,19,31,,,,,num_5,1.8907359000004362,num_5,0.2,0.3,0.05000000000000002,0.6,1.80215,21.62576,return,4.661501200025668,,,,,,,20,21,female,left_right_width,2023_Oct_25_1359,exp1,2021.2.3,59.90717980624089,
,,,,,,,,,,,,,,,,4,9.1,9.7,10.3,10.9,0,0.6000000000000001,0.20000000000000004,0.4,2.2,10,match,36.05,328,350,371,393,0,9,9,9,9,0,,,,,0,0,0,0,0,20,20,17,,,,,num_4,2.0402369999792427,num_4,0.4,0.9,0.30000000000000004,0.7,10.81288,25.23005,return,3.7803041000152007,,,,,,,20,21,female,left_right_width,2023_Oct_25_1359,exp1,2021.2.3,59.90717980624089,
,,,,,,,,,,,,,,,,4,9.5,9.833333333333334,10.166666666666666,10.5,0,0.3333333333333333,0.08333333333333333,0.25,1.25,10,match,36.05,342,354,367,379,0,9,9,9,9,0,,,,,0,0,0,0,0,21,21,3,,,,,num_4,2.670877099997597,num_4,0.4,1.0,0.15000000000000008,0.4,5.40644,14.41717,return,5.329017499985639,,,,,,,20,21,female,left_right_width,2023_Oct_25_1359,exp1,2021.2.3,59.90717980624089,
,,,,,,,,,,,,,,,,5,9,9.5,10,10.5,11,0.5,0.09999999999999998,0.4,2.4,10,initial,36.05,324,342,361,379,397,9,9,9,9,9,,,,,0,0,0,0,0,22,22,40,,,,,num_5,2.3721985000011045,num_5,0.3,1.3,0.39999999999999997,0.75,14.41717,27.0322,return,6.850949099985883,,,,,,,20,21,female,left_right_width,2023_Oct_25_1359,exp1,2021.2.3,59.90717980624089,
,,,,,,,,,,,,,,,,5,9.25,9.625,10,10.375,10.75,0.375,0.125,0.25,1.75,10,match,36.05,333,347,361,374,388,9,9,9,9,9,,,,,0,0,0,0,0,23,23,21,,,,,num_4,1.828984500025399,num_4,0.15,1.0,0.25,0.8,9.01073,28.83434,return,5.9782066000043415,,,,,,,20,21,female,left_right_width,2023_Oct_25_1359,exp1,2021.2.3,59.90717980624089,
,,,,,,,,,,,,,,,,3,9.3,10,10.7,0,0,0.7,0.6,0.1,1.5,10,initial,36.05,335,361,386,0,0,9,9,9,0,0,,,,,0,0,0,0,0,24,24,6,,,,,num_3,2.100080900010653,num_3,0.4,1.3,0.10000000000000007,1.15,3.60429,41.44937,return,4.0950781000137795,,,,,,,20,21,female,left_right_width,2023_Oct_25_1359,exp1,2021.2.3,59.90717980624089,
,,,,,,,,,,,,,,,,3,9,10,11,0,0,1,0.9,0.1,2.1,10,match,36.05,324,361,397,0,0,9,9,9,0,0,,,,,0,0,0,0,0,25,25,37,,,,,num_3,2.780348700005561,num_3,0.3,0.5,0.10000000000000002,1.0,3.60429,36.04293,return,4.045222000015201,,,,,,,20,21,female,left_right_width,2023_Oct_25_1359,exp1,2021.2.3,59.90717980624089,
,,,,,,,,,,,,,,,,3,9.1,10,10.9,0,0,0.9,0.8,0.1,1.9000000000000001,10,initial,36.05,328,361,393,0,0,9,9,9,0,0,,,,,0,0,0,0,0,26,26,12,,,,,num_3,1.6350335000024643,num_3,0.3,0.7,0.05000000000000002,1.0,1.80215,36.04293,return,3.038902700005565,,,,,,,20,21,female,left_right_width,2023_Oct_25_1359,exp1,2021.2.3,59.90717980624089,
,,,,,,,,,,,,,,,,4,9.1,9.7,10.3,10.9,0,0.5999999999999999,0.3499999999999999,0.25,2.05,10,match,36.05,328,350,371,393,0,9,9,9,9,0,,,,,0,0,0,0,0,27,27,15,,,,,num_4,1.384588699991582,num_4,0.2,1.2,0.10000000000000002,0.7,3.60429,25.23005,return,6.464253000012832,,,,,,,20,21,female,left_right_width,2023_Oct_25_1359,exp1,2021.2.3,59.90717980624089,
,,,,,,,,,,,,,,,,4,8.95,9.65,10.35,11.05,0,0.7,0.29999999999999993,0.4,2.5,10,initial,36.05,323,348,373,398,0,9,9,9,9,0,,,,,0,0,0,0,0,28,28,28,,,,,num_4,1.252787100005662,num_4,0.3,1.1,0.35,0.7,12.61502,25.23005,return,7.218528600002173,,,,,,,20,21,female,left_right_width,2023_Oct_25_1359,exp1,2021.2.3,59.90717980624089,
,,,,,,,,,,,,,,,,3,9.5,10,10.5,0,0,0.5,0.09999999999999998,0.4,1.4000000000000001,10,initial,36.05,342,361,379,0,0,9,9,9,0,0,,,,,0,0,0,0,0,29,29,4,,,,,num_3,1.321436400001403,num_3,0.1,0.3,0.35,0.7,12.61502,25.23005,return,4.482715399994049,,,,,,,20,21,female,left_right_width,2023_Oct_25_1359,exp1,2021.2.3,59.90717980624089,
,,,,,,,,,,,,,,,,3,8.2,10,11.8,0,0,1.8,1.55,0.25,3.85,10,match,36.05,296,361,425,0,0,9,9,9,0,0,,,,,0,0,0,0,0,30,30,51,,,,,num_3,1.1687202000175603,num_3,0.15,0.7,0.2,1.3,7.20859,46.85581,return,5.18263830000069,,,,,,,20,21,female,left_right_width,2023_Oct_25_1359,exp1,2021.2.3,59.90717980624089,
,,,,,,,,,,,,,,,,5,8.2,9.1,10,10.9,11.8,0.9,0.65,0.25,3.85,10,initial,36.05,296,328,361,393,425,9,9,9,9,9,,,,,0,0,0,0,0,31,31,50,,,,,num_5,1.7203527999809012,num_5,0.4,0.9,0.20000000000000007,1.0,7.20859,36.04293,return,3.0745759999845177,,,,,,,20,21,female,left_right_width,2023_Oct_25_1359,exp1,2021.2.3,59.90717980624089,
,,,,,,,,,,,,,,,,5,8.6,9.3,10,10.7,11.4,0.7,0.6,0.1,2.9,10,initial,36.05,310,335,361,386,411,9,9,9,9,9,,,,,0,0,0,0,0,32,32,42,,,,,num_5,1.6297368000086863,num_5,0.35,0.9,0.10000000000000002,0.95,3.60429,34.24078,return,4.395297800016124,,,,,,,20,21,female,left_right_width,2023_Oct_25_1359,exp1,2021.2.3,59.90717980624089,
,,,,,,,,,,,,,,,,5,8.65,9.325,10,10.675,11.35,0.675,0.275,0.4,3.1,10,match,36.05,312,336,361,385,409,9,9,9,9,9,,,,,0,0,0,0,0,33,33,35,,,,,num_5,1.7623569999996107,num_5,0.2,0.5,0.3,0.7,10.81288,25.23005,return,4.714094299997669,,,,,,,20,21,female,left_right_width,2023_Oct_25_1359,exp1,2021.2.3,59.90717980624089,
,,,,,,,,,,,,,,,,5,8.65,9.325,10,10.675,11.35,0.675,0.42500000000000004,0.25,2.95,10,match,36.05,312,336,361,385,409,9,9,9,9,9,,,,,0,0,0,0,0,34,34,33,,,,,num_6,2.7688939000072423,num_6,0.2,0.3,0.10000000000000002,0.5,3.60429,18.02146,return,6.446241099998588,,,,,,,20,21,female,left_right_width,2023_Oct_25_1359,exp1,2021.2.3,59.90717980624089,
,,,,,,,,,,,,,,,,4,8.65,9.55,10.45,11.35,0,0.9,0.8,0.1,2.8000000000000003,10,initial,36.05,312,344,377,409,0,9,9,9,9,0,,,,,0,0,0,0,0,35,35,30,,,,,num_4,2.9914562000194564,num_4,0.4,1.0,0.15000000000000008,0.7,5.40644,25.23005,return,3.63904619999812,,,,,,,20,21,female,left_right_width,2023_Oct_25_1359,exp1,2021.2.3,59.90717980624089,
,,,,,,,,,,,,,,,,3,8.6,10,11.4,0,0,1.4,1.15,0.25,3.05,10,match,36.05,310,361,411,0,0,9,9,9,0,0,,,,,0,0,0,0,0,36,36,45,,,,,num_3,1.3512709999922663,num_3,0.3,0.8,0.2,1.55,7.20859,55.86654,return,7.105756600009045,,,,,,,20,21,female,left_right_width,2023_Oct_25_1359,exp1,2021.2.3,59.90717980624089,
,,,,,,,,,,,,,,,,5,9.175,9.5875,10,10.4125,10.825,0.4125,0.16249999999999998,0.25,1.9,10,match,36.05,331,346,361,375,390,9,9,9,9,9,,,,,0,0,0,0,0,37,37,23,,,,,num_5,1.493009700003313,num_5,0.2,0.3,0.2,0.5,7.20859,18.02146,return,2.1848392999963835,,,,,,,20,21,female,left_right_width,2023_Oct_25_1359,exp1,2021.2.3,59.90717980624089,
,,,,,,,,,,,,,,,,4,8.95,9.65,10.35,11.05,0,0.7,0.6,0.1,2.1999999999999997,10,initial,36.05,323,348,373,398,0,9,9,9,9,0,,,,,0,0,0,0,0,38,38,24,,,,,num_4,1.2834100000036415,num_4,0.3,1.3,0.05000000000000002,1.0,1.80215,36.04293,return,4.911235300009139,,,,,,,20,21,female,left_right_width,2023_Oct_25_1359,exp1,2021.2.3,59.90717980624089,
,,,,,,,,,,,,,,,,5,8.2,9.1,10,10.9,11.8,0.9,0.8,0.1,3.7,10,initial,36.05,296,328,361,393,425,9,9,9,9,9,,,,,0,0,0,0,0,39,39,48,,,,,num_5,1.5816852999851108,num_5,0.4,0.5,0.05000000000000007,0.85,1.80215,30.63649,return,4.1892098000098485,,,,,,,20,21,female,left_right_width,2023_Oct_25_1359,exp1,2021.2.3,59.90717980624089,
,,,,,,,,,,,,,,,,3,8.6,10,11.4,0,0,1.4,1.2999999999999998,0.1,2.9,10,match,36.05,310,361,411,0,0,9,9,9,0,0,,,,,0,0,0,0,0,40,40,43,,,,,num_4,1.4701051999873016,num_4,0.25,0.4,0.05000000000000002,0.9,1.80215,32.43864,return,3.168504800007213,,,,,,,20,21,female,left_right_width,2023_Oct_25_1359,exp1,2021.2.3,59.90717980624089,
,,,,,,,,,,,,,,,,5,8.95,9.475,10,10.525,11.05,0.525,0.275,0.25,2.35,10,match,36.05,323,342,361,379,398,9,9,9,9,9,,,,,0,0,0,0,0,41,41,27,,,,,num_4,1.6862978000135627,num_4,0.2,1.2,0.15000000000000002,0.8,5.40644,28.83434,return,6.626455999998143,,,,,,,20,21,female,left_right_width,2023_Oct_25_1359,exp1,2021.2.3,59.90717980624089,
,,,,,,,,,,,,,,,,4,9.3,9.766666666666667,10.233333333333333,10.7,0,0.4666666666666667,0.3666666666666667,0.1,1.5,10,match,36.05,335,352,369,386,0,9,9,9,9,0,,,,,0,0,0,0,0,42,42,7,,,,,num_5,2.155011300026672,num_5,0.15,0.4,0.09999999999999999,0.45,3.60429,16.21932,return,2.674053199996706,,,,,,,20,21,female,left_right_width,2023_Oct_25_1359,exp1,2021.2.3,59.90717980624089,
,,,,,,,,,,,,,,,,5,9,9.5,10,10.5,11,0.5,0.25,0.25,2.25,10,initial,36.05,324,342,361,379,397,9,9,9,9,9,,,,,0,0,0,0,0,43,43,38,,,,,num_4,1.2970289000077173,num_4,0.35,1.1,0.2,0.7,7.20859,25.23005,return,9.276525199995376,,,,,,,20,21,female,left_right_width,2023_Oct_25_1359,exp1,2021.2.3,59.90717980624089,
,,,,,,,,,,,,,,,,3,8.525,10,11.475,0,0,1.475,1.225,0.25,3.2,10,match,36.05,307,361,414,0,0,9,9,9,0,0,,,,,0,0,0,0,0,44,44,47,,,,,num_4,1.4494030000059865,num_4,0.15,0.9,0.25,1.1,9.01073,39.64722,return,4.0351567000034265,,,,,,,20,21,female,left_right_width,2023_Oct_25_1359,exp1,2021.2.3,59.90717980624089,
,,,,,,,,,,,,,,,,3,9.1,10,10.9,0,0,0.9,0.65,0.25,2.05,10,initial,36.05,328,361,393,0,0,9,9,9,0,0,,,,,0,0,0,0,0,45,45,14,,,,,num_3,1.2961971999902744,num_3,0.15,0.5,0.2,0.8,7.20859,28.83434,return,4.749730500014266,,,,,,,20,21,female,left_right_width,2023_Oct_25_1359,exp1,2021.2.3,59.90717980624089,
,,,,,,,,,,,,,,,,4,9.3,9.766666666666667,10.233333333333333,10.7,0,0.4666666666666667,0.21666666666666665,0.25,1.65,10,match,36.05,335,352,369,386,0,9,9,9,9,0,,,,,0,0,0,0,0,46,46,9,,,,,num_4,1.440369499992812,num_4,0.35,0.4,0.15000000000000002,0.6,5.40644,21.62576,return,4.838178100006189,,,,,,,20,21,female,left_right_width,2023_Oct_25_1359,exp1,2021.2.3,59.90717980624089,
,,,,,,,,,,,,,,,,3,9,10,11,0,0,1,0.75,0.25,2.25,10,match,36.05,324,361,397,0,0,9,9,9,0,0,,,,,0,0,0,0,0,47,47,39,,,,,num_3,0.9988348000042606,num_3,0.45,1.1,0.30000000000000004,1.2,10.81288,43.25151,return,3.387420299986843,,,,,,,20,21,female,left_right_width,2023_Oct_25_1359,exp1,2021.2.3,59.90717980624089,
,,,,,,,,,,,,,,,,4,9.5,9.833333333333334,10.166666666666666,10.5,0,0.33333333333333337,0.23333333333333336,0.1,1.1,10,match,36.05,342,354,367,379,0,9,9,9,9,0,,,,,0,0,0,0,0,48,48,1,,,,,num_4,1.1649066999962088,num_4,0.3,1.2,0.15000000000000002,0.7,5.40644,25.23005,return,7.565993199998047,,,,,,,20,21,female,left_right_width,2023_Oct_25_1359,exp1,2021.2.3,59.90717980624089,
,,,,,,,,,,,,,,,,3,9.5,10,10.5,0,0,0.5,0.25,0.25,1.25,10,initial,36.05,342,361,379,0,0,9,9,9,0,0,,,,,0,0,0,0,0,49,49,2,,,,,num_3,1.1959726999921259,num_3,0.15,1.1,0.15000000000000002,0.5,5.40644,18.02146,return,8.445220399997197,,,,,,,20,21,female,left_right_width,2023_Oct_25_1359,exp1,2021.2.3,59.90717980624089,
,,,,,,,,,,,,,,,,3,9,10,11,0,0,0.9999999999999999,0.5999999999999999,0.4,2.4,10,match,36.05,324,361,397,0,0,9,9,9,0,0,,,,,0,0,0,0,0,50,50,41,,,,,num_3,1.183368199999677,num_3,0.45,1.1,0.4,1.15,14.41717,41.44937,return,3.6161677000054624,,,,,,,20,21,female,left_right_width,2023_Oct_25_1359,exp1,2021.2.3,59.90717980624089,
,,,,,,,,,,,,,,,,3,9.1,10,10.9,0,0,0.9,0.5,0.4,2.2,10,initial,36.05,328,361,393,0,0,9,9,9,0,0,,,,,0,0,0,0,0,51,51,16,,,,,num_3,1.25908889999846,num_3,0.25,1.3,0.35,1.15,12.61502,41.44937,return,4.711666099989088,,,,,,,20,21,female,left_right_width,2023_Oct_25_1359,exp1,2021.2.3,59.90717980624089,
,,,,,,,,,,,,,,,,3,9.5,10,10.5,0,0,0.5,0.4,0.1,1.1,10,initial,36.05,342,361,379,0,0,9,9,9,0,0,,,,,0,0,0,0,0,52,52,0,,,,,num_3,1.1028193999954965,num_3,0.15,0.5,0.04999999999999999,0.6,1.80215,21.62576,return,3.9360114999872167,,,,,,,20,21,female,left_right_width,2023_Oct_25_1359,exp1,2021.2.3,59.90717980624089,
,,,,,,,,,,,,,,,,4,8.65,9.55,10.45,11.35,0,0.9,0.65,0.25,2.95,10,initial,36.05,312,344,377,409,0,9,9,9,9,0,,,,,0,0,0,0,0,53,53,32,,,,,num_4,1.0733613999909721,num_4,0.35,0.5,0.15000000000000002,0.9,5.40644,32.43864,return,4.837663200014504,,,,,,,20,21,female,left_right_width,2023_Oct_25_1359,exp1,2021.2.3,59.90717980624089,
,,,,,,,,,,,,,,,,,,,,,,,,,,,,,,,,,,,,,,,,,,,0,0,0,0,,,,,,,,,,,,,,,,,,,,,,770.8943300000101,None,770.8943300000101,None,20,21,female,left_right_width,2023_Oct_25_1359,exp1,2021.2.3,59.90717980624089,
,,,,,,,,,,,,,,,,4,8.65,9.55,10.45,11.35,0,0.9,0.5,0.4,3.1,10,initial,36.05,312,344,377,409,0,9,9,9,9,0,,,,,1,0,1,0,0,0,0,34,,,,,num_4,0.9168338000017684,num_4,0.2,1.0,0.3,1.1,10.81288,39.64722,return,6.89301699999487,,,,,,,20,21,female,left_right_width,2023_Oct_25_1359,exp1,2021.2.3,59.90717980624089,
,,,,,,,,,,,,,,,,3,8.6,10,11.4,0,0,1.4,1.2999999999999998,0.1,2.9,10,match,36.05,310,361,411,0,0,9,9,9,0,0,,,,,1,0,1,0,0,1,1,43,,,,,num_3,1.5770074000174645,num_3,0.2,1.2,0.10000000000000002,1.3,3.60429,46.85581,return,3.8176531000062823,,,,,,,20,21,female,left_right_width,2023_Oct_25_1359,exp1,2021.2.3,59.90717980624089,
,,,,,,,,,,,,,,,,4,8.95,9.65,10.35,11.05,0,0.7,0.29999999999999993,0.4,2.5,10,initial,36.05,323,348,373,398,0,9,9,9,9,0,,,,,1,0,1,0,0,2,2,28,,,,,num_4,1.0729696000053082,num_4,0.2,0.3,0.2,0.8,7.20859,28.83434,return,6.630496400000993,,,,,,,20,21,female,left_right_width,2023_Oct_25_1359,exp1,2021.2.3,59.90717980624089,
,,,,,,,,,,,,,,,,3,9.1,10,10.9,0,0,0.9,0.5,0.4,2.2,10,initial,36.05,328,361,393,0,0,9,9,9,0,0,,,,,1,0,1,0,0,3,3,16,,,,,num_3,0.9783442000043578,num_3,0.45,0.9,0.45,1.1,16.21932,39.64722,return,2.921793899993645,,,,,,,20,21,female,left_right_width,2023_Oct_25_1359,exp1,2021.2.3,59.90717980624089,
,,,,,,,,,,,,,,,,4,8.95,9.65,10.35,11.05,0,0.7,0.6,0.1,2.1999999999999997,10,initial,36.05,323,348,373,398,0,9,9,9,9,0,,,,,1,0,1,0,0,4,4,24,,,,,num_4,1.0835399999923538,num_4,0.3,0.7,0.10000000000000002,0.9,3.60429,32.43864,return,4.190855099994224,,,,,,,20,21,female,left_right_width,2023_Oct_25_1359,exp1,2021.2.3,59.90717980624089,
,,,,,,,,,,,,,,,,4,9.25,9.75,10.25,10.75,0,0.5,0.09999999999999998,0.4,1.9,10,initial,36.05,333,351,370,388,0,9,9,9,9,0,,,,,1,0,1,0,0,5,5,22,,,,,num_4,1.3482564000005368,num_4,0.4,1.0,0.35000000000000003,0.6,12.61502,21.62576,return,5.116303799994057,,,,,,,20,21,female,left_right_width,2023_Oct_25_1359,exp1,2021.2.3,59.90717980624089,
,,,,,,,,,,,,,,,,3,9.3,10,10.7,0,0,0.7,0.6,0.1,1.5,10,initial,36.05,335,361,386,0,0,9,9,9,0,0,,,,,1,0,1,0,0,6,6,6,,,,,num_3,1.4054304000164848,num_3,0.25,0.9,0.10000000000000002,0.9,3.60429,32.43864,return,1.8452710999990813,,,,,,,20,21,female,left_right_width,2023_Oct_25_1359,exp1,2021.2.3,59.90717980624089,
,,,,,,,,,,,,,,,,5,8.2,9.1,10,10.9,11.8,0.9,0.65,0.25,3.85,10,initial,36.05,296,328,361,393,425,9,9,9,9,9,,,,,1,0,1,0,0,7,7,50,,,,,num_5,1.2704961000126787,num_5,0.25,0.6,0.15000000000000002,0.7,5.40644,25.23005,return,3.1444306999910623,,,,,,,20,21,female,left_right_width,2023_Oct_25_1359,exp1,2021.2.3,59.90717980624089,
,,,,,,,,,,,,,,,,3,9.1,10,10.9,0,0,0.9,0.65,0.25,2.05,10,initial,36.05,328,361,393,0,0,9,9,9,0,0,,,,,1,0,1,0,0,8,8,14,,,,,num_3,2.0913850000069942,num_3,0.3,0.7,0.25,1.0,9.01073,36.04293,return,4.710923400009051,,,,,,,20,21,female,left_right_width,2023_Oct_25_1359,exp1,2021.2.3,59.90717980624089,
,,,,,,,,,,,,,,,,4,9.1,9.7,10.3,10.9,0,0.6,0.5,0.1,1.9,10,match,36.05,328,350,371,393,0,9,9,9,9,0,,,,,1,0,1,0,0,9,9,13,,,,,num_4,0.9607984999893233,num_4,0.1,0.4,0.15000000000000002,0.7,5.40644,25.23005,return,6.409898700017948,,,,,,,20,21,female,left_right_width,2023_Oct_25_1359,exp1,2021.2.3,59.90717980624089,
,,,,,,,,,,,,,,,,3,9.5,10,10.5,0,0,0.5,0.09999999999999998,0.4,1.4000000000000001,10,initial,36.05,342,361,379,0,0,9,9,9,0,0,,,,,1,0,1,0,0,10,10,4,,,,,num_3,1.0738984000054188,num_3,0.15,0.8,0.35,0.65,12.61502,23.4279,return,5.046387799986405,,,,,,,20,21,female,left_right_width,2023_Oct_25_1359,exp1,2021.2.3,59.90717980624089,
,,,,,,,,,,,,,,,,5,8.6,9.3,10,10.7,11.4,0.7,0.44999999999999996,0.25,3.05,10,initial,36.05,310,335,361,386,411,9,9,9,9,9,,,,,1,0,1,0,0,11,11,44,,,,,num_6,2.562925300007919,num_6,0.15,0.3,0.09999999999999999,0.6,3.60429,21.62576,return,4.620921900001122,,,,,,,20,21,female,left_right_width,2023_Oct_25_1359,exp1,2021.2.3,59.90717980624089,
,,,,,,,,,,,,,,,,5,8.6,9.3,10,10.7,11.4,0.7,0.6,0.1,2.9,10,initial,36.05,310,335,361,386,411,9,9,9,9,9,,,,,1,0,1,0,0,12,12,42,,,,,num_4,2.159179700014647,num_4,0.4,0.8,0.15000000000000008,0.8,5.40644,28.83434,return,5.510537199996179,,,,,,,20,21,female,left_right_width,2023_Oct_25_1359,exp1,2021.2.3,59.90717980624089,
,,,,,,,,,,,,,,,,4,8.65,9.55,10.45,11.35,0,0.9,0.8,0.1,2.8000000000000003,10,initial,36.05,312,344,377,409,0,9,9,9,9,0,,,,,1,0,1,0,0,13,13,30,,,,,num_4,1.3635366999951657,num_4,0.45,1.0,0.05000000000000007,1.1,1.80215,39.64722,return,4.653185500006657,,,,,,,20,21,female,left_right_width,2023_Oct_25_1359,exp1,2021.2.3,59.90717980624089,
,,,,,,,,,,,,,,,,3,8.2,10,11.8,0,0,1.7999999999999998,1.4,0.4,4,10,match,36.05,296,361,425,0,0,9,9,9,0,0,,,,,1,0,1,0,0,14,14,53,,,,,num_4,3.0609884000150487,num_4,0.4,1.0,0.20000000000000007,1.1,7.20859,39.64722,return,2.793657800008077,,,,,,,20,21,female,left_right_width,2023_Oct_25_1359,exp1,2021.2.3,59.90717980624089,
,,,,,,,,,,,,,,,,5,9,9.5,10,10.5,11,0.5,0.4,0.1,2.1,10,initial,36.05,324,342,361,379,397,9,9,9,9,9,,,,,1,0,1,0,0,15,15,36,,,,,num_4,1.5623965999984648,num_4,0.3,0.4,0.05000000000000002,0.7,1.80215,25.23005,return,6.091092999995453,,,,,,,20,21,female,left_right_width,2023_Oct_25_1359,exp1,2021.2.3,59.90717980624089,
,,,,,,,,,,,,,,,,5,8.2,9.1,10,10.9,11.8,0.9,0.5,0.4,4,10,initial,36.05,296,328,361,393,425,9,9,9,9,9,,,,,1,0,1,0,0,16,16,52,,,,,num_6,1.581318700016709,num_6,0.45,0.6,0.15000000000000008,0.7,5.40644,25.23005,return,5.095682000013767,,,,,,,20,21,female,left_right_width,2023_Oct_25_1359,exp1,2021.2.3,59.90717980624089,
,,,,,,,,,,,,,,,,5,8.95,9.475,10,10.525,11.05,0.525,0.42500000000000004,0.1,2.2,10,match,36.05,323,342,361,379,398,9,9,9,9,9,,,,,1,0,1,0,0,17,17,25,,,,,num_7,3.252962900005514,num_7,0.1,0.4,0.1,0.5,3.60429,18.02146,return,2.8661799999827053,,,,,,,20,21,female,left_right_width,2023_Oct_25_1359,exp1,2021.2.3,59.90717980624089,
,,,,,,,,,,,,,,,,4,9.1,9.7,10.3,10.9,0,0.5999999999999999,0.3499999999999999,0.25,2.05,10,match,36.05,328,350,371,393,0,9,9,9,9,0,,,,,1,0,1,0,0,18,18,15,,,,,num_4,1.1112121999904048,num_4,0.35,0.8,0.2,0.6,7.20859,21.62576,return,3.012052700010827,,,,,,,20,21,female,left_right_width,2023_Oct_25_1359,exp1,2021.2.3,59.90717980624089,
,,,,,,,,,,,,,,,,3,8.6,10,11.4,0,0,1.4,1.15,0.25,3.05,10,match,36.05,310,361,411,0,0,9,9,9,0,0,,,,,1,0,1,0,0,19,19,45,,,,,num_3,1.0388788999989629,num_3,0.35,1,0.15000000000000002,1.1,5.40644,39.64722,return,3.81332200000179,,,,,,,20,21,female,left_right_width,2023_Oct_25_1359,exp1,2021.2.3,59.90717980624089,
,,,,,,,,,,,,,,,,4,9.1,9.7,10.3,10.9,0,0.6000000000000001,0.20000000000000004,0.4,2.2,10,match,36.05,328,350,371,393,0,9,9,9,9,0,,,,,1,0,1,0,0,20,20,17,,,,,num_3,1.624332899984438,num_3,0.25,0.5,0.35,0.8,12.61502,28.83434,return,5.653555099997902,,,,,,,20,21,female,left_right_width,2023_Oct_25_1359,exp1,2021.2.3,59.90717980624089,
,,,,,,,,,,,,,,,,5,8.95,9.475,10,10.525,11.05,0.525,0.125,0.4,2.5,10,match,36.05,323,342,361,379,398,9,9,9,9,9,,,,,1,0,1,0,0,21,21,29,,,,,num_5,2.119054899987532,num_5,0.1,1.3,0.25,0.9,9.01073,32.43864,return,7.376910699997097,,,,,,,20,21,female,left_right_width,2023_Oct_25_1359,exp1,2021.2.3,59.90717980624089,
,,,,,,,,,,,,,,,,3,9.5,10,10.5,0,0,0.5,0.25,0.25,1.25,10,initial,36.05,342,361,379,0,0,9,9,9,0,0,,,,,1,0,1,0,0,22,22,2,,,,,num_3,1.072290999989491,num_3,0.35,0.7,0.2,0.7,7.20859,25.23005,return,1.8921754000184592,,,,,,,20,21,female,left_right_width,2023_Oct_25_1359,exp1,2021.2.3,59.90717980624089,
,,,,,,,,,,,,,,,,4,9.3,9.766666666666667,10.233333333333333,10.7,0,0.4666666666666667,0.21666666666666665,0.25,1.65,10,match,36.05,335,352,369,386,0,9,9,9,9,0,,,,,1,0,1,0,0,23,23,9,,,,,num_4,1.1469497999933083,num_4,0.1,0.7,0.2,0.6,7.20859,21.62576,return,4.636198000021977,,,,,,,20,21,female,left_right_width,2023_Oct_25_1359,exp1,2021.2.3,59.90717980624089,
,,,,,,,,,,,,,,,,5,8.65,9.325,10,10.675,11.35,0.675,0.275,0.4,3.1,10,match,36.05,312,336,361,385,409,9,9,9,9,9,,,,,1,0,1,0,0,24,24,35,,,,,num_5,1.7056962000206113,num_5,0.2,0.5,0.25,0.65,9.01073,23.4279,return,3.7146629999915604,,,,,,,20,21,female,left_right_width,2023_Oct_25_1359,exp1,2021.2.3,59.90717980624089,
,,,,,,,,,,,,,,,,4,9.25,9.75,10.25,10.75,0,0.5,0.4,0.1,1.6,10,initial,36.05,333,351,370,388,0,9,9,9,9,0,,,,,1,0,1,0,0,25,25,18,,,,,num_4,1.0963343000039458,num_4,0.45,1.3,0.10000000000000007,0.8,3.60429,28.83434,return,5.565071699995315,,,,,,,20,21,female,left_right_width,2023_Oct_25_1359,exp1,2021.2.3,59.90717980624089,
,,,,,,,,,,,,,,,,5,8.2,9.1,10,10.9,11.8,0.9,0.8,0.1,3.7,10,initial,36.05,296,328,361,393,425,9,9,9,9,9,,,,,1,0,1,0,0,26,26,48,,,,,num_5,1.6534537999832537,num_5,0.4,0.9,0.05000000000000007,1.05,1.80215,37.84507,return,3.698250999994343,,,,,,,20,21,female,left_right_width,2023_Oct_25_1359,exp1,2021.2.3,59.90717980624089,
,,,,,,,,,,,,,,,,3,9,10,11,0,0,0.9999999999999999,0.5999999999999999,0.4,2.4,10,match,36.05,324,361,397,0,0,9,9,9,0,0,,,,,1,0,1,0,0,27,27,41,,,,,num_4,1.3663272999983747,num_4,0.25,0.7,0.2,0.8,7.20859,28.83434,return,4.267656300013186,,,,,,,20,21,female,left_right_width,2023_Oct_25_1359,exp1,2021.2.3,59.90717980624089,
,,,,,,,,,,,,,,,,5,8.95,9.475,10,10.525,11.05,0.525,0.275,0.25,2.35,10,match,36.05,323,342,361,379,398,9,9,9,9,9,,,,,1,0,1,0,0,28,28,27,,,,,num_5,1.2122587999911048,num_5,0.1,1.2,0.2,0.65,7.20859,23.4279,return,6.3942049000179395,,,,,,,20,21,female,left_right_width,2023_Oct_25_1359,exp1,2021.2.3,59.90717980624089,
,,,,,,,,,,,,,,,,5,8.65,9.325,10,10.675,11.35,0.675,0.42500000000000004,0.25,2.95,10,match,36.05,312,336,361,385,409,9,9,9,9,9,,,,,1,0,1,0,0,29,29,33,,,,,num_5,2.384782700013602,num_5,0.3,1.3,0.15000000000000002,0.9,5.40644,32.43864,return,4.238646800018614,,,,,,,20,21,female,left_right_width,2023_Oct_25_1359,exp1,2021.2.3,59.90717980624089,
,,,,,,,,,,,,,,,,4,9.25,9.75,10.25,10.75,0,0.5,0.25,0.25,1.75,10,initial,36.05,333,351,370,388,0,9,9,9,9,0,,,,,1,0,1,0,0,30,30,20,,,,,num_4,1.5013659999822266,num_4,0.35,0.5,0.2,0.6,7.20859,21.62576,return,8.049196899984963,,,,,,,20,21,female,left_right_width,2023_Oct_25_1359,exp1,2021.2.3,59.90717980624089,
,,,,,,,,,,,,,,,,3,8.2,10,11.8,0,0,1.8,1.55,0.25,3.85,10,match,36.05,296,361,425,0,0,9,9,9,0,0,,,,,1,0,1,0,0,31,31,51,,,,,num_4,1.4994655999762472,num_4,0.2,1.1,0.15000000000000002,1.3,5.40644,46.85581,return,3.0868622999987565,,,,,,,20,21,female,left_right_width,2023_Oct_25_1359,exp1,2021.2.3,59.90717980624089,
,,,,,,,,,,,,,,,,4,8.65,9.55,10.45,11.35,0,0.9,0.65,0.25,2.95,10,initial,36.05,312,344,377,409,0,9,9,9,9,0,,,,,1,0,1,0,0,32,32,32,,,,,num_4,1.0283736999845132,num_4,0.15,1.0,0.09999999999999999,1.1,3.60429,39.64722,return,2.4583148000237998,,,,,,,20,21,female,left_right_width,2023_Oct_25_1359,exp1,2021.2.3,59.90717980624089,
,,,,,,,,,,,,,,,,5,8.6,9.3,10,10.7,11.4,0.7,0.29999999999999993,0.4,3.1999999999999997,10,initial,36.05,310,335,361,386,411,9,9,9,9,9,,,,,1,0,1,0,0,33,33,46,,,,,num_5,1.226326899981359,num_5,0.35,0.7,0.3,0.75,10.81288,27.0322,return,3.5577403999923263,,,,,,,20,21,female,left_right_width,2023_Oct_25_1359,exp1,2021.2.3,59.90717980624089,
,,,,,,,,,,,,,,,,5,9,9.5,10,10.5,11,0.5,0.25,0.25,2.25,10,initial,36.05,324,342,361,379,397,9,9,9,9,9,,,,,1,0,1,0,0,34,34,38,,,,,num_6,1.2001959000190254,num_6,0.2,0.6,0.2,0.5,7.20859,18.02146,return,2.253858999989461,,,,,,,20,21,female,left_right_width,2023_Oct_25_1359,exp1,2021.2.3,59.90717980624089,
,,,,,,,,,,,,,,,,4,9.425,9.808333333333334,10.191666666666666,10.575,0,0.3833333333333333,0.1333333333333333,0.25,1.4,10,match,36.05,340,354,367,381,0,9,9,9,9,0,,,,,1,0,1,0,0,35,35,5,,,,,num_5,1.627456100017298,num_5,0.2,1.1,0.15000000000000002,0.45,5.40644,16.21932,return,4.170137299981434,,,,,,,20,21,female,left_right_width,2023_Oct_25_1359,exp1,2021.2.3,59.90717980624089,
,,,,,,,,,,,,,,,,3,9,10,11,0,0,1,0.75,0.25,2.25,10,match,36.05,324,361,397,0,0,9,9,9,0,0,,,,,1,0,1,0,0,36,36,39,,,,,num_3,1.3434879999840632,num_3,0.15,0.8,0.2,0.95,7.20859,34.24078,return,4.505624799989164,,,,,,,20,21,female,left_right_width,2023_Oct_25_1359,exp1,2021.2.3,59.90717980624089,
,,,,,,,,,,,,,,,,5,9.25,9.625,10,10.375,10.75,0.375,0.275,0.1,1.6,10,match,36.05,333,347,361,374,388,9,9,9,9,9,,,,,1,0,1,0,0,37,37,19,,,,,num_5,1.355581899988465,num_5,0.2,0.9,0.10000000000000002,0.65,3.60429,23.4279,return,4.115109400008805,,,,,,,20,21,female,left_right_width,2023_Oct_25_1359,exp1,2021.2.3,59.90717980624089,
,,,,,,,,,,,,,,,,4,9.5,9.833333333333334,10.166666666666666,10.5,0,0.3333333333333333,0.08333333333333333,0.25,1.25,10,match,36.05,342,354,367,379,0,9,9,9,9,0,,,,,1,0,1,0,0,38,38,3,,,,,num_5,1.8999866000085603,num_5,0.45,1.1,0.25000000000000006,0.5,9.01073,18.02146,return,5.120110999996541,,,,,,,20,21,female,left_right_width,2023_Oct_25_1359,exp1,2021.2.3,59.90717980624089,
,,,,,,,,,,,,,,,,4,9.5,9.833333333333334,10.166666666666666,10.5,0,0.33333333333333337,0.23333333333333336,0.1,1.1,10,match,36.05,342,354,367,379,0,9,9,9,9,0,,,,,1,0,1,0,0,39,39,1,,,,,num_3,1.3180470999795943,num_3,0.25,0.7,0.15000000000000002,0.65,5.40644,23.4279,return,7.614746599982027,,,,,,,20,21,female,left_right_width,2023_Oct_25_1359,exp1,2021.2.3,59.90717980624089,
,,,,,,,,,,,,,,,,4,9.3,9.766666666666667,10.233333333333333,10.7,0,0.4666666666666667,0.3666666666666667,0.1,1.5,10,match,36.05,335,352,369,386,0,9,9,9,9,0,,,,,1,0,1,0,0,40,40,7,,,,,num_3,1.184632699994836,num_3,0.15,1.2,0.04999999999999999,0.85,1.80215,30.63649,return,2.62521490000654,,,,,,,20,21,female,left_right_width,2023_Oct_25_1359,exp1,2021.2.3,59.90717980624089,
,,,,,,,,,,,,,,,,5,9.175,9.5875,10,10.4125,10.825,0.4125,0.16249999999999998,0.25,1.9,10,match,36.05,331,346,361,375,390,9,9,9,9,9,,,,,1,0,1,0,0,41,41,23,,,,,num_5,1.8390540000109468,num_5,0.1,1.2,0.15000000000000002,0.6,5.40644,21.62576,return,6.2117921999888495,,,,,,,20,21,female,left_right_width,2023_Oct_25_1359,exp1,2021.2.3,59.90717980624089,
,,,,,,,,,,,,,,,,3,9.3,10,10.7,0,0,0.7,0.44999999999999996,0.25,1.65,10,initial,36.05,335,361,386,0,0,9,9,9,0,0,,,,,1,0,1,0,0,42,42,8,,,,,num_3,1.220115900010569,num_3,0.3,0.6,0.15000000000000002,0.75,5.40644,27.0322,return,5.69815050001489,,,,,,,20,21,female,left_right_width,2023_Oct_25_1359,exp1,2021.2.3,59.90717980624089,
,,,,,,,,,,,,,,,,3,8.525,10,11.475,0,0,1.475,1.225,0.25,3.2,10,match,36.05,307,361,414,0,0,9,9,9,0,0,,,,,1,0,1,0,0,43,43,47,,,,,num_4,1.0887654999969527,num_4,0.35,1.3,0.15000000000000002,1.4,5.40644,50.4601,return,2.9791049000050407,,,,,,,20,21,female,left_right_width,2023_Oct_25_1359,exp1,2021.2.3,59.90717980624089,
,,,,,,,,,,,,,,,,5,9,9.5,10,10.5,11,0.5,0.09999999999999998,0.4,2.4,10,initial,36.05,324,342,361,379,397,9,9,9,9,9,,,,,1,0,1,0,0,44,44,40,,,,,num_5,1.1035154999990482,num_5,0.45,1.0,0.30000000000000004,0.75,10.81288,27.0322,return,4.673774400027469,,,,,,,20,21,female,left_right_width,2023_Oct_25_1359,exp1,2021.2.3,59.90717980624089,
,,,,,,,,,,,,,,,,3,9.5,10,10.5,0,0,0.5,0.4,0.1,1.1,10,initial,36.05,342,361,379,0,0,9,9,9,0,0,,,,,1,0,1,0,0,45,45,0,,,,,num_3,1.0215114000020549,num_3,0.25,0.9,0.05000000000000002,0.75,1.80215,27.0322,return,2.5336368000134826,,,,,,,20,21,female,left_right_width,2023_Oct_25_1359,exp1,2021.2.3,59.90717980624089,
,,,,,,,,,,,,,,,,3,9.3,10,10.7,0,0,0.7,0.29999999999999993,0.4,1.8,10,initial,36.05,335,361,386,0,0,9,9,9,0,0,,,,,1,0,1,0,0,46,46,10,,,,,num_3,0.9869906000094488,num_3,0.15,1.2,0.3,0.85,10.81288,30.63649,return,4.449588199990103,,,,,,,20,21,female,left_right_width,2023_Oct_25_1359,exp1,2021.2.3,59.90717980624089,
,,,,,,,,,,,,,,,,3,9.1,10,10.9,0,0,0.9,0.8,0.1,1.9000000000000001,10,initial,36.05,328,361,393,0,0,9,9,9,0,0,,,,,1,0,1,0,0,47,47,12,,,,,num_3,0.8889333000115585,num_3,0.2,0.3,0.05000000000000002,0.95,1.80215,34.24078,return,5.202029399981257,,,,,,,20,21,female,left_right_width,2023_Oct_25_1359,exp1,2021.2.3,59.90717980624089,
,,,,,,,,,,,,,,,,3,8.2,10,11.8,0,0,1.8000000000000003,1.7000000000000002,0.1,3.7,10,match,36.05,296,361,425,0,0,9,9,9,0,0,,,,,1,0,1,0,0,48,48,49,,,,,num_3,0.9928855999896768,num_3,0.2,1,0.05000000000000002,1.85,1.80215,66.67942,return,4.600637099996675,,,,,,,20,21,female,left_right_width,2023_Oct_25_1359,exp1,2021.2.3,59.90717980624089,
,,,,,,,,,,,,,,,,4,9.3,9.766666666666667,10.233333333333333,10.7,0,0.4666666666666667,0.06666666666666665,0.4,1.8,10,match,36.05,335,352,369,386,0,9,9,9,9,0,,,,,1,0,1,0,0,49,49,11,,,,,num_4,1.0974234000022989,num_4,0.35,1.1,0.3,0.6,10.81288,21.62576,return,5.051567799993791,,,,,,,20,21,female,left_right_width,2023_Oct_25_1359,exp1,2021.2.3,59.90717980624089,
,,,,,,,,,,,,,,,,4,8.95,9.65,10.35,11.05,0,0.7,0.44999999999999996,0.25,2.3499999999999996,10,initial,36.05,323,348,373,398,0,9,9,9,9,0,,,,,1,0,1,0,0,50,50,26,,,,,num_4,1.3628779999853577,num_4,0.1,1.3,0.3,0.6,10.81288,21.62576,return,4.893361700000241,,,,,,,20,21,female,left_right_width,2023_Oct_25_1359,exp1,2021.2.3,59.90717980624089,
,,,,,,,,,,,,,,,,3,9,10,11,0,0,1,0.9,0.1,2.1,10,match,36.05,324,361,397,0,0,9,9,9,0,0,,,,,1,0,1,0,0,51,51,37,,,,,num_3,1.2965161000029184,num_3,0.15,1,0.09999999999999999,1.4,3.60429,50.4601,return,5.275775900023291,,,,,,,20,21,female,left_right_width,2023_Oct_25_1359,exp1,2021.2.3,59.90717980624089,
,,,,,,,,,,,,,,,,5,8.65,9.325,10,10.675,11.35,0.6749999999999999,0.575,0.1,2.8,10,match,36.05,312,336,361,385,409,9,9,9,9,9,,,,,1,0,1,0,0,52,52,31,,,,,num_5,2.6451543000002857,num_5,0.45,1.1,0.05000000000000007,0.95,1.80215,34.24078,return,5.289515800017398,,,,,,,20,21,female,left_right_width,2023_Oct_25_1359,exp1,2021.2.3,59.90717980624089,
,,,,,,,,,,,,,,,,5,9.25,9.625,10,10.375,10.75,0.375,0.125,0.25,1.75,10,match,36.05,333,347,361,374,388,9,9,9,9,9,,,,,1,0,1,0,0,53,53,21,,,,,num_5,1.2250679999997374,num_5,0.1,0.6,0.2,0.45,7.20859,16.21932,return,5.1106904999760445,,,,,,,20,21,female,left_right_width,2023_Oct_25_1359,exp1,2021.2.3,59.90717980624089,
,,,,,,,,,,,,,,,,,,,,,,,,,,,,,,,,,,,,,,,,,,,1,0,1,0,,,,,,,,,,,,,,,,,,,,,,1217.9240594000148,None,1217.9240594000148,None,20,21,female,left_right_width,2023_Oct_25_1359,exp1,2021.2.3,59.90717980624089,
,,,,,,,,,,,,,,,,3,8.6,10,11.4,0,0,1.4,1.2999999999999998,0.1,2.9,10,match,36.05,310,361,411,0,0,9,9,9,0,0,,,,,2,0,2,0,0,0,0,43,,,,,num_3,1.2776712000195403,num_3,0.1,0.9,0.05,1.05,1.80215,37.84507,return,3.8008400999824516,,,,,,,20,21,female,left_right_width,2023_Oct_25_1359,exp1,2021.2.3,59.90717980624089,
,,,,,,,,,,,,,,,,3,9.3,10,10.7,0,0,0.7,0.44999999999999996,0.25,1.65,10,initial,36.05,335,361,386,0,0,9,9,9,0,0,,,,,2,0,2,0,0,1,1,8,,,,,num_3,0.9684822000272106,num_3,0.35,0.4,0.2,0.6,7.20859,21.62576,return,2.4149309000058565,,,,,,,20,21,female,left_right_width,2023_Oct_25_1359,exp1,2021.2.3,59.90717980624089,
,,,,,,,,,,,,,,,,4,9.3,9.766666666666667,10.233333333333333,10.7,0,0.4666666666666667,0.21666666666666665,0.25,1.65,10,match,36.05,335,352,369,386,0,9,9,9,9,0,,,,,2,0,2,0,0,2,2,9,,,,,num_4,0.8443740999791771,num_4,0.15,0.5,0.2,0.6,7.20859,21.62576,return,2.633110199996736,,,,,,,20,21,female,left_right_width,2023_Oct_25_1359,exp1,2021.2.3,59.90717980624089,
,,,,,,,,,,,,,,,,3,9.5,10,10.5,0,0,0.5,0.4,0.1,1.1,10,initial,36.05,342,361,379,0,0,9,9,9,0,0,,,,,2,0,2,0,0,3,3,0,,,,,num_3,1.7347598999913316,num_3,0.1,0.6,0.1,0.65,3.60429,23.4279,return,3.6018258999974933,,,,,,,20,21,female,left_right_width,2023_Oct_25_1359,exp1,2021.2.3,59.90717980624089,
,,,,,,,,,,,,,,,,4,9.425,9.808333333333334,10.191666666666666,10.575,0,0.3833333333333333,0.1333333333333333,0.25,1.4,10,match,36.05,340,354,367,381,0,9,9,9,9,0,,,,,2,0,2,0,0,4,4,5,,,,,num_4,2.59940259999712,num_4,0.25,0.6,0.15000000000000002,0.5,5.40644,18.02146,return,6.36687670001993,,,,,,,20,21,female,left_right_width,2023_Oct_25_1359,exp1,2021.2.3,59.90717980624089,
,,,,,,,,,,,,,,,,3,8.2,10,11.8,0,0,1.8000000000000003,1.7000000000000002,0.1,3.7,10,match,36.05,296,361,425,0,0,9,9,9,0,0,,,,,2,0,2,0,0,5,5,49,,,,,num_3,1.0848777999926824,num_3,0.1,0.9,0.1,1.5,3.60429,54.06439,return,2.9266792999987956,,,,,,,20,21,female,left_right_width,2023_Oct_25_1359,exp1,2021.2.3,59.90717980624089,
,,,,,,,,,,,,,,,,4,8.65,9.55,10.45,11.35,0,0.9,0.8,0.1,2.8000000000000003,10,initial,36.05,312,344,377,409,0,9,9,9,9,0,,,,,2,0,2,0,0,6,6,30,,,,,num_4,0.8842420000000857,num_4,0.35,0.9,0.10000000000000002,1.1,3.60429,39.64722,return,4.384043199999724,,,,,,,20,21,female,left_right_width,2023_Oct_25_1359,exp1,2021.2.3,59.90717980624089,
,,,,,,,,,,,,,,,,5,9,9.5,10,10.5,11,0.5,0.09999999999999998,0.4,2.4,10,initial,36.05,324,342,361,379,397,9,9,9,9,9,,,,,2,0,2,0,0,7,7,40,,,,,num_5,1.2658529999898747,num_5,0.3,0.6,0.25,0.6,9.01073,21.62576,return,3.66047719999915,,,,,,,20,21,female,left_right_width,2023_Oct_25_1359,exp1,2021.2.3,59.90717980624089,
,,,,,,,,,,,,,,,,4,8.95,9.65,10.35,11.05,0,0.7,0.6,0.1,2.1999999999999997,10,initial,36.05,323,348,373,398,0,9,9,9,9,0,,,,,2,0,2,0,0,8,8,24,,,,,num_4,1.4769620999868494,num_4,0.45,1.2,0.10000000000000007,0.8,3.60429,28.83434,return,6.505015000002459,,,,,,,20,21,female,left_right_width,2023_Oct_25_1359,exp1,2021.2.3,59.90717980624089,
,,,,,,,,,,,,,,,,5,9.175,9.5875,10,10.4125,10.825,0.4125,0.16249999999999998,0.25,1.9,10,match,36.05,331,346,361,375,390,9,9,9,9,9,,,,,2,0,2,0,0,9,9,23,,,,,num_6,1.568916000018362,num_6,0.1,1.3,0.15000000000000002,0.5,5.40644,18.02146,return,5.025347199989483,,,,,,,20,21,female,left_right_width,2023_Oct_25_1359,exp1,2021.2.3,59.90717980624089,
,,,,,,,,,,,,,,,,4,9.1,9.7,10.3,10.9,0,0.6,0.5,0.1,1.9,10,match,36.05,328,350,371,393,0,9,9,9,9,0,,,,,2,0,2,0,0,10,10,13,,,,,num_4,1.252141999982996,num_4,0.15,0.3,0.09999999999999999,0.7,3.60429,25.23005,return,4.769895199977327,,,,,,,20,21,female,left_right_width,2023_Oct_25_1359,exp1,2021.2.3,59.90717980624089,
,,,,,,,,,,,,,,,,4,9.3,9.766666666666667,10.233333333333333,10.7,0,0.4666666666666667,0.3666666666666667,0.1,1.5,10,match,36.05,335,352,369,386,0,9,9,9,9,0,,,,,2,0,2,0,0,11,11,7,,,,,num_4,2.772962399991229,num_4,0.15,0.5,0.04999999999999999,0.5,1.80215,18.02146,return,2.8677717999962624,,,,,,,20,21,female,left_right_width,2023_Oct_25_1359,exp1,2021.2.3,59.90717980624089,
,,,,,,,,,,,,,,,,3,9.5,10,10.5,0,0,0.5,0.25,0.25,1.25,10,initial,36.05,342,361,379,0,0,9,9,9,0,0,,,,,2,0,2,0,0,12,12,2,,,,,num_4,1.7867991999955848,num_4,0.1,0.7,0.15000000000000002,0.5,5.40644,18.02146,return,3.170730200014077,,,,,,,20,21,female,left_right_width,2023_Oct_25_1359,exp1,2021.2.3,59.90717980624089,
,,,,,,,,,,,,,,,,5,8.2,9.1,10,10.9,11.8,0.9,0.65,0.25,3.85,10,initial,36.05,296,328,361,393,425,9,9,9,9,9,,,,,2,0,2,0,0,13,13,50,,,,,num_5,1.4083375000045635,num_5,0.25,0.9,0.15000000000000002,0.8,5.40644,28.83434,return,3.046542700001737,,,,,,,20,21,female,left_right_width,2023_Oct_25_1359,exp1,2021.2.3,59.90717980624089,
,,,,,,,,,,,,,,,,4,8.65,9.55,10.45,11.35,0,0.9,0.65,0.25,2.95,10,initial,36.05,312,344,377,409,0,9,9,9,9,0,,,,,2,0,2,0,0,14,14,32,,,,,num_5,1.9014249999891035,num_5,0.25,0.6,0.15000000000000002,0.7,5.40644,25.23005,return,5.021556200023042,,,,,,,20,21,female,left_right_width,2023_Oct_25_1359,exp1,2021.2.3,59.90717980624089,
,,,,,,,,,,,,,,,,3,9,10,11,0,0,1,0.9,0.1,2.1,10,match,36.05,324,361,397,0,0,9,9,9,0,0,,,,,2,0,2,0,0,15,15,37,,,,,num_4,1.4652596000232734,num_4,0.2,0.6,0.05000000000000002,0.8,1.80215,28.83434,return,3.3742728999932297,,,,,,,20,21,female,left_right_width,2023_Oct_25_1359,exp1,2021.2.3,59.90717980624089,
,,,,,,,,,,,,,,,,4,9.3,9.766666666666667,10.233333333333333,10.7,0,0.4666666666666667,0.06666666666666665,0.4,1.8,10,match,36.05,335,352,369,386,0,9,9,9,9,0,,,,,2,0,2,0,0,16,16,11,,,,,num_4,1.1932079000107478,num_4,0.1,1.2,0.35,0.7,12.61502,25.23005,return,6.791183399996953,,,,,,,20,21,female,left_right_width,2023_Oct_25_1359,exp1,2021.2.3,59.90717980624089,
,,,,,,,,,,,,,,,,3,8.2,10,11.8,0,0,1.8,1.55,0.25,3.85,10,match,36.05,296,361,425,0,0,9,9,9,0,0,,,,,2,0,2,0,0,17,17,51,,,,,num_3,1.012957800005097,num_3,0.3,0.6,0.25,1.15,9.01073,41.44937,return,4.730238599993754,,,,,,,20,21,female,left_right_width,2023_Oct_25_1359,exp1,2021.2.3,59.90717980624089,
,,,,,,,,,,,,,,,,4,8.95,9.65,10.35,11.05,0,0.7,0.44999999999999996,0.25,2.3499999999999996,10,initial,36.05,323,348,373,398,0,9,9,9,9,0,,,,,2,0,2,0,0,18,18,26,,,,,num_4,1.0949380999954883,num_4,0.15,1.1,0.25,1.0,9.01073,36.04293,return,4.426231499994174,,,,,,,20,21,female,left_right_width,2023_Oct_25_1359,exp1,2021.2.3,59.90717980624089,
,,,,,,,,,,,,,,,,5,9.25,9.625,10,10.375,10.75,0.375,0.125,0.25,1.75,10,match,36.05,333,347,361,374,388,9,9,9,9,9,,,,,2,0,2,0,0,19,19,21,,,,,num_5,1.1696993999939878,num_5,0.1,0.7,0.25,0.5,9.01073,18.02146,return,4.273625900008483,,,,,,,20,21,female,left_right_width,2023_Oct_25_1359,exp1,2021.2.3,59.90717980624089,
,,,,,,,,,,,,,,,,3,9,10,11,0,0,0.9999999999999999,0.5999999999999999,0.4,2.4,10,match,36.05,324,361,397,0,0,9,9,9,0,0,,,,,2,0,2,0,0,20,20,41,,,,,num_3,1.1589337000041269,num_3,0.15,0.7,0.25,0.9,9.01073,32.43864,return,3.8959979999926873,,,,,,,20,21,female,left_right_width,2023_Oct_25_1359,exp1,2021.2.3,59.90717980624089,
,,,,,,,,,,,,,,,,4,9.1,9.7,10.3,10.9,0,0.5999999999999999,0.3499999999999999,0.25,2.05,10,match,36.05,328,350,371,393,0,9,9,9,9,0,,,,,2,0,2,0,0,21,21,15,,,,,num_3,2.412341200019,num_3,0.35,0.9,0.25,0.85,9.01073,30.63649,return,2.5384365000063553,,,,,,,20,21,female,left_right_width,2023_Oct_25_1359,exp1,2021.2.3,59.90717980624089,
,,,,,,,,,,,,,,,,3,9.3,10,10.7,0,0,0.7,0.6,0.1,1.5,10,initial,36.05,335,361,386,0,0,9,9,9,0,0,,,,,2,0,2,0,0,22,22,6,,,,,num_3,0.9994105999940075,num_3,0.25,1,0.05000000000000002,0.85,1.80215,30.63649,return,4.2863075000059325,,,,,,,20,21,female,left_right_width,2023_Oct_25_1359,exp1,2021.2.3,59.90717980624089,
,,,,,,,,,,,,,,,,4,9.1,9.7,10.3,10.9,0,0.6000000000000001,0.20000000000000004,0.4,2.2,10,match,36.05,328,350,371,393,0,9,9,9,9,0,,,,,2,0,2,0,0,23,23,17,,,,,num_4,1.0845996999996714,num_4,0.25,0.9,0.39999999999999997,0.7,14.41717,25.23005,return,5.261256099998718,,,,,,,20,21,female,left_right_width,2023_Oct_25_1359,exp1,2021.2.3,59.90717980624089,
,,,,,,,,,,,,,,,,4,9.5,9.833333333333334,10.166666666666666,10.5,0,0.3333333333333333,0.08333333333333333,0.25,1.25,10,match,36.05,342,354,367,379,0,9,9,9,9,0,,,,,2,0,2,0,0,24,24,3,,,,,num_4,1.3578488000202924,num_4,0.2,1.0,0.3,0.5,10.81288,18.02146,return,4.005302400008077,,,,,,,20,21,female,left_right_width,2023_Oct_25_1359,exp1,2021.2.3,59.90717980624089,
,,,,,,,,,,,,,,,,3,8.2,10,11.8,0,0,1.7999999999999998,1.4,0.4,4,10,match,36.05,296,361,425,0,0,9,9,9,0,0,,,,,2,0,2,0,0,25,25,53,,,,,num_3,1.0322687000152655,num_3,0.25,0.6,0.44999999999999996,1.3,16.21932,46.85581,return,4.285832499997923,,,,,,,20,21,female,left_right_width,2023_Oct_25_1359,exp1,2021.2.3,59.90717980624089,
,,,,,,,,,,,,,,,,3,9.1,10,10.9,0,0,0.9,0.5,0.4,2.2,10,initial,36.05,328,361,393,0,0,9,9,9,0,0,,,,,2,0,2,0,0,26,26,16,,,,,num_4,1.1776051000051666,num_4,0.3,0.4,0.25,1.0,9.01073,36.04293,return,3.3060042000142857,,,,,,,20,21,female,left_right_width,2023_Oct_25_1359,exp1,2021.2.3,59.90717980624089,
,,,,,,,,,,,,,,,,5,8.6,9.3,10,10.7,11.4,0.7,0.44999999999999996,0.25,3.05,10,initial,36.05,310,335,361,386,411,9,9,9,9,9,,,,,2,0,2,0,0,27,27,44,,,,,num_5,1.1639492000103928,num_5,0.1,0.6,0.2,0.85,7.20859,30.63649,return,3.3240230999945197,,,,,,,20,21,female,left_right_width,2023_Oct_25_1359,exp1,2021.2.3,59.90717980624089,
,,,,,,,,,,,,,,,,5,8.6,9.3,10,10.7,11.4,0.7,0.29999999999999993,0.4,3.1999999999999997,10,initial,36.05,310,335,361,386,411,9,9,9,9,9,,,,,2,0,2,0,0,28,28,46,,,,,num_5,1.7757229000271764,num_5,0.1,0.9,0.3,0.9,10.81288,32.43864,return,2.9028002000122797,,,,,,,20,21,female,left_right_width,2023_Oct_25_1359,exp1,2021.2.3,59.90717980624089,
,,,,,,,,,,,,,,,,3,9.1,10,10.9,0,0,0.9,0.65,0.25,2.05,10,initial,36.05,328,361,393,0,0,9,9,9,0,0,,,,,2,0,2,0,0,29,29,14,,,,,num_4,1.2543863999890164,num_4,0.4,0.6,0.20000000000000007,0.9,7.20859,32.43864,return,4.34054439997999,,,,,,,20,21,female,left_right_width,2023_Oct_25_1359,exp1,2021.2.3,59.90717980624089,
,,,,,,,,,,,,,,,,5,8.95,9.475,10,10.525,11.05,0.525,0.275,0.25,2.35,10,match,36.05,323,342,361,379,398,9,9,9,9,9,,,,,2,0,2,0,0,30,30,27,,,,,num_6,1.403658000024734,num_6,0.45,1.0,0.15000000000000008,0.5,5.40644,18.02146,return,3.490126299991971,,,,,,,20,21,female,left_right_width,2023_Oct_25_1359,exp1,2021.2.3,59.90717980624089,
,,,,,,,,,,,,,,,,3,9.1,10,10.9,0,0,0.9,0.8,0.1,1.9000000000000001,10,initial,36.05,328,361,393,0,0,9,9,9,0,0,,,,,2,0,2,0,0,31,31,12,,,,,num_3,0.9888880999933463,num_3,0.15,0.7,0.09999999999999999,0.9,3.60429,32.43864,return,3.2992658000148367,,,,,,,20,21,female,left_right_width,2023_Oct_25_1359,exp1,2021.2.3,59.90717980624089,
,,,,,,,,,,,,,,,,5,8.6,9.3,10,10.7,11.4,0.7,0.6,0.1,2.9,10,initial,36.05,310,335,361,386,411,9,9,9,9,9,,,,,2,0,2,0,0,32,32,42,,,,,num_5,1.1970387999899685,num_5,0.3,0.5,0.10000000000000002,0.7,3.60429,25.23005,return,2.8762218999909237,,,,,,,20,21,female,left_right_width,2023_Oct_25_1359,exp1,2021.2.3,59.90717980624089,
,,,,,,,,,,,,,,,,4,9.5,9.833333333333334,10.166666666666666,10.5,0,0.33333333333333337,0.23333333333333336,0.1,1.1,10,match,36.05,342,354,367,379,0,9,9,9,9,0,,,,,2,0,2,0,0,33,33,1,,,,,num_3,1.1517056000011507,num_3,0.15,0.7,0.09999999999999999,0.4,3.60429,14.41717,return,2.624924600007944,,,,,,,20,21,female,left_right_width,2023_Oct_25_1359,exp1,2021.2.3,59.90717980624089,
,,,,,,,,,,,,,,,,5,8.2,9.1,10,10.9,11.8,0.9,0.5,0.4,4,10,initial,36.05,296,328,361,393,425,9,9,9,9,9,,,,,2,0,2,0,0,34,34,52,,,,,num_5,1.2477702999894973,num_5,0.15,1.3,0.25,0.85,9.01073,30.63649,return,2.63672849998693,,,,,,,20,21,female,left_right_width,2023_Oct_25_1359,exp1,2021.2.3,59.90717980624089,
,,,,,,,,,,,,,,,,3,9.3,10,10.7,0,0,0.7,0.29999999999999993,0.4,1.8,10,initial,36.05,335,361,386,0,0,9,9,9,0,0,,,,,2,0,2,0,0,35,35,10,,,,,num_3,1.1150132000038866,num_3,0.45,1.1,0.4,0.8,14.41717,28.83434,return,3.5509643999976106,,,,,,,20,21,female,left_right_width,2023_Oct_25_1359,exp1,2021.2.3,59.90717980624089,
,,,,,,,,,,,,,,,,5,9,9.5,10,10.5,11,0.5,0.4,0.1,2.1,10,initial,36.05,324,342,361,379,397,9,9,9,9,9,,,,,2,0,2,0,0,36,36,36,,,,,num_5,1.0798265999765135,num_5,0.4,0.9,0.10000000000000007,0.75,3.60429,27.0322,return,5.38611399999354,,,,,,,20,21,female,left_right_width,2023_Oct_25_1359,exp1,2021.2.3,59.90717980624089,
,,,,,,,,,,,,,,,,5,8.95,9.475,10,10.525,11.05,0.525,0.125,0.4,2.5,10,match,36.05,323,342,361,379,398,9,9,9,9,9,,,,,2,0,2,0,0,37,37,29,,,,,num_5,1.30857819999801,num_5,0.25,1.0,0.39999999999999997,0.7,14.41717,25.23005,return,3.4473412000224926,,,,,,,20,21,female,left_right_width,2023_Oct_25_1359,exp1,2021.2.3,59.90717980624089,
,,,,,,,,,,,,,,,,4,8.95,9.65,10.35,11.05,0,0.7,0.29999999999999993,0.4,2.5,10,initial,36.05,323,348,373,398,0,9,9,9,9,0,,,,,2,0,2,0,0,38,38,28,,,,,num_5,1.2011199000116903,num_5,0.15,1.2,0.25,0.7,9.01073,25.23005,return,4.145228299981682,,,,,,,20,21,female,left_right_width,2023_Oct_25_1359,exp1,2021.2.3,59.90717980624089,
,,,,,,,,,,,,,,,,3,9.5,10,10.5,0,0,0.5,0.09999999999999998,0.4,1.4000000000000001,10,initial,36.05,342,361,379,0,0,9,9,9,0,0,,,,,2,0,2,0,0,39,39,4,,,,,num_3,0.9251828000124078,num_3,0.1,0.7,0.35,0.8,12.61502,28.83434,return,5.510026600008132,,,,,,,20,21,female,left_right_width,2023_Oct_25_1359,exp1,2021.2.3,59.90717980624089,
,,,,,,,,,,,,,,,,5,8.65,9.325,10,10.675,11.35,0.675,0.42500000000000004,0.25,2.95,10,match,36.05,312,336,361,385,409,9,9,9,9,9,,,,,2,0,2,0,0,40,40,33,,,,,num_5,1.7829485999827739,num_5,0.2,0.8,0.25,0.65,9.01073,23.4279,return,2.1915791999781504,,,,,,,20,21,female,left_right_width,2023_Oct_25_1359,exp1,2021.2.3,59.90717980624089,
,,,,,,,,,,,,,,,,4,9.25,9.75,10.25,10.75,0,0.5,0.4,0.1,1.6,10,initial,36.05,333,351,370,388,0,9,9,9,9,0,,,,,2,0,2,0,0,41,41,18,,,,,num_3,0.8636720999784302,num_3,0.25,1.1,0.15000000000000002,0.85,5.40644,30.63649,return,3.5479765000054613,,,,,,,20,21,female,left_right_width,2023_Oct_25_1359,exp1,2021.2.3,59.90717980624089,
,,,,,,,,,,,,,,,,5,8.65,9.325,10,10.675,11.35,0.6749999999999999,0.575,0.1,2.8,10,match,36.05,312,336,361,385,409,9,9,9,9,9,,,,,2,0,2,0,0,42,42,31,,,,,num_4,1.2632642000098713,num_4,0.2,0.8,0.05000000000000002,1.1,1.80215,39.64722,return,2.7624238000134937,,,,,,,20,21,female,left_right_width,2023_Oct_25_1359,exp1,2021.2.3,59.90717980624089,
,,,,,,,,,,,,,,,,5,9.25,9.625,10,10.375,10.75,0.375,0.275,0.1,1.6,10,match,36.05,333,347,361,374,388,9,9,9,9,9,,,,,2,0,2,0,0,43,43,19,,,,,num_4,0.9495424999913666,num_4,0.1,1.1,0.05,0.4,1.80215,14.41717,return,2.511860600003274,,,,,,,20,21,female,left_right_width,2023_Oct_25_1359,exp1,2021.2.3,59.90717980624089,
,,,,,,,,,,,,,,,,4,9.25,9.75,10.25,10.75,0,0.5,0.25,0.25,1.75,10,initial,36.05,333,351,370,388,0,9,9,9,9,0,,,,,2,0,2,0,0,44,44,20,,,,,num_5,3.6971696999971755,num_5,0.1,0.4,0.2,0.5,7.20859,18.02146,return,2.0931448999908753,,,,,,,20,21,female,left_right_width,2023_Oct_25_1359,exp1,2021.2.3,59.90717980624089,
,,,,,,,,,,,,,,,,4,9.25,9.75,10.25,10.75,0,0.5,0.09999999999999998,0.4,1.9,10,initial,36.05,333,351,370,388,0,9,9,9,9,0,,,,,2,0,2,0,0,45,45,22,,,,,num_4,1.6271546999923885,num_4,0.25,1.1,0.35,0.7,12.61502,25.23005,return,3.9299008999951184,,,,,,,20,21,female,left_right_width,2023_Oct_25_1359,exp1,2021.2.3,59.90717980624089,
,,,,,,,,,,,,,,,,3,8.6,10,11.4,0,0,1.4,1.15,0.25,3.05,10,match,36.05,310,361,411,0,0,9,9,9,0,0,,,,,2,0,2,0,0,46,46,45,,,,,num_3,1.0043393000087235,num_3,0.1,0.4,0.25,0.85,9.01073,30.63649,return,5.0432245999982115,,,,,,,20,21,female,left_right_width,2023_Oct_25_1359,exp1,2021.2.3,59.90717980624089,
,,,,,,,,,,,,,,,,5,9,9.5,10,10.5,11,0.5,0.25,0.25,2.25,10,initial,36.05,324,342,361,379,397,9,9,9,9,9,,,,,2,0,2,0,0,47,47,38,,,,,num_5,1.4901471000048332,num_5,0.3,0.9,0.2,0.75,7.20859,27.0322,return,4.582291200000327,,,,,,,20,21,female,left_right_width,2023_Oct_25_1359,exp1,2021.2.3,59.90717980624089,
,,,,,,,,,,,,,,,,3,9,10,11,0,0,1,0.75,0.25,2.25,10,match,36.05,324,361,397,0,0,9,9,9,0,0,,,,,2,0,2,0,0,48,48,39,,,,,num_3,0.9646786999946926,num_3,0.15,1.2,0.15,1.3,5.40644,46.85581,return,3.1963988000061363,,,,,,,20,21,female,left_right_width,2023_Oct_25_1359,exp1,2021.2.3,59.90717980624089,
,,,,,,,,,,,,,,,,4,8.65,9.55,10.45,11.35,0,0.9,0.5,0.4,3.1,10,initial,36.05,312,344,377,409,0,9,9,9,9,0,,,,,2,0,2,0,0,49,49,34,,,,,num_4,0.9897391999838874,num_4,0.3,1.0,0.2,0.9,7.20859,32.43864,return,2.819625400006771,,,,,,,20,21,female,left_right_width,2023_Oct_25_1359,exp1,2021.2.3,59.90717980624089,
,,,,,,,,,,,,,,,,3,8.525,10,11.475,0,0,1.475,1.225,0.25,3.2,10,match,36.05,307,361,414,0,0,9,9,9,0,0,,,,,2,0,2,0,0,50,50,47,,,,,num_3,0.9668848000001162,num_3,0.15,1.3,0.15,1.5,5.40644,54.06439,return,4.176428700011456,,,,,,,20,21,female,left_right_width,2023_Oct_25_1359,exp1,2021.2.3,59.90717980624089,
,,,,,,,,,,,,,,,,5,8.65,9.325,10,10.675,11.35,0.675,0.275,0.4,3.1,10,match,36.05,312,336,361,385,409,9,9,9,9,9,,,,,2,0,2,0,0,51,51,35,,,,,num_5,1.465482500003418,num_5,0.35,1.1,0.3,0.85,10.81288,30.63649,return,2.9255377000081353,,,,,,,20,21,female,left_right_width,2023_Oct_25_1359,exp1,2021.2.3,59.90717980624089,
,,,,,,,,,,,,,,,,5,8.2,9.1,10,10.9,11.8,0.9,0.8,0.1,3.7,10,initial,36.05,296,328,361,393,425,9,9,9,9,9,,,,,2,0,2,0,0,52,52,48,,,,,num_6,0.9551207000040449,num_6,0.25,0.3,1.3877787807814457e-17,0.9,0.0,32.43864,return,5.698444900015602,,,,,,,20,21,female,left_right_width,2023_Oct_25_1359,exp1,2021.2.3,59.90717980624089,
,,,,,,,,,,,,,,,,5,8.95,9.475,10,10.525,11.05,0.525,0.42500000000000004,0.1,2.2,10,match,36.05,323,342,361,379,398,9,9,9,9,9,,,,,2,0,2,0,0,53,53,25,,,,,num_5,1.4785220999910962,num_5,0.4,0.5,0.15000000000000008,0.45,5.40644,16.21932,return,3.7065504000056535,,,,,,,20,21,female,left_right_width,2023_Oct_25_1359,exp1,2021.2.3,59.90717980624089,
,,,,,,,,,,,,,,,,,,,,,,,,,,,,,,,,,,,,,,,,,,,2,0,2,0,,,,,,,,,,,,,,,,,,,,,,1726.8399528000155,None,1726.8399528000155,None,20,21,female,left_right_width,2023_Oct_25_1359,exp1,2021.2.3,59.90717980624089,
,,,,,,,,,,,,,,,,3,9.3,10,10.7,0,0,0.7,0.29999999999999993,0.4,1.8,10,initial,36.05,335,361,386,0,0,9,9,9,0,0,,,,,3,0,3,0,0,0,0,10,,,,,num_3,1.3861385000054725,num_3,0.25,1.2,0.35,0.85,12.61502,30.63649,return,3.2017462000076193,,,,,,,20,21,female,left_right_width,2023_Oct_25_1359,exp1,2021.2.3,59.90717980624089,
,,,,,,,,,,,,,,,,5,8.95,9.475,10,10.525,11.05,0.525,0.275,0.25,2.35,10,match,36.05,323,342,361,379,398,9,9,9,9,9,,,,,3,0,3,0,0,1,1,27,,,,,num_5,0.9846006999723613,num_5,0.25,0.3,0.15000000000000002,0.45,5.40644,16.21932,return,4.144737199996598,,,,,,,20,21,female,left_right_width,2023_Oct_25_1359,exp1,2021.2.3,59.90717980624089,
,,,,,,,,,,,,,,,,5,8.6,9.3,10,10.7,11.4,0.7,0.44999999999999996,0.25,3.05,10,initial,36.05,310,335,361,386,411,9,9,9,9,9,,,,,3,0,3,0,0,2,2,44,,,,,num_5,1.106957300013164,num_5,0.15,1.2,0.2,0.85,7.20859,30.63649,return,4.067105900001479,,,,,,,20,21,female,left_right_width,2023_Oct_25_1359,exp1,2021.2.3,59.90717980624089,
,,,,,,,,,,,,,,,,3,9.5,10,10.5,0,0,0.5,0.25,0.25,1.25,10,initial,36.05,342,361,379,0,0,9,9,9,0,0,,,,,3,0,3,0,0,3,3,2,,,,,num_3,0.9818280999897979,num_3,0.4,1,0.25000000000000006,0.7,9.01073,25.23005,return,3.741915299993707,,,,,,,20,21,female,left_right_width,2023_Oct_25_1359,exp1,2021.2.3,59.90717980624089,
,,,,,,,,,,,,,,,,5,9.175,9.5875,10,10.4125,10.825,0.4125,0.16249999999999998,0.25,1.9,10,match,36.05,331,346,361,375,390,9,9,9,9,9,,,,,3,0,3,0,0,4,4,23,,,,,num_5,0.990273100003833,num_5,0.25,0.8,0.2,0.5,7.20859,18.02146,return,2.437906999984989,,,,,,,20,21,female,left_right_width,2023_Oct_25_1359,exp1,2021.2.3,59.90717980624089,
,,,,,,,,,,,,,,,,3,8.2,10,11.8,0,0,1.7999999999999998,1.4,0.4,4,10,match,36.05,296,361,425,0,0,9,9,9,0,0,,,,,3,0,3,0,0,5,5,53,,,,,num_3,0.8129190999898128,num_3,0.1,0.3,0.3,1.0,10.81288,36.04293,return,7.9329431999940425,,,,,,,20,21,female,left_right_width,2023_Oct_25_1359,exp1,2021.2.3,59.90717980624089,
,,,,,,,,,,,,,,,,5,8.95,9.475,10,10.525,11.05,0.525,0.42500000000000004,0.1,2.2,10,match,36.05,323,342,361,379,398,9,9,9,9,9,,,,,3,0,3,0,0,6,6,25,,,,,num_4,2.069019299990032,num_4,0.15,1.0,0.09999999999999999,0.6,3.60429,21.62576,return,2.992410699982429,,,,,,,20,21,female,left_right_width,2023_Oct_25_1359,exp1,2021.2.3,59.90717980624089,
,,,,,,,,,,,,,,,,3,9.1,10,10.9,0,0,0.9,0.8,0.1,1.9000000000000001,10,initial,36.05,328,361,393,0,0,9,9,9,0,0,,,,,3,0,3,0,0,7,7,12,,,,,num_3,1.375971400004346,num_3,0.1,0.9,0.05,1.05,1.80215,37.84507,return,1.8164701999921817,,,,,,,20,21,female,left_right_width,2023_Oct_25_1359,exp1,2021.2.3,59.90717980624089,
,,,,,,,,,,,,,,,,3,9,10,11,0,0,0.9999999999999999,0.5999999999999999,0.4,2.4,10,match,36.05,324,361,397,0,0,9,9,9,0,0,,,,,3,0,3,0,0,8,8,41,,,,,num_3,1.1516737999918405,num_3,0.1,1,0.35,1.05,12.61502,37.84507,return,2.7051792000129353,,,,,,,20,21,female,left_right_width,2023_Oct_25_1359,exp1,2021.2.3,59.90717980624089,
,,,,,,,,,,,,,,,,5,8.6,9.3,10,10.7,11.4,0.7,0.29999999999999993,0.4,3.1999999999999997,10,initial,36.05,310,335,361,386,411,9,9,9,9,9,,,,,3,0,3,0,0,9,9,46,,,,,num_5,1.2591453999921214,num_5,0.25,1.3,0.3,0.85,10.81288,30.63649,return,3.6218425999977626,,,,,,,20,21,female,left_right_width,2023_Oct_25_1359,exp1,2021.2.3,59.90717980624089,
,,,,,,,,,,,,,,,,3,8.6,10,11.4,0,0,1.4,1.2999999999999998,0.1,2.9,10,match,36.05,310,361,411,0,0,9,9,9,0,0,,,,,3,0,3,0,0,10,10,43,,,,,num_3,0.8949531000107527,num_3,0.25,0.7,0.05000000000000002,1.5,1.80215,54.06439,return,4.520866000006208,,,,,,,20,21,female,left_right_width,2023_Oct_25_1359,exp1,2021.2.3,59.90717980624089,
,,,,,,,,,,,,,,,,4,9.5,9.833333333333334,10.166666666666666,10.5,0,0.33333333333333337,0.23333333333333336,0.1,1.1,10,match,36.05,342,354,367,379,0,9,9,9,9,0,,,,,3,0,3,0,0,11,11,1,,,,,num_3,1.3656098000064958,num_3,0.35,1.3,0.15000000000000002,0.45,5.40644,16.21932,return,5.821669700002531,,,,,,,20,21,female,left_right_width,2023_Oct_25_1359,exp1,2021.2.3,59.90717980624089,
,,,,,,,,,,,,,,,,4,9.425,9.808333333333334,10.191666666666666,10.575,0,0.3833333333333333,0.1333333333333333,0.25,1.4,10,match,36.05,340,354,367,381,0,9,9,9,9,0,,,,,3,0,3,0,0,12,12,5,,,,,num_4,1.089620599988848,num_4,0.45,1.0,0.20000000000000007,0.5,7.20859,18.02146,return,5.7021190999948885,,,,,,,20,21,female,left_right_width,2023_Oct_25_1359,exp1,2021.2.3,59.90717980624089,
,,,,,,,,,,,,,,,,4,8.95,9.65,10.35,11.05,0,0.7,0.29999999999999993,0.4,2.5,10,initial,36.05,323,348,373,398,0,9,9,9,9,0,,,,,3,0,3,0,0,13,13,28,,,,,num_4,1.0736200000101235,num_4,0.45,0.7,0.4,0.6,14.41717,21.62576,return,2.918071299995063,,,,,,,20,21,female,left_right_width,2023_Oct_25_1359,exp1,2021.2.3,59.90717980624089,
,,,,,,,,,,,,,,,,4,8.95,9.65,10.35,11.05,0,0.7,0.6,0.1,2.1999999999999997,10,initial,36.05,323,348,373,398,0,9,9,9,9,0,,,,,3,0,3,0,0,14,14,24,,,,,num_4,1.0496315000054892,num_4,0.3,0.9,0.10000000000000002,0.7,3.60429,25.23005,return,3.4717023999837693,,,,,,,20,21,female,left_right_width,2023_Oct_25_1359,exp1,2021.2.3,59.90717980624089,
,,,,,,,,,,,,,,,,5,8.65,9.325,10,10.675,11.35,0.675,0.275,0.4,3.1,10,match,36.05,312,336,361,385,409,9,9,9,9,9,,,,,3,0,3,0,0,15,15,35,,,,,num_5,1.445176300010644,num_5,0.2,0.4,0.2,0.65,7.20859,23.4279,return,6.6017452999949455,,,,,,,20,21,female,left_right_width,2023_Oct_25_1359,exp1,2021.2.3,59.90717980624089,
,,,,,,,,,,,,,,,,4,9.3,9.766666666666667,10.233333333333333,10.7,0,0.4666666666666667,0.21666666666666665,0.25,1.65,10,match,36.05,335,352,369,386,0,9,9,9,9,0,,,,,3,0,3,0,0,16,16,9,,,,,num_5,1.171211900014896,num_5,0.35,0.9,0.2,0.5,7.20859,18.02146,return,3.1842195999925025,,,,,,,20,21,female,left_right_width,2023_Oct_25_1359,exp1,2021.2.3,59.90717980624089,
,,,,,,,,,,,,,,,,3,9.1,10,10.9,0,0,0.9,0.5,0.4,2.2,10,initial,36.05,328,361,393,0,0,9,9,9,0,0,,,,,3,0,3,0,0,17,17,16,,,,,num_3,1.0305217999848537,num_3,0.4,0.6,0.4,1.0,14.41717,36.04293,return,4.1096908999898005,,,,,,,20,21,female,left_right_width,2023_Oct_25_1359,exp1,2021.2.3,59.90717980624089,
,,,,,,,,,,,,,,,,4,9.5,9.833333333333334,10.166666666666666,10.5,0,0.3333333333333333,0.08333333333333333,0.25,1.25,10,match,36.05,342,354,367,379,0,9,9,9,9,0,,,,,3,0,3,0,0,18,18,3,,,,,num_4,2.3624346000142395,num_4,0.25,1.2,0.25,0.4,9.01073,14.41717,return,3.738094700005604,,,,,,,20,21,female,left_right_width,2023_Oct_25_1359,exp1,2021.2.3,59.90717980624089,
,,,,,,,,,,,,,,,,4,8.95,9.65,10.35,11.05,0,0.7,0.44999999999999996,0.25,2.3499999999999996,10,initial,36.05,323,348,373,398,0,9,9,9,9,0,,,,,3,0,3,0,0,19,19,26,,,,,num_4,1.4516656000050716,num_4,0.45,1.2,0.30000000000000004,0.7,10.81288,25.23005,return,2.7343774999899324,,,,,,,20,21,female,left_right_width,2023_Oct_25_1359,exp1,2021.2.3,59.90717980624089,
,,,,,,,,,,,,,,,,4,9.3,9.766666666666667,10.233333333333333,10.7,0,0.4666666666666667,0.3666666666666667,0.1,1.5,10,match,36.05,335,352,369,386,0,9,9,9,9,0,,,,,3,0,3,0,0,20,20,7,,,,,num_5,1.1559119999874383,num_5,0.25,1.1,0.15000000000000002,0.55,5.40644,19.82361,return,4.147310600004857,,,,,,,20,21,female,left_right_width,2023_Oct_25_1359,exp1,2021.2.3,59.90717980624089,
,,,,,,,,,,,,,,,,3,8.2,10,11.8,0,0,1.8,1.55,0.25,3.85,10,match,36.05,296,361,425,0,0,9,9,9,0,0,,,,,3,0,3,0,0,21,21,51,,,,,num_3,2.740815900004236,num_3,0.15,0.7,0.25,1.2,9.01073,43.25151,return,4.597492499975488,,,,,,,20,21,female,left_right_width,2023_Oct_25_1359,exp1,2021.2.3,59.90717980624089,
,,,,,,,,,,,,,,,,5,8.2,9.1,10,10.9,11.8,0.9,0.8,0.1,3.7,10,initial,36.05,296,328,361,393,425,9,9,9,9,9,,,,,3,0,3,0,0,22,22,48,,,,,num_5,1.4733568000083324,num_5,0.3,0.7,0.10000000000000002,0.85,3.60429,30.63649,return,3.0627838000073098,,,,,,,20,21,female,left_right_width,2023_Oct_25_1359,exp1,2021.2.3,59.90717980624089,
,,,,,,,,,,,,,,,,4,8.65,9.55,10.45,11.35,0,0.9,0.65,0.25,2.95,10,initial,36.05,312,344,377,409,0,9,9,9,9,0,,,,,3,0,3,0,0,23,23,32,,,,,num_4,0.971062799973879,num_4,0.45,1.0,0.15000000000000008,1.2,5.40644,43.25151,return,4.4514214000082575,,,,,,,20,21,female,left_right_width,2023_Oct_25_1359,exp1,2021.2.3,59.90717980624089,
,,,,,,,,,,,,,,,,5,9.25,9.625,10,10.375,10.75,0.375,0.125,0.25,1.75,10,match,36.05,333,347,361,374,388,9,9,9,9,9,,,,,3,0,3,0,0,24,24,21,,,,,num_5,1.0478657999774441,num_5,0.45,1.0,0.30000000000000004,0.5,10.81288,18.02146,return,4.029794000001857,,,,,,,20,21,female,left_right_width,2023_Oct_25_1359,exp1,2021.2.3,59.90717980624089,
,,,,,,,,,,,,,,,,4,8.65,9.55,10.45,11.35,0,0.9,0.8,0.1,2.8000000000000003,10,initial,36.05,312,344,377,409,0,9,9,9,9,0,,,,,3,0,3,0,0,25,25,30,,,,,num_5,1.2502174000255764,num_5,0.35,0.4,0.05000000000000002,0.85,1.80215,30.63649,return,5.360282800014829,,,,,,,20,21,female,left_right_width,2023_Oct_25_1359,exp1,2021.2.3,59.90717980624089,
,,,,,,,,,,,,,,,,4,9.1,9.7,10.3,10.9,0,0.6,0.5,0.1,1.9,10,match,36.05,328,350,371,393,0,9,9,9,9,0,,,,,3,0,3,0,0,26,26,13,,,,,num_4,1.0234988000011072,num_4,0.3,0.3,0.10000000000000002,0.7,3.60429,25.23005,return,3.6674427000107244,,,,,,,20,21,female,left_right_width,2023_Oct_25_1359,exp1,2021.2.3,59.90717980624089,
,,,,,,,,,,,,,,,,4,9.25,9.75,10.25,10.75,0,0.5,0.4,0.1,1.6,10,initial,36.05,333,351,370,388,0,9,9,9,9,0,,,,,3,0,3,0,0,27,27,18,,,,,num_4,0.8796618000196759,num_4,0.15,0.5,0.09999999999999999,0.6,3.60429,21.62576,return,3.1813365000125486,,,,,,,20,21,female,left_right_width,2023_Oct_25_1359,exp1,2021.2.3,59.90717980624089,
,,,,,,,,,,,,,,,,5,8.65,9.325,10,10.675,11.35,0.675,0.42500000000000004,0.25,2.95,10,match,36.05,312,336,361,385,409,9,9,9,9,9,,,,,3,0,3,0,0,28,28,33,,,,,num_5,1.039063400006853,num_5,0.4,1.0,0.20000000000000007,0.9,7.20859,32.43864,return,3.221928700018907,,,,,,,20,21,female,left_right_width,2023_Oct_25_1359,exp1,2021.2.3,59.90717980624089,
,,,,,,,,,,,,,,,,3,9.3,10,10.7,0,0,0.7,0.44999999999999996,0.25,1.65,10,initial,36.05,335,361,386,0,0,9,9,9,0,0,,,,,3,0,3,0,0,29,29,8,,,,,num_3,1.0350641999975778,num_3,0.3,1.1,0.15000000000000002,0.85,5.40644,30.63649,return,2.2702636000176426,,,,,,,20,21,female,left_right_width,2023_Oct_25_1359,exp1,2021.2.3,59.90717980624089,
,,,,,,,,,,,,,,,,3,9.1,10,10.9,0,0,0.9,0.65,0.25,2.05,10,initial,36.05,328,361,393,0,0,9,9,9,0,0,,,,,3,0,3,0,0,30,30,14,,,,,num_3,0.8853521999844816,num_3,0.25,1.1,0.25,1.2,9.01073,43.25151,return,3.234172900003614,,,,,,,20,21,female,left_right_width,2023_Oct_25_1359,exp1,2021.2.3,59.90717980624089,
,,,,,,,,,,,,,,,,4,9.1,9.7,10.3,10.9,0,0.6000000000000001,0.20000000000000004,0.4,2.2,10,match,36.05,328,350,371,393,0,9,9,9,9,0,,,,,3,0,3,0,0,31,31,17,,,,,num_4,1.4619740000052843,num_4,0.2,0.3,0.35,0.6,12.61502,21.62576,return,4.650931500014849,,,,,,,20,21,female,left_right_width,2023_Oct_25_1359,exp1,2021.2.3,59.90717980624089,
,,,,,,,,,,,,,,,,4,9.25,9.75,10.25,10.75,0,0.5,0.25,0.25,1.75,10,initial,36.05,333,351,370,388,0,9,9,9,9,0,,,,,3,0,3,0,0,32,32,20,,,,,num_5,1.3989517000154592,num_5,0.15,0.8,0.25,0.5,9.01073,18.02146,return,2.527418799989391,,,,,,,20,21,female,left_right_width,2023_Oct_25_1359,exp1,2021.2.3,59.90717980624089,
,,,,,,,,,,,,,,,,5,8.95,9.475,10,10.525,11.05,0.525,0.125,0.4,2.5,10,match,36.05,323,342,361,379,398,9,9,9,9,9,,,,,3,0,3,0,0,33,33,29,,,,,num_5,1.291760099993553,num_5,0.2,0.9,0.35,0.6,12.61502,21.62576,return,3.767594700009795,,,,,,,20,21,female,left_right_width,2023_Oct_25_1359,exp1,2021.2.3,59.90717980624089,
,,,,,,,,,,,,,,,,4,8.65,9.55,10.45,11.35,0,0.9,0.5,0.4,3.1,10,initial,36.05,312,344,377,409,0,9,9,9,9,0,,,,,3,0,3,0,0,34,34,34,,,,,num_5,1.1233260999724735,num_5,0.15,0.7,0.35,0.85,12.61502,30.63649,return,2.9003029000014067,,,,,,,20,21,female,left_right_width,2023_Oct_25_1359,exp1,2021.2.3,59.90717980624089,
,,,,,,,,,,,,,,,,5,8.6,9.3,10,10.7,11.4,0.7,0.6,0.1,2.9,10,initial,36.05,310,335,361,386,411,9,9,9,9,9,,,,,3,0,3,0,0,35,35,42,,,,,num_4,1.001300900010392,num_4,0.3,0.6,0.05000000000000002,1.1,1.80215,39.64722,return,3.662140400003409,,,,,,,20,21,female,left_right_width,2023_Oct_25_1359,exp1,2021.2.3,59.90717980624089,
,,,,,,,,,,,,,,,,3,8.2,10,11.8,0,0,1.8000000000000003,1.7000000000000002,0.1,3.7,10,match,36.05,296,361,425,0,0,9,9,9,0,0,,,,,3,0,3,0,0,36,36,49,,,,,num_3,1.8477741999959107,num_3,0.2,0.4,1.0500000000000003,0.1,37.84507,3.60429,return,11.485256000014488,,,,,,,20,21,female,left_right_width,2023_Oct_25_1359,exp1,2021.2.3,59.90717980624089,
,,,,,,,,,,,,,,,,3,9.3,10,10.7,0,0,0.7,0.6,0.1,1.5,10,initial,36.05,335,361,386,0,0,9,9,9,0,0,,,,,3,0,3,0,0,37,37,6,,,,,num_3,1.1402553000079934,num_3,0.2,0.5,0.05000000000000002,0.75,1.80215,27.0322,return,3.05915630000527,,,,,,,20,21,female,left_right_width,2023_Oct_25_1359,exp1,2021.2.3,59.90717980624089,
,,,,,,,,,,,,,,,,5,9.25,9.625,10,10.375,10.75,0.375,0.275,0.1,1.6,10,match,36.05,333,347,361,374,388,9,9,9,9,9,,,,,3,0,3,0,0,38,38,19,,,,,num_5,1.6037860000215005,num_5,0.3,0.6,0.10000000000000002,0.4,3.60429,14.41717,return,3.698397500003921,,,,,,,20,21,female,left_right_width,2023_Oct_25_1359,exp1,2021.2.3,59.90717980624089,
,,,,,,,,,,,,,,,,3,9,10,11,0,0,1,0.75,0.25,2.25,10,match,36.05,324,361,397,0,0,9,9,9,0,0,,,,,3,0,3,0,0,39,39,39,,,,,num_3,1.0153992000268772,num_3,0.15,1.1,0.25,1.2,9.01073,43.25151,return,2.1575387000048067,,,,,,,20,21,female,left_right_width,2023_Oct_25_1359,exp1,2021.2.3,59.90717980624089,
,,,,,,,,,,,,,,,,4,9.3,9.766666666666667,10.233333333333333,10.7,0,0.4666666666666667,0.06666666666666665,0.4,1.8,10,match,36.05,335,352,369,386,0,9,9,9,9,0,,,,,3,0,3,0,0,40,40,11,,,,,num_4,1.4556663999974262,num_4,0.1,0.4,0.25,0.6,9.01073,21.62576,return,2.0820048000023235,,,,,,,20,21,female,left_right_width,2023_Oct_25_1359,exp1,2021.2.3,59.90717980624089,
,,,,,,,,,,,,,,,,5,9,9.5,10,10.5,11,0.5,0.09999999999999998,0.4,2.4,10,initial,36.05,324,342,361,379,397,9,9,9,9,9,,,,,3,0,3,0,0,41,41,40,,,,,num_5,0.8516546000028029,num_5,0.2,0.5,0.35,0.6,12.61502,21.62576,return,1.9211545000143815,,,,,,,20,21,female,left_right_width,2023_Oct_25_1359,exp1,2021.2.3,59.90717980624089,
,,,,,,,,,,,,,,,,5,9,9.5,10,10.5,11,0.5,0.25,0.25,2.25,10,initial,36.05,324,342,361,379,397,9,9,9,9,9,,,,,3,0,3,0,0,42,42,38,,,,,num_4,0.9223824999935459,num_4,0.45,1.3,0.30000000000000004,0.6,10.81288,21.62576,return,2.9333909999986645,,,,,,,20,21,female,left_right_width,2023_Oct_25_1359,exp1,2021.2.3,59.90717980624089,
,,,,,,,,,,,,,,,,5,8.2,9.1,10,10.9,11.8,0.9,0.65,0.25,3.85,10,initial,36.05,296,328,361,393,425,9,9,9,9,9,,,,,3,0,3,0,0,43,43,50,,,,,num_5,0.951699400000507,num_5,0.15,0.3,0.09999999999999999,0.7,3.60429,25.23005,return,3.03955610000412,,,,,,,20,21,female,left_right_width,2023_Oct_25_1359,exp1,2021.2.3,59.90717980624089,
,,,,,,,,,,,,,,,,5,8.65,9.325,10,10.675,11.35,0.6749999999999999,0.575,0.1,2.8,10,match,36.05,312,336,361,385,409,9,9,9,9,9,,,,,3,0,3,0,0,44,44,31,,,,,num_5,1.8172257000114769,num_5,0.1,0.5,0.1,0.6,3.60429,21.62576,return,3.088042299990775,,,,,,,20,21,female,left_right_width,2023_Oct_25_1359,exp1,2021.2.3,59.90717980624089,
,,,,,,,,,,,,,,,,3,9,10,11,0,0,1,0.9,0.1,2.1,10,match,36.05,324,361,397,0,0,9,9,9,0,0,,,,,3,0,3,0,0,45,45,37,,,,,num_3,0.9515112999943085,num_3,0.35,1.1,0.2,1.25,7.20859,45.05366,return,6.4138699999894015,,,,,,,20,21,female,left_right_width,2023_Oct_25_1359,exp1,2021.2.3,59.90717980624089,
,,,,,,,,,,,,,,,,3,8.525,10,11.475,0,0,1.475,1.225,0.25,3.2,10,match,36.05,307,361,414,0,0,9,9,9,0,0,,,,,3,0,3,0,0,46,46,47,,,,,num_3,0.9020080000045709,num_3,0.1,0.7,0.10000000000000002,1.3,3.60429,46.85581,return,5.025555400003213,,,,,,,20,21,female,left_right_width,2023_Oct_25_1359,exp1,2021.2.3,59.90717980624089,
,,,,,,,,,,,,,,,,5,8.2,9.1,10,10.9,11.8,0.9,0.5,0.4,4,10,initial,36.05,296,328,361,393,425,9,9,9,9,9,,,,,3,0,3,0,0,47,47,52,,,,,num_5,1.3900226000114344,num_5,0.15,1.3,0.25,1.2,9.01073,43.25151,return,4.069695299986051,,,,,,,20,21,female,left_right_width,2023_Oct_25_1359,exp1,2021.2.3,59.90717980624089,
,,,,,,,,,,,,,,,,5,9,9.5,10,10.5,11,0.5,0.4,0.1,2.1,10,initial,36.05,324,342,361,379,397,9,9,9,9,9,,,,,3,0,3,0,0,48,48,36,,,,,num_4,0.927569699997548,num_4,0.3,0.3,0.10000000000000002,0.5,3.60429,18.02146,return,5.753678099979879,,,,,,,20,21,female,left_right_width,2023_Oct_25_1359,exp1,2021.2.3,59.90717980624089,
,,,,,,,,,,,,,,,,3,9.5,10,10.5,0,0,0.5,0.09999999999999998,0.4,1.4000000000000001,10,initial,36.05,342,361,379,0,0,9,9,9,0,0,,,,,3,0,3,0,0,49,49,4,,,,,num_3,0.9717700000037439,num_3,0.15,0.6,0.3,0.45,10.81288,16.21932,return,3.954629499989096,,,,,,,20,21,female,left_right_width,2023_Oct_25_1359,exp1,2021.2.3,59.90717980624089,
,,,,,,,,,,,,,,,,3,9.5,10,10.5,0,0,0.5,0.4,0.1,1.1,10,initial,36.05,342,361,379,0,0,9,9,9,0,0,,,,,3,0,3,0,0,50,50,0,,,,,num_3,0.8935514000186231,num_3,0.1,0.6,0.1,0.45,3.60429,16.21932,return,2.2789359999878798,,,,,,,20,21,female,left_right_width,2023_Oct_25_1359,exp1,2021.2.3,59.90717980624089,
,,,,,,,,,,,,,,,,3,8.6,10,11.4,0,0,1.4,1.15,0.25,3.05,10,match,36.05,310,361,411,0,0,9,9,9,0,0,,,,,3,0,3,0,0,51,51,45,,,,,num_3,0.8844390999875031,num_3,0.25,0.3,0.2,0.7,7.20859,25.23005,return,4.31747190002352,,,,,,,20,21,female,left_right_width,2023_Oct_25_1359,exp1,2021.2.3,59.90717980624089,
,,,,,,,,,,,,,,,,4,9.1,9.7,10.3,10.9,0,0.5999999999999999,0.3499999999999999,0.25,2.05,10,match,36.05,328,350,371,393,0,9,9,9,9,0,,,,,3,0,3,0,0,52,52,15,,,,,num_4,0.9244609999877866,num_4,0.25,0.9,0.25,0.7,9.01073,25.23005,return,4.48678390000714,,,,,,,20,21,female,left_right_width,2023_Oct_25_1359,exp1,2021.2.3,59.90717980624089,
,,,,,,,,,,,,,,,,4,9.25,9.75,10.25,10.75,0,0.5,0.09999999999999998,0.4,1.9,10,initial,36.05,333,351,370,388,0,9,9,9,9,0,,,,,3,0,3,0,0,53,53,22,,,,,num_4,1.3657819000072777,num_4,0.2,1.0,0.35,0.6,12.61502,21.62576,return,4.765784899995197,,,,,,,20,21,female,left_right_width,2023_Oct_25_1359,exp1,2021.2.3,59.90717980624089,
,,,,,,,,,,,,,,,,,,,,,,,,,,,,,,,,,,,,,,,,,,,3,0,3,0,,,,,,,,,,,,,,,,,,,,,,2107.389439999999,None,2107.389439999999,None,20,21,female,left_right_width,2023_Oct_25_1359,exp1,2021.2.3,59.90717980624089,
,,,,,,,,,,,,,,,,4,9.25,9.75,10.25,10.75,0,0.5,0.25,0.25,1.75,10,initial,36.05,333,351,370,388,0,9,9,9,9,0,,,,,4,0,4,0,0,0,0,20,,,,,num_4,2.0344919999770354,num_4,0.4,1.3,0.20000000000000007,0.7,7.20859,25.23005,return,4.606306599976961,,,,,,,20,21,female,left_right_width,2023_Oct_25_1359,exp1,2021.2.3,59.90717980624089,
,,,,,,,,,,,,,,,,5,9,9.5,10,10.5,11,0.5,0.09999999999999998,0.4,2.4,10,initial,36.05,324,342,361,379,397,9,9,9,9,9,,,,,4,0,4,0,0,1,1,40,,,,,num_5,1.3684536000073422,num_5,0.35,1.2,0.25,0.7,9.01073,25.23005,return,3.153258900012588,,,,,,,20,21,female,left_right_width,2023_Oct_25_1359,exp1,2021.2.3,59.90717980624089,
,,,,,,,,,,,,,,,,3,8.525,10,11.475,0,0,1.475,1.225,0.25,3.2,10,match,36.05,307,361,414,0,0,9,9,9,0,0,,,,,4,0,4,0,0,2,2,47,,,,,num_3,0.8675739000027534,num_3,0.3,1.2,0.2,1.5,7.20859,54.06439,return,2.6238428999786265,,,,,,,20,21,female,left_right_width,2023_Oct_25_1359,exp1,2021.2.3,59.90717980624089,
,,,,,,,,,,,,,,,,5,8.65,9.325,10,10.675,11.35,0.6749999999999999,0.575,0.1,2.8,10,match,36.05,312,336,361,385,409,9,9,9,9,9,,,,,4,0,4,0,0,3,3,31,,,,,num_4,0.8797732000239193,num_4,0.45,0.8,0.10000000000000007,1.0,3.60429,36.04293,return,3.6447938999917824,,,,,,,20,21,female,left_right_width,2023_Oct_25_1359,exp1,2021.2.3,59.90717980624089,
,,,,,,,,,,,,,,,,3,9.3,10,10.7,0,0,0.7,0.44999999999999996,0.25,1.65,10,initial,36.05,335,361,386,0,0,9,9,9,0,0,,,,,4,0,4,0,0,4,4,8,,,,,num_3,1.074479299975792,num_3,0.3,1.2,0.10000000000000002,1.0,3.60429,36.04293,return,2.375104700011434,,,,,,,20,21,female,left_right_width,2023_Oct_25_1359,exp1,2021.2.3,59.90717980624089,
,,,,,,,,,,,,,,,,5,8.2,9.1,10,10.9,11.8,0.9,0.5,0.4,4,10,initial,36.05,296,328,361,393,425,9,9,9,9,9,,,,,4,0,4,0,0,5,5,52,,,,,num_5,1.0977726000128314,num_5,0.15,1.3,0.3,1.2,10.81288,43.25151,return,5.2291375999921,,,,,,,20,21,female,left_right_width,2023_Oct_25_1359,exp1,2021.2.3,59.90717980624089,
,,,,,,,,,,,,,,,,5,9.175,9.5875,10,10.4125,10.825,0.4125,0.16249999999999998,0.25,1.9,10,match,36.05,331,346,361,375,390,9,9,9,9,9,,,,,4,0,4,0,0,6,6,23,,,,,num_5,1.7163059000158682,num_5,0.1,1.2,0.25,0.65,9.01073,23.4279,return,5.391801299992949,,,,,,,20,21,female,left_right_width,2023_Oct_25_1359,exp1,2021.2.3,59.90717980624089,
,,,,,,,,,,,,,,,,5,8.6,9.3,10,10.7,11.4,0.7,0.44999999999999996,0.25,3.05,10,initial,36.05,310,335,361,386,411,9,9,9,9,9,,,,,4,0,4,0,0,7,7,44,,,,,num_5,0.943921500002034,num_5,0.3,0.5,0.25,0.65,9.01073,23.4279,return,2.616305100003956,,,,,,,20,21,female,left_right_width,2023_Oct_25_1359,exp1,2021.2.3,59.90717980624089,
,,,,,,,,,,,,,,,,5,8.65,9.325,10,10.675,11.35,0.675,0.42500000000000004,0.25,2.95,10,match,36.05,312,336,361,385,409,9,9,9,9,9,,,,,4,0,4,0,0,8,8,33,,,,,num_4,1.3531538999814074,num_4,0.45,0.9,0.25000000000000006,1.1,9.01073,39.64722,return,2.8828128000022843,,,,,,,20,21,female,left_right_width,2023_Oct_25_1359,exp1,2021.2.3,59.90717980624089,
,,,,,,,,,,,,,,,,4,8.95,9.65,10.35,11.05,0,0.7,0.6,0.1,2.1999999999999997,10,initial,36.05,323,348,373,398,0,9,9,9,9,0,,,,,4,0,4,0,0,9,9,24,,,,,num_4,1.2494005000044126,num_4,0.35,1.3,0.10000000000000002,0.9,3.60429,32.43864,return,2.1430130999942776,,,,,,,20,21,female,left_right_width,2023_Oct_25_1359,exp1,2021.2.3,59.90717980624089,
,,,,,,,,,,,,,,,,5,9.25,9.625,10,10.375,10.75,0.375,0.125,0.25,1.75,10,match,36.05,333,347,361,374,388,9,9,9,9,9,,,,,4,0,4,0,0,10,10,21,,,,,num_5,1.1351513999979943,num_5,0.35,1.1,0.25,0.75,9.01073,27.0322,return,2.8965063000214286,,,,,,,20,21,female,left_right_width,2023_Oct_25_1359,exp1,2021.2.3,59.90717980624089,
,,,,,,,,,,,,,,,,4,9.3,9.766666666666667,10.233333333333333,10.7,0,0.4666666666666667,0.06666666666666665,0.4,1.8,10,match,36.05,335,352,369,386,0,9,9,9,9,0,,,,,4,0,4,0,0,11,11,11,,,,,num_5,2.502072799979942,num_5,0.2,1.3,0.39999999999999997,0.55,14.41717,19.82361,return,4.912936100008665,,,,,,,20,21,female,left_right_width,2023_Oct_25_1359,exp1,2021.2.3,59.90717980624089,
,,,,,,,,,,,,,,,,3,9,10,11,0,0,0.9999999999999999,0.5999999999999999,0.4,2.4,10,match,36.05,324,361,397,0,0,9,9,9,0,0,,,,,4,0,4,0,0,12,12,41,,,,,num_3,1.6502514999883715,num_3,0.25,1.1,0.49999999999999994,1.2,18.02146,43.25151,return,3.805718799994793,,,,,,,20,21,female,left_right_width,2023_Oct_25_1359,exp1,2021.2.3,59.90717980624089,
,,,,,,,,,,,,,,,,5,8.2,9.1,10,10.9,11.8,0.9,0.8,0.1,3.7,10,initial,36.05,296,328,361,393,425,9,9,9,9,9,,,,,4,0,4,0,0,13,13,48,,,,,num_5,1.3377118999778759,num_5,0.25,0.8,0.05000000000000002,1.0,1.80215,36.04293,return,4.322211000020616,,,,,,,20,21,female,left_right_width,2023_Oct_25_1359,exp1,2021.2.3,59.90717980624089,
,,,,,,,,,,,,,,,,3,9.3,10,10.7,0,0,0.7,0.29999999999999993,0.4,1.8,10,initial,36.05,335,361,386,0,0,9,9,9,0,0,,,,,4,0,4,0,0,14,14,10,,,,,num_3,1.022373100015102,num_3,0.45,0.7,0.30000000000000004,0.85,10.81288,30.63649,return,2.2596075999899767,,,,,,,20,21,female,left_right_width,2023_Oct_25_1359,exp1,2021.2.3,59.90717980624089,
,,,,,,,,,,,,,,,,4,9.5,9.833333333333334,10.166666666666666,10.5,0,0.3333333333333333,0.08333333333333333,0.25,1.25,10,match,36.05,342,354,367,379,0,9,9,9,9,0,,,,,4,0,4,0,0,15,15,3,,,,,num_4,0.9784799999906681,num_4,0.4,1.3,0.20000000000000007,0.5,7.20859,18.02146,return,7.465831300010905,,,,,,,20,21,female,left_right_width,2023_Oct_25_1359,exp1,2021.2.3,59.90717980624089,
,,,,,,,,,,,,,,,,4,9.5,9.833333333333334,10.166666666666666,10.5,0,0.33333333333333337,0.23333333333333336,0.1,1.1,10,match,36.05,342,354,367,379,0,9,9,9,9,0,,,,,4,0,4,0,0,16,16,1,,,,,num_4,0.9824467000144068,num_4,0.35,0.4,0.10000000000000002,0.4,3.60429,14.41717,return,2.510548300022492,,,,,,,20,21,female,left_right_width,2023_Oct_25_1359,exp1,2021.2.3,59.90717980624089,
,,,,,,,,,,,,,,,,4,8.65,9.55,10.45,11.35,0,0.9,0.8,0.1,2.8000000000000003,10,initial,36.05,312,344,377,409,0,9,9,9,9,0,,,,,4,0,4,0,0,17,17,30,,,,,num_5,1.3385658000188414,num_5,0.3,1.3,0.10000000000000002,0.85,3.60429,30.63649,return,3.539417699998012,,,,,,,20,21,female,left_right_width,2023_Oct_25_1359,exp1,2021.2.3,59.90717980624089,
,,,,,,,,,,,,,,,,4,8.95,9.65,10.35,11.05,0,0.7,0.44999999999999996,0.25,2.3499999999999996,10,initial,36.05,323,348,373,398,0,9,9,9,9,0,,,,,4,0,4,0,0,18,18,26,,,,,num_4,0.9785636000160594,num_4,0.2,1.0,0.2,0.7,7.20859,25.23005,return,3.593659700010903,,,,,,,20,21,female,left_right_width,2023_Oct_25_1359,exp1,2021.2.3,59.90717980624089,
,,,,,,,,,,,,,,,,4,9.25,9.75,10.25,10.75,0,0.5,0.4,0.1,1.6,10,initial,36.05,333,351,370,388,0,9,9,9,9,0,,,,,4,0,4,0,0,19,19,18,,,,,num_4,0.9711410000163596,num_4,0.45,1.0,0.10000000000000007,0.6,3.60429,21.62576,return,4.546674399985932,,,,,,,20,21,female,left_right_width,2023_Oct_25_1359,exp1,2021.2.3,59.90717980624089,
,,,,,,,,,,,,,,,,3,9.5,10,10.5,0,0,0.5,0.09999999999999998,0.4,1.4000000000000001,10,initial,36.05,342,361,379,0,0,9,9,9,0,0,,,,,4,0,4,0,0,20,20,4,,,,,num_4,0.9056596999871545,num_4,0.2,0.7,0.3,0.4,10.81288,14.41717,return,5.941958799987333,,,,,,,20,21,female,left_right_width,2023_Oct_25_1359,exp1,2021.2.3,59.90717980624089,
,,,,,,,,,,,,,,,,5,8.2,9.1,10,10.9,11.8,0.9,0.65,0.25,3.85,10,initial,36.05,296,328,361,393,425,9,9,9,9,9,,,,,4,0,4,0,0,21,21,50,,,,,num_4,0.873176200024318,num_4,0.35,1.0,0.25,1.2,9.01073,43.25151,return,4.165703200007556,,,,,,,20,21,female,left_right_width,2023_Oct_25_1359,exp1,2021.2.3,59.90717980624089,
,,,,,,,,,,,,,,,,4,9.3,9.766666666666667,10.233333333333333,10.7,0,0.4666666666666667,0.21666666666666665,0.25,1.65,10,match,36.05,335,352,369,386,0,9,9,9,9,0,,,,,4,0,4,0,0,22,22,9,,,,,num_4,0.934911500022281,num_4,0.4,0.6,0.15000000000000008,0.5,5.40644,18.02146,return,4.302038199995877,,,,,,,20,21,female,left_right_width,2023_Oct_25_1359,exp1,2021.2.3,59.90717980624089,
,,,,,,,,,,,,,,,,5,8.95,9.475,10,10.525,11.05,0.525,0.125,0.4,2.5,10,match,36.05,323,342,361,379,398,9,9,9,9,9,,,,,4,0,4,0,0,23,23,29,,,,,num_5,1.0893205000029411,num_5,0.3,1.3,0.35,0.6,12.61502,21.62576,return,5.205994499992812,,,,,,,20,21,female,left_right_width,2023_Oct_25_1359,exp1,2021.2.3,59.90717980624089,
,,,,,,,,,,,,,,,,4,9.1,9.7,10.3,10.9,0,0.5999999999999999,0.3499999999999999,0.25,2.05,10,match,36.05,328,350,371,393,0,9,9,9,9,0,,,,,4,0,4,0,0,24,24,15,,,,,num_4,1.1172714999993332,num_4,0.15,0.3,0.2,0.6,7.20859,21.62576,return,4.832425700005842,,,,,,,20,21,female,left_right_width,2023_Oct_25_1359,exp1,2021.2.3,59.90717980624089,
,,,,,,,,,,,,,,,,4,8.65,9.55,10.45,11.35,0,0.9,0.65,0.25,2.95,10,initial,36.05,312,344,377,409,0,9,9,9,9,0,,,,,4,0,4,0,0,25,25,32,,,,,num_4,1.40305389999412,num_4,0.2,1.2,0.15000000000000002,0.8,5.40644,28.83434,return,2.8472009999968577,,,,,,,20,21,female,left_right_width,2023_Oct_25_1359,exp1,2021.2.3,59.90717980624089,
,,,,,,,,,,,,,,,,4,8.95,9.65,10.35,11.05,0,0.7,0.29999999999999993,0.4,2.5,10,initial,36.05,323,348,373,398,0,9,9,9,9,0,,,,,4,0,4,0,0,26,26,28,,,,,num_4,0.8924821999971755,num_4,0.1,0.8,0.35,0.7,12.61502,25.23005,return,2.759512300021015,,,,,,,20,21,female,left_right_width,2023_Oct_25_1359,exp1,2021.2.3,59.90717980624089,
,,,,,,,,,,,,,,,,5,8.6,9.3,10,10.7,11.4,0.7,0.6,0.1,2.9,10,initial,36.05,310,335,361,386,411,9,9,9,9,9,,,,,4,0,4,0,0,27,27,42,,,,,num_5,0.9299253999779467,num_5,0.15,1.3,0.10000000000000002,1.1,3.60429,39.64722,return,2.8599885999865364,,,,,,,20,21,female,left_right_width,2023_Oct_25_1359,exp1,2021.2.3,59.90717980624089,
,,,,,,,,,,,,,,,,3,9.1,10,10.9,0,0,0.9,0.8,0.1,1.9000000000000001,10,initial,36.05,328,361,393,0,0,9,9,9,0,0,,,,,4,0,4,0,0,28,28,12,,,,,num_3,1.0498152000072878,num_3,0.35,0.6,0.10000000000000002,0.9,3.60429,32.43864,return,4.1266602000105195,,,,,,,20,21,female,left_right_width,2023_Oct_25_1359,exp1,2021.2.3,59.90717980624089,
,,,,,,,,,,,,,,,,3,9.1,10,10.9,0,0,0.9,0.5,0.4,2.2,10,initial,36.05,328,361,393,0,0,9,9,9,0,0,,,,,4,0,4,0,0,29,29,16,,,,,num_3,0.896447300008731,num_3,0.4,0.5,0.25000000000000006,0.9,9.01073,32.43864,return,3.477858099999139,,,,,,,20,21,female,left_right_width,2023_Oct_25_1359,exp1,2021.2.3,59.90717980624089,
,,,,,,,,,,,,,,,,3,8.2,10,11.8,0,0,1.8000000000000003,1.7000000000000002,0.1,3.7,10,match,36.05,296,361,425,0,0,9,9,9,0,0,,,,,4,0,4,0,0,30,30,49,,,,,num_3,0.8772091999999247,num_3,0.45,1,0.10000000000000007,1.5,3.60429,54.06439,return,3.558684899995569,,,,,,,20,21,female,left_right_width,2023_Oct_25_1359,exp1,2021.2.3,59.90717980624089,
,,,,,,,,,,,,,,,,3,8.6,10,11.4,0,0,1.4,1.15,0.25,3.05,10,match,36.05,310,361,411,0,0,9,9,9,0,0,,,,,4,0,4,0,0,31,31,45,,,,,num_3,0.888679099996807,num_3,0.3,0.4,0.15000000000000002,1.3,5.40644,46.85581,return,4.7394420000200626,,,,,,,20,21,female,left_right_width,2023_Oct_25_1359,exp1,2021.2.3,59.90717980624089,
,,,,,,,,,,,,,,,,4,9.25,9.75,10.25,10.75,0,0.5,0.09999999999999998,0.4,1.9,10,initial,36.05,333,351,370,388,0,9,9,9,9,0,,,,,4,0,4,0,0,32,32,22,,,,,num_4,1.0326902999950107,num_4,0.3,1.0,0.39999999999999997,0.5,14.41717,18.02146,return,4.286707499995828,,,,,,,20,21,female,left_right_width,2023_Oct_25_1359,exp1,2021.2.3,59.90717980624089,
,,,,,,,,,,,,,,,,3,9,10,11,0,0,1,0.9,0.1,2.1,10,match,36.05,324,361,397,0,0,9,9,9,0,0,,,,,4,0,4,0,0,33,33,37,,,,,num_3,0.9438714999996591,num_3,0.15,1.1,0.15,0.9,5.40644,32.43864,return,2.601271799998358,,,,,,,20,21,female,left_right_width,2023_Oct_25_1359,exp1,2021.2.3,59.90717980624089,
,,,,,,,,,,,,,,,,4,9.3,9.766666666666667,10.233333333333333,10.7,0,0.4666666666666667,0.3666666666666667,0.1,1.5,10,match,36.05,335,352,369,386,0,9,9,9,9,0,,,,,4,0,4,0,0,34,34,7,,,,,num_3,0.977917999989586,num_3,0.1,1.2,0.2,0.7,7.20859,25.23005,return,3.8354815999919083,,,,,,,20,21,female,left_right_width,2023_Oct_25_1359,exp1,2021.2.3,59.90717980624089,
,,,,,,,,,,,,,,,,3,9.5,10,10.5,0,0,0.5,0.25,0.25,1.25,10,initial,36.05,342,361,379,0,0,9,9,9,0,0,,,,,4,0,4,0,0,35,35,2,,,,,num_2,0.7709558000206016,num_2,0.1,1.6,0.3,0.7,10.81288,25.23005,return,3.203256499982672,,,,,,,20,21,female,left_right_width,2023_Oct_25_1359,exp1,2021.2.3,59.90717980624089,
,,,,,,,,,,,,,,,,5,8.65,9.325,10,10.675,11.35,0.675,0.275,0.4,3.1,10,match,36.05,312,336,361,385,409,9,9,9,9,9,,,,,4,0,4,0,0,36,36,35,,,,,num_4,1.0676475999935064,num_4,0.4,0.8,0.25000000000000006,1.0,9.01073,36.04293,return,4.048103400011314,,,,,,,20,21,female,left_right_width,2023_Oct_25_1359,exp1,2021.2.3,59.90717980624089,
,,,,,,,,,,,,,,,,4,9.425,9.808333333333334,10.191666666666666,10.575,0,0.3833333333333333,0.1333333333333333,0.25,1.4,10,match,36.05,340,354,367,381,0,9,9,9,9,0,,,,,4,0,4,0,0,37,37,5,,,,,num_4,1.2910326999844983,num_4,0.25,0.6,0.2,0.4,7.20859,14.41717,return,2.631624500005273,,,,,,,20,21,female,left_right_width,2023_Oct_25_1359,exp1,2021.2.3,59.90717980624089,
,,,,,,,,,,,,,,,,3,8.2,10,11.8,0,0,1.8,1.55,0.25,3.85,10,match,36.05,296,361,425,0,0,9,9,9,0,0,,,,,4,0,4,0,0,38,38,51,,,,,num_2,1.5359208000008948,num_2,0.1,1.6,0.25,2.7,9.01073,97.31591,return,4.513966900005471,,,,,,,20,21,female,left_right_width,2023_Oct_25_1359,exp1,2021.2.3,59.90717980624089,
,,,,,,,,,,,,,,,,5,8.95,9.475,10,10.525,11.05,0.525,0.275,0.25,2.35,10,match,36.05,323,342,361,379,398,9,9,9,9,9,,,,,4,0,4,0,0,39,39,27,,,,,num_4,0.9971739999891724,num_4,0.1,0.7,0.2,0.8,7.20859,28.83434,return,3.356593900010921,,,,,,,20,21,female,left_right_width,2023_Oct_25_1359,exp1,2021.2.3,59.90717980624089,
,,,,,,,,,,,,,,,,3,9,10,11,0,0,1,0.75,0.25,2.25,10,match,36.05,324,361,397,0,0,9,9,9,0,0,,,,,4,0,4,0,0,40,40,39,,,,,num_3,1.3901949000137392,num_3,0.1,1.2,0.3,1.2,10.81288,43.25151,return,2.7102624000108335,,,,,,,20,21,female,left_right_width,2023_Oct_25_1359,exp1,2021.2.3,59.90717980624089,
,,,,,,,,,,,,,,,,3,9.3,10,10.7,0,0,0.7,0.6,0.1,1.5,10,initial,36.05,335,361,386,0,0,9,9,9,0,0,,,,,4,0,4,0,0,41,41,6,,,,,num_3,0.9557161999982782,num_3,0.45,0.5,0.05000000000000007,0.65,1.80215,23.4279,return,3.4449076000018977,,,,,,,20,21,female,left_right_width,2023_Oct_25_1359,exp1,2021.2.3,59.90717980624089,
,,,,,,,,,,,,,,,,5,9.25,9.625,10,10.375,10.75,0.375,0.275,0.1,1.6,10,match,36.05,333,347,361,374,388,9,9,9,9,9,,,,,4,0,4,0,0,42,42,19,,,,,num_4,0.8291944999946281,num_4,0.15,1.1,0.05000000000000002,0.6,1.80215,21.62576,return,3.73769270000048,,,,,,,20,21,female,left_right_width,2023_Oct_25_1359,exp1,2021.2.3,59.90717980624089,
,,,,,,,,,,,,,,,,3,9.5,10,10.5,0,0,0.5,0.4,0.1,1.1,10,initial,36.05,342,361,379,0,0,9,9,9,0,0,,,,,4,0,4,0,0,43,43,0,,,,,num_3,0.9898343999811914,num_3,0.15,0.5,0.04999999999999999,0.55,1.80215,19.82361,return,2.277303299983032,,,,,,,20,21,female,left_right_width,2023_Oct_25_1359,exp1,2021.2.3,59.90717980624089,
,,,,,,,,,,,,,,,,3,9.1,10,10.9,0,0,0.9,0.65,0.25,2.05,10,initial,36.05,328,361,393,0,0,9,9,9,0,0,,,,,4,0,4,0,0,44,44,14,,,,,num_3,0.8384915000060573,num_3,0.4,1,0.30000000000000004,1,10.81288,36.04293,return,1.6847973999974784,,,,,,,20,21,female,left_right_width,2023_Oct_25_1359,exp1,2021.2.3,59.90717980624089,
,,,,,,,,,,,,,,,,5,9,9.5,10,10.5,11,0.5,0.25,0.25,2.25,10,initial,36.05,324,342,361,379,397,9,9,9,9,9,,,,,4,0,4,0,0,45,45,38,,,,,num_4,0.7551497000094969,num_4,0.45,1.3,0.25000000000000006,0.8,9.01073,28.83434,return,3.1733598000137135,,,,,,,20,21,female,left_right_width,2023_Oct_25_1359,exp1,2021.2.3,59.90717980624089,
,,,,,,,,,,,,,,,,5,8.6,9.3,10,10.7,11.4,0.7,0.29999999999999993,0.4,3.1999999999999997,10,initial,36.05,310,335,361,386,411,9,9,9,9,9,,,,,4,0,4,0,0,46,46,46,,,,,num_5,0.7972414999967441,num_5,0.15,0.6,0.35,0.8,12.61502,28.83434,return,3.614262700022664,,,,,,,20,21,female,left_right_width,2023_Oct_25_1359,exp1,2021.2.3,59.90717980624089,
,,,,,,,,,,,,,,,,4,8.65,9.55,10.45,11.35,0,0.9,0.5,0.4,3.1,10,initial,36.05,312,344,377,409,0,9,9,9,9,0,,,,,4,0,4,0,0,47,47,34,,,,,num_4,1.518725900008576,num_4,0.25,0.9,0.25,1.1,9.01073,39.64722,return,3.185413300001528,,,,,,,20,21,female,left_right_width,2023_Oct_25_1359,exp1,2021.2.3,59.90717980624089,
,,,,,,,,,,,,,,,,5,8.95,9.475,10,10.525,11.05,0.525,0.42500000000000004,0.1,2.2,10,match,36.05,323,342,361,379,398,9,9,9,9,9,,,,,4,0,4,0,0,48,48,25,,,,,num_5,1.0436918000050355,num_5,0.25,0.6,1.3877787807814457e-17,0.6,0.0,21.62576,return,2.887282200012123,,,,,,,20,21,female,left_right_width,2023_Oct_25_1359,exp1,2021.2.3,59.90717980624089,
,,,,,,,,,,,,,,,,5,9,9.5,10,10.5,11,0.5,0.4,0.1,2.1,10,initial,36.05,324,342,361,379,397,9,9,9,9,9,,,,,4,0,4,0,0,49,49,36,,,,,num_5,1.0696825000050012,num_5,0.25,0.4,0.05000000000000002,0.5,1.80215,18.02146,return,2.961840600008145,,,,,,,20,21,female,left_right_width,2023_Oct_25_1359,exp1,2021.2.3,59.90717980624089,
,,,,,,,,,,,,,,,,4,9.1,9.7,10.3,10.9,0,0.6000000000000001,0.20000000000000004,0.4,2.2,10,match,36.05,328,350,371,393,0,9,9,9,9,0,,,,,4,0,4,0,0,50,50,17,,,,,num_5,1.7480074999912176,num_5,0.25,0.5,0.25,0.6,9.01073,21.62576,return,1.6446625999815296,,,,,,,20,21,female,left_right_width,2023_Oct_25_1359,exp1,2021.2.3,59.90717980624089,
,,,,,,,,,,,,,,,,3,8.6,10,11.4,0,0,1.4,1.2999999999999998,0.1,2.9,10,match,36.05,310,361,411,0,0,9,9,9,0,0,,,,,4,0,4,0,0,51,51,43,,,,,num_3,1.1218400000070687,num_3,0.4,1.3,6.938893903907228e-17,1.6,0.0,57.66869,return,6.148297600011574,,,,,,,20,21,female,left_right_width,2023_Oct_25_1359,exp1,2021.2.3,59.90717980624089,
,,,,,,,,,,,,,,,,3,8.2,10,11.8,0,0,1.7999999999999998,1.4,0.4,4,10,match,36.05,296,361,425,0,0,9,9,9,0,0,,,,,4,0,4,0,0,52,52,53,,,,,num_3,0.8205352000077255,num_3,0.45,0.5,0.30000000000000004,1.65,10.81288,59.47083,return,10.533850400010124,,,,,,,20,21,female,left_right_width,2023_Oct_25_1359,exp1,2021.2.3,59.90717980624089,
,,,,,,,,,,,,,,,,4,9.1,9.7,10.3,10.9,0,0.6,0.5,0.1,1.9,10,match,36.05,328,350,371,393,0,9,9,9,9,0,,,,,4,0,4,0,0,53,53,13,,,,,num_2,0.878049099992495,num_2,0.2,1.6,0.3,1.8,10.81288,64.87727,return,5.978030500002205,,,,,,,20,21,female,left_right_width,2023_Oct_25_1359,exp1,2021.2.3,59.90717980624089,
,,,,,,,,,,,,,,,,,,,,,,,,,,,,,,,,,,,,,,,,,,,4,0,4,0,,,,,,,,,,,,,,,,,,,,,,2511.9222341999994,None,2511.9222341999994,None,20,21,female,left_right_width,2023_Oct_25_1359,exp1,2021.2.3,59.90717980624089,
,,,,,,,,,,,,,,,,3,9.5,10,10.5,0,0,0.5,0.09999999999999998,0.4,1.4000000000000001,10,initial,36.05,342,361,379,0,0,9,9,9,0,0,,,,,5,0,5,0,0,0,0,4,,,,,num_3,1.3484140999789815,num_3,0.25,0.5,0.25,0.55,9.01073,19.82361,return,2.9727532000106294,,,,,,,20,21,female,left_right_width,2023_Oct_25_1359,exp1,2021.2.3,59.90717980624089,
,,,,,,,,,,,,,,,,3,9.5,10,10.5,0,0,0.5,0.4,0.1,1.1,10,initial,36.05,342,361,379,0,0,9,9,9,0,0,,,,,5,0,5,0,0,1,1,0,,,,,num_2,1.3310516999918036,num_2,0.35,1.6,0.2,0.6,7.20859,21.62576,return,3.3898830999969505,,,,,,,20,21,female,left_right_width,2023_Oct_25_1359,exp1,2021.2.3,59.90717980624089,
,,,,,,,,,,,,,,,,4,9.5,9.833333333333334,10.166666666666666,10.5,0,0.3333333333333333,0.08333333333333333,0.25,1.25,10,match,36.05,342,354,367,379,0,9,9,9,9,0,,,,,5,0,5,0,0,2,2,3,,,,,num_4,0.8758885000133887,num_4,0.15,0.9,0.25,0.5,9.01073,18.02146,return,2.517249399999855,,,,,,,20,21,female,left_right_width,2023_Oct_25_1359,exp1,2021.2.3,59.90717980624089,
,,,,,,,,,,,,,,,,4,9.1,9.7,10.3,10.9,0,0.6,0.5,0.1,1.9,10,match,36.05,328,350,371,393,0,9,9,9,9,0,,,,,5,0,5,0,0,3,3,13,,,,,num_4,0.9857265999889933,num_4,0.35,0.5,0.05000000000000002,0.7,1.80215,25.23005,return,2.1932630999945104,,,,,,,20,21,female,left_right_width,2023_Oct_25_1359,exp1,2021.2.3,59.90717980624089,
,,,,,,,,,,,,,,,,3,9.5,10,10.5,0,0,0.5,0.25,0.25,1.25,10,initial,36.05,342,361,379,0,0,9,9,9,0,0,,,,,5,0,5,0,0,4,4,2,,,,,num_3,1.03568259999156,num_3,0.25,0.8,0.25,0.65,9.01073,23.4279,return,2.0183784999826457,,,,,,,20,21,female,left_right_width,2023_Oct_25_1359,exp1,2021.2.3,59.90717980624089,
,,,,,,,,,,,,,,,,4,9.25,9.75,10.25,10.75,0,0.5,0.4,0.1,1.6,10,initial,36.05,333,351,370,388,0,9,9,9,9,0,,,,,5,0,5,0,0,5,5,18,,,,,num_3,1.293359800009057,num_3,0.1,0.8,0.3,0.8,10.81288,28.83434,return,1.9607131999800913,,,,,,,20,21,female,left_right_width,2023_Oct_25_1359,exp1,2021.2.3,59.90717980624089,
,,,,,,,,,,,,,,,,3,8.525,10,11.475,0,0,1.475,1.225,0.25,3.2,10,match,36.05,307,361,414,0,0,9,9,9,0,0,,,,,5,0,5,0,0,6,6,47,,,,,num_3,0.8966197000117972,num_3,0.4,1,0.25000000000000006,1.6,9.01073,57.66869,return,3.8192573999986053,,,,,,,20,21,female,left_right_width,2023_Oct_25_1359,exp1,2021.2.3,59.90717980624089,
,,,,,,,,,,,,,,,,4,9.1,9.7,10.3,10.9,0,0.6000000000000001,0.20000000000000004,0.4,2.2,10,match,36.05,328,350,371,393,0,9,9,9,9,0,,,,,5,0,5,0,0,7,7,17,,,,,num_4,1.7078029999975115,num_4,0.45,0.8,0.25000000000000006,0.7,9.01073,25.23005,return,2.421596500003943,,,,,,,20,21,female,left_right_width,2023_Oct_25_1359,exp1,2021.2.3,59.90717980624089,
,,,,,,,,,,,,,,,,5,9.25,9.625,10,10.375,10.75,0.375,0.125,0.25,1.75,10,match,36.05,333,347,361,374,388,9,9,9,9,9,,,,,5,0,5,0,0,8,8,21,,,,,num_4,0.7439107999962289,num_4,0.25,1.2,0.2,0.6,7.20859,21.62576,return,4.1991198000032455,,,,,,,20,21,female,left_right_width,2023_Oct_25_1359,exp1,2021.2.3,59.90717980624089,
,,,,,,,,,,,,,,,,4,9.25,9.75,10.25,10.75,0,0.5,0.09999999999999998,0.4,1.9,10,initial,36.05,333,351,370,388,0,9,9,9,9,0,,,,,5,0,5,0,0,9,9,22,,,,,num_4,1.2787292999855708,num_4,0.15,1.2,0.25,0.8,9.01073,28.83434,return,2.9540527000208385,,,,,,,20,21,female,left_right_width,2023_Oct_25_1359,exp1,2021.2.3,59.90717980624089,
,,,,,,,,,,,,,,,,4,9.3,9.766666666666667,10.233333333333333,10.7,0,0.4666666666666667,0.3666666666666667,0.1,1.5,10,match,36.05,335,352,369,386,0,9,9,9,9,0,,,,,5,0,5,0,0,10,10,7,,,,,num_4,0.9164868000079878,num_4,0.15,0.4,0.05000000000000002,0.6,1.80215,21.62576,return,3.649466199974995,,,,,,,20,21,female,left_right_width,2023_Oct_25_1359,exp1,2021.2.3,59.90717980624089,
,,,,,,,,,,,,,,,,4,9.1,9.7,10.3,10.9,0,0.5999999999999999,0.3499999999999999,0.25,2.05,10,match,36.05,328,350,371,393,0,9,9,9,9,0,,,,,5,0,5,0,0,11,11,15,,,,,num_4,1.3978742999897804,num_4,0.25,0.5,0.15000000000000002,0.9,5.40644,32.43864,return,3.1003495000186376,,,,,,,20,21,female,left_right_width,2023_Oct_25_1359,exp1,2021.2.3,59.90717980624089,
,,,,,,,,,,,,,,,,5,8.65,9.325,10,10.675,11.35,0.675,0.42500000000000004,0.25,2.95,10,match,36.05,312,336,361,385,409,9,9,9,9,9,,,,,5,0,5,0,0,12,12,33,,,,,num_5,1.015998099988792,num_5,0.25,0.4,0.10000000000000002,0.75,3.60429,27.0322,return,2.9897196000092663,,,,,,,20,21,female,left_right_width,2023_Oct_25_1359,exp1,2021.2.3,59.90717980624089,
,,,,,,,,,,,,,,,,4,9.425,9.808333333333334,10.191666666666666,10.575,0,0.3833333333333333,0.1333333333333333,0.25,1.4,10,match,36.05,340,354,367,381,0,9,9,9,9,0,,,,,5,0,5,0,0,13,13,5,,,,,num_4,1.3092087999975774,num_4,0.2,0.4,0.2,0.5,7.20859,18.02146,return,1.5126826000050642,,,,,,,20,21,female,left_right_width,2023_Oct_25_1359,exp1,2021.2.3,59.90717980624089,
,,,,,,,,,,,,,,,,5,8.6,9.3,10,10.7,11.4,0.7,0.44999999999999996,0.25,3.05,10,initial,36.05,310,335,361,386,411,9,9,9,9,9,,,,,5,0,5,0,0,14,14,44,,,,,num_5,1.1281560999923386,num_5,0.15,0.4,0.25,0.7,9.01073,25.23005,return,4.7929844000027515,,,,,,,20,21,female,left_right_width,2023_Oct_25_1359,exp1,2021.2.3,59.90717980624089,
,,,,,,,,,,,,,,,,5,9.175,9.5875,10,10.4125,10.825,0.4125,0.16249999999999998,0.25,1.9,10,match,36.05,331,346,361,375,390,9,9,9,9,9,,,,,5,0,5,0,0,15,15,23,,,,,num_5,1.1786153000139166,num_5,0.15,1.0,0.25,0.55,9.01073,19.82361,return,4.34653559999424,,,,,,,20,21,female,left_right_width,2023_Oct_25_1359,exp1,2021.2.3,59.90717980624089,
,,,,,,,,,,,,,,,,3,9.3,10,10.7,0,0,0.7,0.6,0.1,1.5,10,initial,36.05,335,361,386,0,0,9,9,9,0,0,,,,,5,0,5,0,0,16,16,6,,,,,num_2,0.8792982999875676,num_2,0.15,1.6,0.04999999999999999,1.0,1.80215,36.04293,return,3.0199615999881644,,,,,,,20,21,female,left_right_width,2023_Oct_25_1359,exp1,2021.2.3,59.90717980624089,
,,,,,,,,,,,,,,,,3,9.3,10,10.7,0,0,0.7,0.44999999999999996,0.25,1.65,10,initial,36.05,335,361,386,0,0,9,9,9,0,0,,,,,5,0,5,0,0,17,17,8,,,,,num_2,0.9872849000093993,num_2,0.35,1.6,0.2,0.9,7.20859,32.43864,return,2.834111900010612,,,,,,,20,21,female,left_right_width,2023_Oct_25_1359,exp1,2021.2.3,59.90717980624089,
,,,,,,,,,,,,,,,,5,9,9.5,10,10.5,11,0.5,0.09999999999999998,0.4,2.4,10,initial,36.05,324,342,361,379,397,9,9,9,9,9,,,,,5,0,5,0,0,18,18,40,,,,,num_4,1.5717625000106636,num_4,0.1,1.3,0.35,0.7,12.61502,25.23005,return,7.6375659000186715,,,,,,,20,21,female,left_right_width,2023_Oct_25_1359,exp1,2021.2.3,59.90717980624089,
,,,,,,,,,,,,,,,,3,9,10,11,0,0,0.9999999999999999,0.5999999999999999,0.4,2.4,10,match,36.05,324,361,397,0,0,9,9,9,0,0,,,,,5,0,5,0,0,19,19,41,,,,,num_3,1.1709984000190161,num_3,0.35,0.7,0.44999999999999996,1.0,16.21932,36.04293,return,2.9972598000022117,,,,,,,20,21,female,left_right_width,2023_Oct_25_1359,exp1,2021.2.3,59.90717980624089,
,,,,,,,,,,,,,,,,5,9.25,9.625,10,10.375,10.75,0.375,0.275,0.1,1.6,10,match,36.05,333,347,361,374,388,9,9,9,9,9,,,,,5,0,5,0,0,20,20,19,,,,,num_5,1.1021937000041362,num_5,0.3,1.3,0.10000000000000002,0.65,3.60429,23.4279,return,3.5698495999968145,,,,,,,20,21,female,left_right_width,2023_Oct_25_1359,exp1,2021.2.3,59.90717980624089,
