amount_p,posx1_p,posx2_p,posx3_p,posx4_p,posx5_p,center_to_center_p,edge_to_edge_p,w_p,stim_lengt_p,eccentricity_p,line1_p,line2_p,line3_p,line4_p,line5_p,amount,posx1,posx2,posx3,posx4,posx5,center_to_center,edge_to_edge,w,stim_length,eccentricity,trial_type,deg_to_pix_index,posx1_in_pix,posx2_in_pix,posx3_in_pix,posx4_in_pix,posx5_in_pix,line1,line2,line3,line4,line5,trials.thisRepN,trials.thisTrialN,trials.thisN,trials.thisIndex,blocks.thisRepN,blocks.thisTrialN,blocks.thisN,blocks.thisIndex,loop.thisRepN,loop.thisTrialN,loop.thisN,loop.thisIndex,key_resp_3.keys,key_resp_3.rt,key_resp_3.started,key_resp_3.stopped,key_resp.keys,key_resp.rt,response,starting_width_deg,starting_space_deg,response_width_degree,response_spacing_degree,response_width_pixel,response_spacing_pixel,next_5.keys,next_5.rt,key_resp_4.keys,key_resp_4.rt,text_3.started,text_3.stopped,text_4.started,text_4.stopped,participant,age,gender,resp_group,date,expName,psychopyVersion,frameRate,
,,,,,,,,,,,,,,,,,,,,,,,,,,,,,,,,,,,,,,,,,,,,,,,,,,,c,37.818128099897876,11.225738300010562,None,,,,,,,,,,,,,,,,,,3,23,female,up_down_width,2023_Aug_14_1422,exp1,2021.2.3,60.00470434875859,
3,9.5,10,10.5,0,0,0.5,0.4,0.1,1.1,10,9,9,9,0,0,,,,,,,,,,,,,,,,,,,,,,,,0,0,0,0,,,,,,,,,,,,,num_3,3.224140000063926,num_3,0.15,0.9,0.09999999999999999,0.9,3.60429,32.43864,return,5.766962300054729,,,,,,,3,23,female,up_down_width,2023_Aug_14_1422,exp1,2021.2.3,60.00470434875859,
4,8.65,9.55,10.45,11.35,0,0.9,0.5,0.4,3.1,10,9,9,9,9,0,,,,,,,,,,,,,,,,,,,,,,,,0,1,1,5,,,,,,,,,,,,,num_3,2.9243110998068005,num_3,0.25,0.6,0.25,0.85,9.01073,30.63649,return,14.949946400010958,,,,,,,3,23,female,up_down_width,2023_Aug_14_1422,exp1,2021.2.3,60.00470434875859,
3,8.2,10,11.8,0,0,1.7999999999999998,1.4,0.4,4,10,9,9,9,0,0,,,,,,,,,,,,,,,,,,,,,,,,0,2,2,2,,,,,,,,,,,,,num_3,2.2429440999403596,num_3,0.35,0.9,0.35,1.4,12.61502,50.4601,return,3.8955780998803675,,,,,,,3,23,female,up_down_width,2023_Aug_14_1422,exp1,2021.2.3,60.00470434875859,
3,9,10,11,0,0,1,0.9,0.1,2.1,10,9,9,9,0,0,,,,,,,,,,,,,,,,,,,,,,,,0,3,3,1,,,,,,,,,,,,,num_3,2.5788837000727654,num_3,0.4,0.7,0.05000000000000007,0.85,1.80215,30.63649,return,24.906038800021634,,,,,,,3,23,female,up_down_width,2023_Aug_14_1422,exp1,2021.2.3,60.00470434875859,
4,9.5,9.833333333333334,10.166666666666666,10.5,0,0.33333333333333337,0.23333333333333336,0.1,1.1,10,9,9,9,9,0,,,,,,,,,,,,,,,,,,,,,,,,0,4,4,3,,,,,,,,,,,,,num_3,2.989300000015646,num_3,0.4,0.8,0.15000000000000008,0.55,5.40644,19.82361,return,5.300253099994734,,,,,,,3,23,female,up_down_width,2023_Aug_14_1422,exp1,2021.2.3,60.00470434875859,
5,9.25,9.625,10,10.375,10.75,0.375,0.125,0.25,1.75,10,9,9,9,9,9,,,,,,,,,,,,,,,,,,,,,,,,0,5,5,6,,,,,,,,,,,,,num_4,1.8471282999962568,num_4,0.15,1.0,0.15,0.5,5.40644,18.02146,return,6.540884700138122,,,,,,,3,23,female,up_down_width,2023_Aug_14_1422,exp1,2021.2.3,60.00470434875859,
4,9.25,9.75,10.25,10.75,0,0.5,0.25,0.25,1.75,10,9,9,9,9,0,,,,,,,,,,,,,,,,,,,,,,,,0,6,6,4,,,,,,,,,,,,,num_3,2.9951647999696434,num_3,0.35,0.9,0.2,0.8,7.20859,28.83434,return,6.82612290000543,,,,,,,3,23,female,up_down_width,2023_Aug_14_1422,exp1,2021.2.3,60.00470434875859,
5,9,9.5,10,10.5,11,0.5,0.09999999999999998,0.4,2.4,10,9,9,9,9,9,,,,,,,,,,,,,,,,,,,,,,,,0,7,7,8,,,,,,,,,,,,,num_4,1.7179143999237567,num_4,0.15,1.2,0.35,0.9,12.61502,32.43864,return,8.15945169981569,,,,,,,3,23,female,up_down_width,2023_Aug_14_1422,exp1,2021.2.3,60.00470434875859,
5,8.6,9.3,10,10.7,11.4,0.7,0.29999999999999993,0.4,3.1999999999999997,10,9,9,9,9,9,,,,,,,,,,,,,,,,,,,,,,,,0,8,8,7,,,,,,,,,,,,,num_4,2.479944699909538,num_4,0.15,0.5,0.35,0.7,12.61502,25.23005,return,4.34588890010491,,,,,,,3,23,female,up_down_width,2023_Aug_14_1422,exp1,2021.2.3,60.00470434875859,
,,,,,,,,,,,,,,,,,,,,,,,,,,,,,,,,,,,,,,,,,,,,,,,,,,,,,,,,,,,,,,,,,,c,77.16389530012384,,,,,3,23,female,up_down_width,2023_Aug_14_1422,exp1,2021.2.3,60.00470434875859,
,,,,,,,,,,,,,,,,3,8.2,10,11.8,0,0,1.7999999999999998,1.4,0.4,4,10,match,36.05,296,361,425,0,0,9,9,9,0,0,,,,,0,0,0,0,0,0,0,53,,,,,num_3,1.60092439991422,num_3,0.2,1.3,0.2,1.4,7.20859,50.4601,return,3.423717699944973,,,,,,,3,23,female,up_down_width,2023_Aug_14_1422,exp1,2021.2.3,60.00470434875859,
,,,,,,,,,,,,,,,,4,9.1,9.7,10.3,10.9,0,0.6000000000000001,0.20000000000000004,0.4,2.2,10,match,36.05,328,350,371,393,0,9,9,9,9,0,,,,,0,0,0,0,0,1,1,17,,,,,num_3,1.5077909000683576,num_3,0.35,0.8,0.25,0.8,9.01073,28.83434,return,4.164697299944237,,,,,,,3,23,female,up_down_width,2023_Aug_14_1422,exp1,2021.2.3,60.00470434875859,
,,,,,,,,,,,,,,,,4,9.1,9.7,10.3,10.9,0,0.5999999999999999,0.3499999999999999,0.25,2.05,10,match,36.05,328,350,371,393,0,9,9,9,9,0,,,,,0,0,0,0,0,2,2,15,,,,,num_4,1.3524762999732047,num_4,0.2,0.9,0.2,0.6,7.20859,21.62576,return,3.856948599917814,,,,,,,3,23,female,up_down_width,2023_Aug_14_1422,exp1,2021.2.3,60.00470434875859,
,,,,,,,,,,,,,,,,3,9,10,11,0,0,1,0.75,0.25,2.25,10,match,36.05,324,361,397,0,0,9,9,9,0,0,,,,,0,0,0,0,0,3,3,39,,,,,num_3,2.7591126000043005,num_3,0.2,0.5,0.2,1.05,7.20859,37.84507,return,5.39605089998804,,,,,,,3,23,female,up_down_width,2023_Aug_14_1422,exp1,2021.2.3,60.00470434875859,
,,,,,,,,,,,,,,,,4,8.65,9.55,10.45,11.35,0,0.9,0.8,0.1,2.8000000000000003,10,initial,36.05,312,344,377,409,0,9,9,9,9,0,,,,,0,0,0,0,0,4,4,30,,,,,num_4,1.2083807000890374,num_4,0.4,1.1,0.10000000000000007,1.0,3.60429,36.04293,return,4.484222300117835,,,,,,,3,23,female,up_down_width,2023_Aug_14_1422,exp1,2021.2.3,60.00470434875859,
,,,,,,,,,,,,,,,,5,8.6,9.3,10,10.7,11.4,0.7,0.29999999999999993,0.4,3.1999999999999997,10,initial,36.05,310,335,361,386,411,9,9,9,9,9,,,,,0,0,0,0,0,5,5,46,,,,,num_5,2.160379600012675,num_5,0.3,0.5,0.25,0.5,9.01073,18.02146,return,6.793363700155169,,,,,,,3,23,female,up_down_width,2023_Aug_14_1422,exp1,2021.2.3,60.00470434875859,
,,,,,,,,,,,,,,,,5,9,9.5,10,10.5,11,0.5,0.25,0.25,2.25,10,initial,36.05,324,342,361,379,397,9,9,9,9,9,,,,,0,0,0,0,0,6,6,38,,,,,num_4,1.2575632999651134,num_4,0.1,1.3,0.15000000000000002,0.8,5.40644,28.83434,return,6.8686533998698,,,,,,,3,23,female,up_down_width,2023_Aug_14_1422,exp1,2021.2.3,60.00470434875859,
,,,,,,,,,,,,,,,,5,9,9.5,10,10.5,11,0.5,0.4,0.1,2.1,10,initial,36.05,324,342,361,379,397,9,9,9,9,9,,,,,0,0,0,0,0,7,7,36,,,,,num_5,1.2323627001605928,num_5,0.45,0.7,0.10000000000000007,0.7,3.60429,25.23005,return,3.0845947000198066,,,,,,,3,23,female,up_down_width,2023_Aug_14_1422,exp1,2021.2.3,60.00470434875859,
,,,,,,,,,,,,,,,,4,8.95,9.65,10.35,11.05,0,0.7,0.29999999999999993,0.4,2.5,10,initial,36.05,323,348,373,398,0,9,9,9,9,0,,,,,0,0,0,0,0,8,8,28,,,,,num_4,2.7099277002271265,num_4,0.2,0.6,0.3,0.6,10.81288,21.62576,return,6.567959799896926,,,,,,,3,23,female,up_down_width,2023_Aug_14_1422,exp1,2021.2.3,60.00470434875859,
,,,,,,,,,,,,,,,,3,8.6,10,11.4,0,0,1.4,1.15,0.25,3.05,10,match,36.05,310,361,411,0,0,9,9,9,0,0,,,,,0,0,0,0,0,9,9,45,,,,,num_3,1.5784128000959754,num_3,0.2,0.8,0.2,1.25,7.20859,45.05366,return,3.403954899869859,,,,,,,3,23,female,up_down_width,2023_Aug_14_1422,exp1,2021.2.3,60.00470434875859,
,,,,,,,,,,,,,,,,4,8.95,9.65,10.35,11.05,0,0.7,0.6,0.1,2.1999999999999997,10,initial,36.05,323,348,373,398,0,9,9,9,9,0,,,,,0,0,0,0,0,10,10,24,,,,,num_3,1.4988330998457968,num_3,0.3,1.2,0.10000000000000002,1.2,3.60429,43.25151,return,4.012393499957398,,,,,,,3,23,female,up_down_width,2023_Aug_14_1422,exp1,2021.2.3,60.00470434875859,
,,,,,,,,,,,,,,,,4,9.425,9.808333333333334,10.191666666666666,10.575,0,0.3833333333333333,0.1333333333333333,0.25,1.4,10,match,36.05,340,354,367,381,0,9,9,9,9,0,,,,,0,0,0,0,0,11,11,5,,,,,num_3,2.9543041000142694,num_3,0.45,1.2,0.15000000000000008,0.5,5.40644,18.02146,return,8.482288399944082,,,,,,,3,23,female,up_down_width,2023_Aug_14_1422,exp1,2021.2.3,60.00470434875859,
,,,,,,,,,,,,,,,,5,9,9.5,10,10.5,11,0.5,0.09999999999999998,0.4,2.4,10,initial,36.05,324,342,361,379,397,9,9,9,9,9,,,,,0,0,0,0,0,12,12,40,,,,,num_5,1.2244577000383288,num_5,0.25,1.0,0.25,0.6,9.01073,21.62576,return,3.5551855000667274,,,,,,,3,23,female,up_down_width,2023_Aug_14_1422,exp1,2021.2.3,60.00470434875859,
,,,,,,,,,,,,,,,,5,8.95,9.475,10,10.525,11.05,0.525,0.125,0.4,2.5,10,match,36.05,323,342,361,379,398,9,9,9,9,9,,,,,0,0,0,0,0,13,13,29,,,,,num_4,1.4003826000262052,num_4,0.3,0.9,0.3,0.5,10.81288,18.02146,return,3.53296360000968,,,,,,,3,23,female,up_down_width,2023_Aug_14_1422,exp1,2021.2.3,60.00470434875859,
,,,,,,,,,,,,,,,,3,8.2,10,11.8,0,0,1.8,1.55,0.25,3.85,10,match,36.05,296,361,425,0,0,9,9,9,0,0,,,,,0,0,0,0,0,14,14,51,,,,,num_3,1.2251973999664187,num_3,0.35,0.9,0.2,1.3,7.20859,46.85581,return,5.60498349997215,,,,,,,3,23,female,up_down_width,2023_Aug_14_1422,exp1,2021.2.3,60.00470434875859,
,,,,,,,,,,,,,,,,4,9.25,9.75,10.25,10.75,0,0.5,0.09999999999999998,0.4,1.9,10,initial,36.05,333,351,370,388,0,9,9,9,9,0,,,,,0,0,0,0,0,15,15,22,,,,,num_4,2.0932255000807345,num_4,0.3,1.3,0.3,0.6,10.81288,21.62576,return,3.3685012999922037,,,,,,,3,23,female,up_down_width,2023_Aug_14_1422,exp1,2021.2.3,60.00470434875859,
,,,,,,,,,,,,,,,,3,9.3,10,10.7,0,0,0.7,0.29999999999999993,0.4,1.8,10,initial,36.05,335,361,386,0,0,9,9,9,0,0,,,,,0,0,0,0,0,16,16,10,,,,,num_3,1.2042213999666274,num_3,0.25,1,0.39999999999999997,0.85,14.41717,30.63649,return,3.8750690000597388,,,,,,,3,23,female,up_down_width,2023_Aug_14_1422,exp1,2021.2.3,60.00470434875859,
,,,,,,,,,,,,,,,,5,9.175,9.5875,10,10.4125,10.825,0.4125,0.16249999999999998,0.25,1.9,10,match,36.05,331,346,361,375,390,9,9,9,9,9,,,,,0,0,0,0,0,17,17,23,,,,,num_4,1.1822220999747515,num_4,0.2,1.1,0.2,0.6,7.20859,21.62576,return,3.71123080002144,,,,,,,3,23,female,up_down_width,2023_Aug_14_1422,exp1,2021.2.3,60.00470434875859,
,,,,,,,,,,,,,,,,5,9.25,9.625,10,10.375,10.75,0.375,0.275,0.1,1.6,10,match,36.05,333,347,361,374,388,9,9,9,9,9,,,,,0,0,0,0,0,18,18,19,,,,,num_4,2.1022745999507606,num_4,0.15,0.5,0.15,0.6,5.40644,21.62576,return,2.5927101999986917,,,,,,,3,23,female,up_down_width,2023_Aug_14_1422,exp1,2021.2.3,60.00470434875859,
,,,,,,,,,,,,,,,,5,8.65,9.325,10,10.675,11.35,0.6749999999999999,0.575,0.1,2.8,10,match,36.05,312,336,361,385,409,9,9,9,9,9,,,,,0,0,0,0,0,19,19,31,,,,,num_5,1.2863985998556018,num_5,0.2,0.6,0.10000000000000002,0.65,3.60429,23.4279,return,3.3270527999848127,,,,,,,3,23,female,up_down_width,2023_Aug_14_1422,exp1,2021.2.3,60.00470434875859,
,,,,,,,,,,,,,,,,4,9.1,9.7,10.3,10.9,0,0.6,0.5,0.1,1.9,10,match,36.05,328,350,371,393,0,9,9,9,9,0,,,,,0,0,0,0,0,20,20,13,,,,,num_4,1.3210433998610824,num_4,0.15,0.9,0.09999999999999999,0.6,3.60429,21.62576,return,4.3064162998925894,,,,,,,3,23,female,up_down_width,2023_Aug_14_1422,exp1,2021.2.3,60.00470434875859,
,,,,,,,,,,,,,,,,3,9.1,10,10.9,0,0,0.9,0.8,0.1,1.9000000000000001,10,initial,36.05,328,361,393,0,0,9,9,9,0,0,,,,,0,0,0,0,0,21,21,12,,,,,num_3,1.054998999927193,num_3,0.1,1.2,0.1,1.25,3.60429,45.05366,return,2.5308674999978393,,,,,,,3,23,female,up_down_width,2023_Aug_14_1422,exp1,2021.2.3,60.00470434875859,
,,,,,,,,,,,,,,,,5,8.95,9.475,10,10.525,11.05,0.525,0.42500000000000004,0.1,2.2,10,match,36.05,323,342,361,379,398,9,9,9,9,9,,,,,0,0,0,0,0,22,22,25,,,,,num_5,2.8631766999606043,num_5,0.1,0.4,0.1,0.55,3.60429,19.82361,return,5.592450500000268,,,,,,,3,23,female,up_down_width,2023_Aug_14_1422,exp1,2021.2.3,60.00470434875859,
,,,,,,,,,,,,,,,,4,9.25,9.75,10.25,10.75,0,0.5,0.4,0.1,1.6,10,initial,36.05,333,351,370,388,0,9,9,9,9,0,,,,,0,0,0,0,0,23,23,18,,,,,num_4,1.2445604000240564,num_4,0.1,1.1,0.1,0.5,3.60429,18.02146,return,3.6422135001048446,,,,,,,3,23,female,up_down_width,2023_Aug_14_1422,exp1,2021.2.3,60.00470434875859,
,,,,,,,,,,,,,,,,5,8.65,9.325,10,10.675,11.35,0.675,0.275,0.4,3.1,10,match,36.05,312,336,361,385,409,9,9,9,9,9,,,,,0,0,0,0,0,24,24,35,,,,,num_5,2.286414099857211,num_5,0.1,1.1,0.35,0.6,12.61502,21.62576,return,5.518982900073752,,,,,,,3,23,female,up_down_width,2023_Aug_14_1422,exp1,2021.2.3,60.00470434875859,
,,,,,,,,,,,,,,,,4,8.95,9.65,10.35,11.05,0,0.7,0.44999999999999996,0.25,2.3499999999999996,10,initial,36.05,323,348,373,398,0,9,9,9,9,0,,,,,0,0,0,0,0,25,25,26,,,,,num_4,1.4942654999904335,num_4,0.35,0.4,0.15000000000000002,0.7,5.40644,25.23005,return,3.673961300170049,,,,,,,3,23,female,up_down_width,2023_Aug_14_1422,exp1,2021.2.3,60.00470434875859,
,,,,,,,,,,,,,,,,3,9.5,10,10.5,0,0,0.5,0.4,0.1,1.1,10,initial,36.05,342,361,379,0,0,9,9,9,0,0,,,,,0,0,0,0,0,26,26,0,,,,,num_2,1.7263742999639362,num_2,0.1,1.6,0.1,0.6,3.60429,21.62576,return,3.592247399967164,,,,,,,3,23,female,up_down_width,2023_Aug_14_1422,exp1,2021.2.3,60.00470434875859,
,,,,,,,,,,,,,,,,5,8.2,9.1,10,10.9,11.8,0.9,0.5,0.4,4,10,initial,36.05,296,328,361,393,425,9,9,9,9,9,,,,,0,0,0,0,0,27,27,52,,,,,num_6,1.5890945999417454,num_6,0.15,1.3,0.35,0.8,12.61502,28.83434,return,5.346061900025234,,,,,,,3,23,female,up_down_width,2023_Aug_14_1422,exp1,2021.2.3,60.00470434875859,
,,,,,,,,,,,,,,,,5,8.65,9.325,10,10.675,11.35,0.675,0.42500000000000004,0.25,2.95,10,match,36.05,312,336,361,385,409,9,9,9,9,9,,,,,0,0,0,0,0,28,28,33,,,,,num_5,1.7668516000267118,num_5,0.35,0.5,0.2,0.85,7.20859,30.63649,return,3.664127199910581,,,,,,,3,23,female,up_down_width,2023_Aug_14_1422,exp1,2021.2.3,60.00470434875859,
,,,,,,,,,,,,,,,,4,9.25,9.75,10.25,10.75,0,0.5,0.25,0.25,1.75,10,initial,36.05,333,351,370,388,0,9,9,9,9,0,,,,,0,0,0,0,0,29,29,20,,,,,num_4,2.3195738000795245,num_4,0.25,0.4,0.15000000000000002,0.6,5.40644,21.62576,return,3.3278053000103682,,,,,,,3,23,female,up_down_width,2023_Aug_14_1422,exp1,2021.2.3,60.00470434875859,
,,,,,,,,,,,,,,,,3,8.2,10,11.8,0,0,1.8000000000000003,1.7000000000000002,0.1,3.7,10,match,36.05,296,361,425,0,0,9,9,9,0,0,,,,,0,0,0,0,0,30,30,49,,,,,num_3,1.9892374998889863,num_3,0.4,0.7,0.05000000000000007,1.0,1.80215,36.04293,return,4.501931000035256,,,,,,,3,23,female,up_down_width,2023_Aug_14_1422,exp1,2021.2.3,60.00470434875859,
,,,,,,,,,,,,,,,,4,9.5,9.833333333333334,10.166666666666666,10.5,0,0.33333333333333337,0.23333333333333336,0.1,1.1,10,match,36.05,342,354,367,379,0,9,9,9,9,0,,,,,0,0,0,0,0,31,31,1,,,,,num_3,2.5669619999825954,num_3,0.45,1,0.10000000000000007,0.5,3.60429,18.02146,return,10.543418199988082,,,,,,,3,23,female,up_down_width,2023_Aug_14_1422,exp1,2021.2.3,60.00470434875859,
,,,,,,,,,,,,,,,,4,9.3,9.766666666666667,10.233333333333333,10.7,0,0.4666666666666667,0.06666666666666665,0.4,1.8,10,match,36.05,335,352,369,386,0,9,9,9,9,0,,,,,0,0,0,0,0,32,32,11,,,,,num_3,2.322271600132808,num_3,0.2,0.8,0.2,0.35,7.20859,12.61502,return,3.058828900102526,,,,,,,3,23,female,up_down_width,2023_Aug_14_1422,exp1,2021.2.3,60.00470434875859,
,,,,,,,,,,,,,,,,3,8.525,10,11.475,0,0,1.475,1.225,0.25,3.2,10,match,36.05,307,361,414,0,0,9,9,9,0,0,,,,,0,0,0,0,0,33,33,47,,,,,num_3,1.0202997999731451,num_3,0.25,0.4,0.25,1.2,9.01073,43.25151,return,5.9038790999911726,,,,,,,3,23,female,up_down_width,2023_Aug_14_1422,exp1,2021.2.3,60.00470434875859,
,,,,,,,,,,,,,,,,3,9.1,10,10.9,0,0,0.9,0.65,0.25,2.05,10,initial,36.05,328,361,393,0,0,9,9,9,0,0,,,,,0,0,0,0,0,34,34,14,,,,,num_3,0.9681657999753952,num_3,0.45,0.6,0.25000000000000006,1.05,9.01073,37.84507,return,5.217122899834067,,,,,,,3,23,female,up_down_width,2023_Aug_14_1422,exp1,2021.2.3,60.00470434875859,
,,,,,,,,,,,,,,,,3,9,10,11,0,0,1,0.9,0.1,2.1,10,match,36.05,324,361,397,0,0,9,9,9,0,0,,,,,0,0,0,0,0,35,35,37,,,,,num_3,1.0103746000677347,num_3,0.35,0.7,0.10000000000000002,1.05,3.60429,37.84507,return,6.008433599956334,,,,,,,3,23,female,up_down_width,2023_Aug_14_1422,exp1,2021.2.3,60.00470434875859,
,,,,,,,,,,,,,,,,5,8.6,9.3,10,10.7,11.4,0.7,0.44999999999999996,0.25,3.05,10,initial,36.05,310,335,361,386,411,9,9,9,9,9,,,,,0,0,0,0,0,36,36,44,,,,,num_5,1.304792399983853,num_5,0.1,1.2,0.15000000000000002,0.85,5.40644,30.63649,return,4.675265799975023,,,,,,,3,23,female,up_down_width,2023_Aug_14_1422,exp1,2021.2.3,60.00470434875859,
,,,,,,,,,,,,,,,,3,9.1,10,10.9,0,0,0.9,0.5,0.4,2.2,10,initial,36.05,328,361,393,0,0,9,9,9,0,0,,,,,0,0,0,0,0,37,37,16,,,,,num_3,1.0138294999487698,num_3,0.15,0.8,0.3,1.15,10.81288,41.44937,return,3.1012742000166327,,,,,,,3,23,female,up_down_width,2023_Aug_14_1422,exp1,2021.2.3,60.00470434875859,
,,,,,,,,,,,,,,,,5,9.25,9.625,10,10.375,10.75,0.375,0.125,0.25,1.75,10,match,36.05,333,347,361,374,388,9,9,9,9,9,,,,,0,0,0,0,0,38,38,21,,,,,num_4,1.1971213000360876,num_4,0.3,0.5,0.25,0.5,9.01073,18.02146,return,2.97360650007613,,,,,,,3,23,female,up_down_width,2023_Aug_14_1422,exp1,2021.2.3,60.00470434875859,
,,,,,,,,,,,,,,,,4,9.5,9.833333333333334,10.166666666666666,10.5,0,0.3333333333333333,0.08333333333333333,0.25,1.25,10,match,36.05,342,354,367,379,0,9,9,9,9,0,,,,,0,0,0,0,0,39,39,3,,,,,num_4,1.5597517001442611,num_4,0.4,0.6,0.20000000000000007,0.4,7.20859,14.41717,return,3.1894999998621643,,,,,,,3,23,female,up_down_width,2023_Aug_14_1422,exp1,2021.2.3,60.00470434875859,
,,,,,,,,,,,,,,,,3,9,10,11,0,0,0.9999999999999999,0.5999999999999999,0.4,2.4,10,match,36.05,324,361,397,0,0,9,9,9,0,0,,,,,0,0,0,0,0,40,40,41,,,,,num_4,2.8169354000128806,num_4,0.25,0.6,0.3,0.7,10.81288,25.23005,return,2.7356675998307765,,,,,,,3,23,female,up_down_width,2023_Aug_14_1422,exp1,2021.2.3,60.00470434875859,
,,,,,,,,,,,,,,,,5,8.2,9.1,10,10.9,11.8,0.9,0.8,0.1,3.7,10,initial,36.05,296,328,361,393,425,9,9,9,9,9,,,,,0,0,0,0,0,41,41,48,,,,,num_5,1.6910844999365509,num_5,0.1,0.5,0.1,0.75,3.60429,27.0322,return,2.1157782999798656,,,,,,,3,23,female,up_down_width,2023_Aug_14_1422,exp1,2021.2.3,60.00470434875859,
,,,,,,,,,,,,,,,,4,9.3,9.766666666666667,10.233333333333333,10.7,0,0.4666666666666667,0.3666666666666667,0.1,1.5,10,match,36.05,335,352,369,386,0,9,9,9,9,0,,,,,0,0,0,0,0,42,42,7,,,,,num_3,1.7862906998489052,num_3,0.35,1.3,0.10000000000000002,0.7,3.60429,25.23005,return,4.590885999845341,,,,,,,3,23,female,up_down_width,2023_Aug_14_1422,exp1,2021.2.3,60.00470434875859,
,,,,,,,,,,,,,,,,3,9.3,10,10.7,0,0,0.7,0.44999999999999996,0.25,1.65,10,initial,36.05,335,361,386,0,0,9,9,9,0,0,,,,,0,0,0,0,0,43,43,8,,,,,num_3,1.1105694000143558,num_3,0.3,0.8,0.15000000000000002,0.85,5.40644,30.63649,return,3.542751400033012,,,,,,,3,23,female,up_down_width,2023_Aug_14_1422,exp1,2021.2.3,60.00470434875859,
,,,,,,,,,,,,,,,,5,8.95,9.475,10,10.525,11.05,0.525,0.275,0.25,2.35,10,match,36.05,323,342,361,379,398,9,9,9,9,9,,,,,0,0,0,0,0,44,44,27,,,,,num_5,1.1318300000857562,num_5,0.15,0.7,0.15,0.7,5.40644,25.23005,return,0.986714500002563,,,,,,,3,23,female,up_down_width,2023_Aug_14_1422,exp1,2021.2.3,60.00470434875859,
,,,,,,,,,,,,,,,,3,8.6,10,11.4,0,0,1.4,1.2999999999999998,0.1,2.9,10,match,36.05,310,361,411,0,0,9,9,9,0,0,,,,,0,0,0,0,0,45,45,43,,,,,num_3,0.9822285999543965,num_3,0.1,0.9,0.1,1.25,3.60429,45.05366,return,2.414856099989265,,,,,,,3,23,female,up_down_width,2023_Aug_14_1422,exp1,2021.2.3,60.00470434875859,
,,,,,,,,,,,,,,,,4,8.65,9.55,10.45,11.35,0,0.9,0.65,0.25,2.95,10,initial,36.05,312,344,377,409,0,9,9,9,9,0,,,,,0,0,0,0,0,46,46,32,,,,,num_4,0.9226186000742018,num_4,0.2,0.7,0.10000000000000002,1.0,3.60429,36.04293,return,3.2188107999973,,,,,,,3,23,female,up_down_width,2023_Aug_14_1422,exp1,2021.2.3,60.00470434875859,
,,,,,,,,,,,,,,,,4,8.65,9.55,10.45,11.35,0,0.9,0.5,0.4,3.1,10,initial,36.05,312,344,377,409,0,9,9,9,9,0,,,,,0,0,0,0,0,47,47,34,,,,,num_4,1.7322708000428975,num_4,0.3,1.3,0.3,0.9,10.81288,32.43864,return,2.575292799854651,,,,,,,3,23,female,up_down_width,2023_Aug_14_1422,exp1,2021.2.3,60.00470434875859,
,,,,,,,,,,,,,,,,3,9.5,10,10.5,0,0,0.5,0.25,0.25,1.25,10,initial,36.05,342,361,379,0,0,9,9,9,0,0,,,,,0,0,0,0,0,48,48,2,,,,,num_3,1.0816739001311362,num_3,0.15,0.4,0.25,0.7,9.01073,25.23005,return,4.107670299941674,,,,,,,3,23,female,up_down_width,2023_Aug_14_1422,exp1,2021.2.3,60.00470434875859,
,,,,,,,,,,,,,,,,3,9.5,10,10.5,0,0,0.5,0.09999999999999998,0.4,1.4000000000000001,10,initial,36.05,342,361,379,0,0,9,9,9,0,0,,,,,0,0,0,0,0,49,49,4,,,,,num_2,1.263568599941209,num_2,0.25,1.6,0.25,0.6,9.01073,21.62576,return,4.5574745000340044,,,,,,,3,23,female,up_down_width,2023_Aug_14_1422,exp1,2021.2.3,60.00470434875859,
,,,,,,,,,,,,,,,,4,9.3,9.766666666666667,10.233333333333333,10.7,0,0.4666666666666667,0.21666666666666665,0.25,1.65,10,match,36.05,335,352,369,386,0,9,9,9,9,0,,,,,0,0,0,0,0,50,50,9,,,,,num_4,1.9421683000400662,num_4,0.3,0.9,0.2,0.5,7.20859,18.02146,return,2.772863900056109,,,,,,,3,23,female,up_down_width,2023_Aug_14_1422,exp1,2021.2.3,60.00470434875859,
,,,,,,,,,,,,,,,,5,8.2,9.1,10,10.9,11.8,0.9,0.65,0.25,3.85,10,initial,36.05,296,328,361,393,425,9,9,9,9,9,,,,,0,0,0,0,0,51,51,50,,,,,num_5,1.1792095999699086,num_5,0.2,0.4,0.2,0.85,7.20859,30.63649,return,3.6265968999359757,,,,,,,3,23,female,up_down_width,2023_Aug_14_1422,exp1,2021.2.3,60.00470434875859,
,,,,,,,,,,,,,,,,3,9.3,10,10.7,0,0,0.7,0.6,0.1,1.5,10,initial,36.05,335,361,386,0,0,9,9,9,0,0,,,,,0,0,0,0,0,52,52,6,,,,,num_2,1.1062723998911679,num_2,0.15,1.6,0.15,1.2,5.40644,43.25151,return,1.858332300093025,,,,,,,3,23,female,up_down_width,2023_Aug_14_1422,exp1,2021.2.3,60.00470434875859,
,,,,,,,,,,,,,,,,5,8.6,9.3,10,10.7,11.4,0.7,0.6,0.1,2.9,10,initial,36.05,310,335,361,386,411,9,9,9,9,9,,,,,0,0,0,0,0,53,53,42,,,,,num_5,1.2132860999554396,num_5,0.1,1.1,0.1,0.95,3.60429,34.24078,return,3.210141899995506,,,,,,,3,23,female,up_down_width,2023_Aug_14_1422,exp1,2021.2.3,60.00470434875859,
,,,,,,,,,,,,,,,,,,,,,,,,,,,,,,,,,,,,,,,,,,,0,0,0,0,,,,,,,,,,,,,,,,,,,,,,648.3484080999624,None,648.3484080999624,None,3,23,female,up_down_width,2023_Aug_14_1422,exp1,2021.2.3,60.00470434875859,
,,,,,,,,,,,,,,,,3,9,10,11,0,0,1,0.9,0.1,2.1,10,match,36.05,324,361,397,0,0,9,9,9,0,0,,,,,1,0,1,0,0,0,0,37,,,,,num_3,1.1542193999048322,num_3,0.25,0.8,0.15000000000000002,1.0,5.40644,36.04293,return,2.146386899985373,,,,,,,3,23,female,up_down_width,2023_Aug_14_1422,exp1,2021.2.3,60.00470434875859,
,,,,,,,,,,,,,,,,5,8.6,9.3,10,10.7,11.4,0.7,0.6,0.1,2.9,10,initial,36.05,310,335,361,386,411,9,9,9,9,9,,,,,1,0,1,0,0,1,1,42,,,,,num_5,1.0233871000818908,num_5,0.15,0.8,0.09999999999999999,0.9,3.60429,32.43864,return,3.14123270008713,,,,,,,3,23,female,up_down_width,2023_Aug_14_1422,exp1,2021.2.3,60.00470434875859,
,,,,,,,,,,,,,,,,4,8.65,9.55,10.45,11.35,0,0.9,0.5,0.4,3.1,10,initial,36.05,312,344,377,409,0,9,9,9,9,0,,,,,1,0,1,0,0,2,2,34,,,,,num_4,0.9931458001956344,num_4,0.3,1.0,0.3,1.0,10.81288,36.04293,return,1.048965899972245,,,,,,,3,23,female,up_down_width,2023_Aug_14_1422,exp1,2021.2.3,60.00470434875859,
,,,,,,,,,,,,,,,,3,8.2,10,11.8,0,0,1.8,1.55,0.25,3.85,10,match,36.05,296,361,425,0,0,9,9,9,0,0,,,,,1,0,1,0,0,3,3,51,,,,,num_3,1.0670022999402136,num_3,0.3,0.9,0.2,1.25,7.20859,45.05366,return,6.7678365998435766,,,,,,,3,23,female,up_down_width,2023_Aug_14_1422,exp1,2021.2.3,60.00470434875859,
,,,,,,,,,,,,,,,,4,9.3,9.766666666666667,10.233333333333333,10.7,0,0.4666666666666667,0.3666666666666667,0.1,1.5,10,match,36.05,335,352,369,386,0,9,9,9,9,0,,,,,1,0,1,0,0,4,4,7,,,,,num_3,1.0857995999976993,num_3,0.35,0.5,0.15000000000000002,0.5,5.40644,18.02146,return,2.4493762999773026,,,,,,,3,23,female,up_down_width,2023_Aug_14_1422,exp1,2021.2.3,60.00470434875859,
,,,,,,,,,,,,,,,,4,8.65,9.55,10.45,11.35,0,0.9,0.65,0.25,2.95,10,initial,36.05,312,344,377,409,0,9,9,9,9,0,,,,,1,0,1,0,0,5,5,32,,,,,num_4,1.9759112999308854,num_4,0.3,1.3,0.2,1.0,7.20859,36.04293,return,4.198688999982551,,,,,,,3,23,female,up_down_width,2023_Aug_14_1422,exp1,2021.2.3,60.00470434875859,
,,,,,,,,,,,,,,,,3,9.3,10,10.7,0,0,0.7,0.44999999999999996,0.25,1.65,10,initial,36.05,335,361,386,0,0,9,9,9,0,0,,,,,1,0,1,0,0,6,6,8,,,,,num_3,0.9305302000138909,num_3,0.15,0.3,0.25,0.65,9.01073,23.4279,return,2.893388899974525,,,,,,,3,23,female,up_down_width,2023_Aug_14_1422,exp1,2021.2.3,60.00470434875859,
,,,,,,,,,,,,,,,,4,9.25,9.75,10.25,10.75,0,0.5,0.09999999999999998,0.4,1.9,10,initial,36.05,333,351,370,388,0,9,9,9,9,0,,,,,1,0,1,0,0,7,7,22,,,,,num_4,1.168999999994412,num_4,0.3,1.2,0.3,0.4,10.81288,14.41717,return,2.6717425000388175,,,,,,,3,23,female,up_down_width,2023_Aug_14_1422,exp1,2021.2.3,60.00470434875859,
,,,,,,,,,,,,,,,,5,8.6,9.3,10,10.7,11.4,0.7,0.29999999999999993,0.4,3.1999999999999997,10,initial,36.05,310,335,361,386,411,9,9,9,9,9,,,,,1,0,1,0,0,8,8,46,,,,,num_5,0.9202984999865294,num_5,0.4,0.8,0.4,0.7,14.41717,25.23005,return,2.0799481000285596,,,,,,,3,23,female,up_down_width,2023_Aug_14_1422,exp1,2021.2.3,60.00470434875859,
,,,,,,,,,,,,,,,,4,9.5,9.833333333333334,10.166666666666666,10.5,0,0.33333333333333337,0.23333333333333336,0.1,1.1,10,match,36.05,342,354,367,379,0,9,9,9,9,0,,,,,1,0,1,0,0,9,9,1,,,,,num_3,0.8798173000104725,num_3,0.1,0.4,0.1,0.4,3.60429,14.41717,return,2.170640700031072,,,,,,,3,23,female,up_down_width,2023_Aug_14_1422,exp1,2021.2.3,60.00470434875859,
,,,,,,,,,,,,,,,,3,9.5,10,10.5,0,0,0.5,0.25,0.25,1.25,10,initial,36.05,342,361,379,0,0,9,9,9,0,0,,,,,1,0,1,0,0,10,10,2,,,,,num_3,1.2232697999570519,num_3,0.25,0.6,0.2,0.55,7.20859,19.82361,return,2.4503200000617653,,,,,,,3,23,female,up_down_width,2023_Aug_14_1422,exp1,2021.2.3,60.00470434875859,
,,,,,,,,,,,,,,,,4,9.1,9.7,10.3,10.9,0,0.5999999999999999,0.3499999999999999,0.25,2.05,10,match,36.05,328,350,371,393,0,9,9,9,9,0,,,,,1,0,1,0,0,11,11,15,,,,,num_4,0.9977512999903411,num_4,0.15,0.5,0.2,0.6,7.20859,21.62576,return,2.027963100001216,,,,,,,3,23,female,up_down_width,2023_Aug_14_1422,exp1,2021.2.3,60.00470434875859,
,,,,,,,,,,,,,,,,3,9.3,10,10.7,0,0,0.7,0.6,0.1,1.5,10,initial,36.05,335,361,386,0,0,9,9,9,0,0,,,,,1,0,1,0,0,12,12,6,,,,,num_3,0.8622959000058472,num_3,0.1,0.5,0.1,0.7,3.60429,25.23005,return,1.9115413001272827,,,,,,,3,23,female,up_down_width,2023_Aug_14_1422,exp1,2021.2.3,60.00470434875859,
,,,,,,,,,,,,,,,,3,9.1,10,10.9,0,0,0.9,0.8,0.1,1.9000000000000001,10,initial,36.05,328,361,393,0,0,9,9,9,0,0,,,,,1,0,1,0,0,13,13,12,,,,,num_3,1.6717687000054866,num_3,0.15,0.9,0.15,1.15,5.40644,41.44937,return,1.8917015998158604,,,,,,,3,23,female,up_down_width,2023_Aug_14_1422,exp1,2021.2.3,60.00470434875859,
,,,,,,,,,,,,,,,,4,8.95,9.65,10.35,11.05,0,0.7,0.6,0.1,2.1999999999999997,10,initial,36.05,323,348,373,398,0,9,9,9,9,0,,,,,1,0,1,0,0,14,14,24,,,,,num_4,0.8582623999100178,num_4,0.3,0.6,0.10000000000000002,0.8,3.60429,28.83434,return,3.0310450000688434,,,,,,,3,23,female,up_down_width,2023_Aug_14_1422,exp1,2021.2.3,60.00470434875859,
,,,,,,,,,,,,,,,,4,9.425,9.808333333333334,10.191666666666666,10.575,0,0.3833333333333333,0.1333333333333333,0.25,1.4,10,match,36.05,340,354,367,381,0,9,9,9,9,0,,,,,1,0,1,0,0,15,15,5,,,,,num_4,1.7329622998367995,num_4,0.25,1.2,0.10000000000000002,0.5,3.60429,18.02146,return,5.4366562000941485,,,,,,,3,23,female,up_down_width,2023_Aug_14_1422,exp1,2021.2.3,60.00470434875859,
,,,,,,,,,,,,,,,,3,9,10,11,0,0,0.9999999999999999,0.5999999999999999,0.4,2.4,10,match,36.05,324,361,397,0,0,9,9,9,0,0,,,,,1,0,1,0,0,16,16,41,,,,,num_3,0.9015049000736326,num_3,0.45,1.3,0.45,1.3,16.21932,46.85581,return,1.9208378999028355,,,,,,,3,23,female,up_down_width,2023_Aug_14_1422,exp1,2021.2.3,60.00470434875859,
,,,,,,,,,,,,,,,,3,9.5,10,10.5,0,0,0.5,0.09999999999999998,0.4,1.4000000000000001,10,initial,36.05,342,361,379,0,0,9,9,9,0,0,,,,,1,0,1,0,0,17,17,4,,,,,num_2,0.8971394998952746,num_2,0.3,1.6,0.3,0.6,10.81288,21.62576,return,2.6987281998153776,,,,,,,3,23,female,up_down_width,2023_Aug_14_1422,exp1,2021.2.3,60.00470434875859,
,,,,,,,,,,,,,,,,4,9.25,9.75,10.25,10.75,0,0.5,0.4,0.1,1.6,10,initial,36.05,333,351,370,388,0,9,9,9,9,0,,,,,1,0,1,0,0,18,18,18,,,,,num_4,1.1331278998404741,num_4,0.2,1.0,0.10000000000000002,0.5,3.60429,18.02146,return,3.6631201999261975,,,,,,,3,23,female,up_down_width,2023_Aug_14_1422,exp1,2021.2.3,60.00470434875859,
,,,,,,,,,,,,,,,,5,9.175,9.5875,10,10.4125,10.825,0.4125,0.16249999999999998,0.25,1.9,10,match,36.05,331,346,361,375,390,9,9,9,9,9,,,,,1,0,1,0,0,19,19,23,,,,,num_3,1.2829156001098454,num_3,0.4,0.7,0.25000000000000006,0.7,9.01073,25.23005,return,3.920023300219327,,,,,,,3,23,female,up_down_width,2023_Aug_14_1422,exp1,2021.2.3,60.00470434875859,
,,,,,,,,,,,,,,,,5,8.65,9.325,10,10.675,11.35,0.675,0.42500000000000004,0.25,2.95,10,match,36.05,312,336,361,385,409,9,9,9,9,9,,,,,1,0,1,0,0,20,20,33,,,,,num_5,0.9689307999797165,num_5,0.4,0.9,0.25000000000000006,0.7,9.01073,25.23005,return,3.374791899928823,,,,,,,3,23,female,up_down_width,2023_Aug_14_1422,exp1,2021.2.3,60.00470434875859,
,,,,,,,,,,,,,,,,5,8.6,9.3,10,10.7,11.4,0.7,0.44999999999999996,0.25,3.05,10,initial,36.05,310,335,361,386,411,9,9,9,9,9,,,,,1,0,1,0,0,21,21,44,,,,,num_5,1.0105105000548065,num_5,0.45,1.2,0.25000000000000006,0.85,9.01073,30.63649,return,3.6731988000683486,,,,,,,3,23,female,up_down_width,2023_Aug_14_1422,exp1,2021.2.3,60.00470434875859,
,,,,,,,,,,,,,,,,4,9.3,9.766666666666667,10.233333333333333,10.7,0,0.4666666666666667,0.21666666666666665,0.25,1.65,10,match,36.05,335,352,369,386,0,9,9,9,9,0,,,,,1,0,1,0,0,22,22,9,,,,,num_3,1.3425241000950336,num_3,0.15,1.2,0.15,0.65,5.40644,23.4279,return,9.191828900016844,,,,,,,3,23,female,up_down_width,2023_Aug_14_1422,exp1,2021.2.3,60.00470434875859,
,,,,,,,,,,,,,,,,4,9.1,9.7,10.3,10.9,0,0.6000000000000001,0.20000000000000004,0.4,2.2,10,match,36.05,328,350,371,393,0,9,9,9,9,0,,,,,1,0,1,0,0,23,23,17,,,,,num_3,2.248524999944493,num_3,0.1,1.3,0.35,0.7,12.61502,25.23005,return,5.227910800138488,,,,,,,3,23,female,up_down_width,2023_Aug_14_1422,exp1,2021.2.3,60.00470434875859,
,,,,,,,,,,,,,,,,3,9.1,10,10.9,0,0,0.9,0.5,0.4,2.2,10,initial,36.05,328,361,393,0,0,9,9,9,0,0,,,,,1,0,1,0,0,24,24,16,,,,,num_3,0.956866999855265,num_3,0.35,0.7,0.35,1.05,12.61502,37.84507,return,3.331724700052291,,,,,,,3,23,female,up_down_width,2023_Aug_14_1422,exp1,2021.2.3,60.00470434875859,
,,,,,,,,,,,,,,,,3,8.6,10,11.4,0,0,1.4,1.2999999999999998,0.1,2.9,10,match,36.05,310,361,411,0,0,9,9,9,0,0,,,,,1,0,1,0,0,25,25,43,,,,,num_3,0.973562499973923,num_3,0.15,0.3,0.15,1.1,5.40644,39.64722,return,9.73018110007979,,,,,,,3,23,female,up_down_width,2023_Aug_14_1422,exp1,2021.2.3,60.00470434875859,
,,,,,,,,,,,,,,,,3,8.2,10,11.8,0,0,1.7999999999999998,1.4,0.4,4,10,match,36.05,296,361,425,0,0,9,9,9,0,0,,,,,1,0,1,0,0,26,26,53,,,,,num_3,0.896473899949342,num_3,0.45,0.9,0.45,1.8,16.21932,64.87727,return,3.7868051000405103,,,,,,,3,23,female,up_down_width,2023_Aug_14_1422,exp1,2021.2.3,60.00470434875859,
,,,,,,,,,,,,,,,,5,8.2,9.1,10,10.9,11.8,0.9,0.5,0.4,4,10,initial,36.05,296,328,361,393,425,9,9,9,9,9,,,,,1,0,1,0,0,27,27,52,,,,,num_4,1.0451462001074106,num_4,0.15,1.3,0.39999999999999997,1.1,14.41717,39.64722,return,4.874310899991542,,,,,,,3,23,female,up_down_width,2023_Aug_14_1422,exp1,2021.2.3,60.00470434875859,
,,,,,,,,,,,,,,,,5,8.65,9.325,10,10.675,11.35,0.6749999999999999,0.575,0.1,2.8,10,match,36.05,312,336,361,385,409,9,9,9,9,9,,,,,1,0,1,0,0,28,28,31,,,,,num_5,0.9098017001524568,num_5,0.1,0.3,0.1,0.9,3.60429,32.43864,return,3.8167089000344276,,,,,,,3,23,female,up_down_width,2023_Aug_14_1422,exp1,2021.2.3,60.00470434875859,
,,,,,,,,,,,,,,,,3,8.6,10,11.4,0,0,1.4,1.15,0.25,3.05,10,match,36.05,310,361,411,0,0,9,9,9,0,0,,,,,1,0,1,0,0,29,29,45,,,,,num_3,0.8702736000996083,num_3,0.35,0.6,0.2,1.25,7.20859,45.05366,return,4.194528999971226,,,,,,,3,23,female,up_down_width,2023_Aug_14_1422,exp1,2021.2.3,60.00470434875859,
,,,,,,,,,,,,,,,,4,8.95,9.65,10.35,11.05,0,0.7,0.44999999999999996,0.25,2.3499999999999996,10,initial,36.05,323,348,373,398,0,9,9,9,9,0,,,,,1,0,1,0,0,30,30,26,,,,,num_4,1.655191599857062,num_4,0.35,1.0,0.2,1.0,7.20859,36.04293,return,4.978314299834892,,,,,,,3,23,female,up_down_width,2023_Aug_14_1422,exp1,2021.2.3,60.00470434875859,
,,,,,,,,,,,,,,,,3,9,10,11,0,0,1,0.75,0.25,2.25,10,match,36.05,324,361,397,0,0,9,9,9,0,0,,,,,1,0,1,0,0,31,31,39,,,,,num_3,0.9969691000878811,num_3,0.3,1.1,0.3,1.1,10.81288,39.64722,return,1.9316653001587838,,,,,,,3,23,female,up_down_width,2023_Aug_14_1422,exp1,2021.2.3,60.00470434875859,
,,,,,,,,,,,,,,,,5,9,9.5,10,10.5,11,0.5,0.25,0.25,2.25,10,initial,36.05,324,342,361,379,397,9,9,9,9,9,,,,,1,0,1,0,0,32,32,38,,,,,num_4,1.1216935000848025,num_4,0.4,0.8,0.25000000000000006,0.8,9.01073,28.83434,return,4.547126799821854,,,,,,,3,23,female,up_down_width,2023_Aug_14_1422,exp1,2021.2.3,60.00470434875859,
,,,,,,,,,,,,,,,,4,9.1,9.7,10.3,10.9,0,0.6,0.5,0.1,1.9,10,match,36.05,328,350,371,393,0,9,9,9,9,0,,,,,1,0,1,0,0,33,33,13,,,,,num_3,1.258517999900505,num_3,0.15,1.1,0.09999999999999999,1.0,3.60429,36.04293,return,1.8308869998436421,,,,,,,3,23,female,up_down_width,2023_Aug_14_1422,exp1,2021.2.3,60.00470434875859,
,,,,,,,,,,,,,,,,5,8.65,9.325,10,10.675,11.35,0.675,0.275,0.4,3.1,10,match,36.05,312,336,361,385,409,9,9,9,9,9,,,,,1,0,1,0,0,34,34,35,,,,,num_5,0.922468300210312,num_5,0.35,1.3,0.3,0.75,10.81288,27.0322,return,3.139739800011739,,,,,,,3,23,female,up_down_width,2023_Aug_14_1422,exp1,2021.2.3,60.00470434875859,
,,,,,,,,,,,,,,,,5,9.25,9.625,10,10.375,10.75,0.375,0.125,0.25,1.75,10,match,36.05,333,347,361,374,388,9,9,9,9,9,,,,,1,0,1,0,0,35,35,21,,,,,num_5,0.9891770998947322,num_5,0.1,0.9,0.1,0.35,3.60429,12.61502,return,2.995586499804631,,,,,,,3,23,female,up_down_width,2023_Aug_14_1422,exp1,2021.2.3,60.00470434875859,
,,,,,,,,,,,,,,,,3,8.2,10,11.8,0,0,1.8000000000000003,1.7000000000000002,0.1,3.7,10,match,36.05,296,361,425,0,0,9,9,9,0,0,,,,,1,0,1,0,0,36,36,49,,,,,num_3,1.155130400089547,num_3,0.25,0.8,0.10000000000000002,1.2,3.60429,43.25151,return,6.0055225000251085,,,,,,,3,23,female,up_down_width,2023_Aug_14_1422,exp1,2021.2.3,60.00470434875859,
,,,,,,,,,,,,,,,,3,9.5,10,10.5,0,0,0.5,0.4,0.1,1.1,10,initial,36.05,342,361,379,0,0,9,9,9,0,0,,,,,1,0,1,0,0,37,37,0,,,,,num_2,0.8903663998935372,num_2,0.4,1.6,0.10000000000000007,1.2,3.60429,43.25151,return,5.8430922999978065,,,,,,,3,23,female,up_down_width,2023_Aug_14_1422,exp1,2021.2.3,60.00470434875859,
,,,,,,,,,,,,,,,,4,9.5,9.833333333333334,10.166666666666666,10.5,0,0.3333333333333333,0.08333333333333333,0.25,1.25,10,match,36.05,342,354,367,379,0,9,9,9,9,0,,,,,1,0,1,0,0,38,38,3,,,,,num_3,1.1486823000013828,num_3,0.4,1.1,0.20000000000000007,0.45,7.20859,16.21932,return,7.341194899985567,,,,,,,3,23,female,up_down_width,2023_Aug_14_1422,exp1,2021.2.3,60.00470434875859,
,,,,,,,,,,,,,,,,5,9,9.5,10,10.5,11,0.5,0.09999999999999998,0.4,2.4,10,initial,36.05,324,342,361,379,397,9,9,9,9,9,,,,,1,0,1,0,0,39,39,40,,,,,num_5,0.9965162998996675,num_5,0.1,1.3,0.25,0.5,9.01073,18.02146,return,7.1949032000266016,,,,,,,3,23,female,up_down_width,2023_Aug_14_1422,exp1,2021.2.3,60.00470434875859,
,,,,,,,,,,,,,,,,5,8.95,9.475,10,10.525,11.05,0.525,0.125,0.4,2.5,10,match,36.05,323,342,361,379,398,9,9,9,9,9,,,,,1,0,1,0,0,40,40,29,,,,,num_4,1.0585576000157744,num_4,0.3,1.1,0.3,0.6,10.81288,21.62576,return,2.6604121001437306,,,,,,,3,23,female,up_down_width,2023_Aug_14_1422,exp1,2021.2.3,60.00470434875859,
,,,,,,,,,,,,,,,,5,9.25,9.625,10,10.375,10.75,0.375,0.275,0.1,1.6,10,match,36.05,333,347,361,374,388,9,9,9,9,9,,,,,1,0,1,0,0,41,41,19,,,,,num_3,1.0209355000406504,num_3,0.45,1.2,0.15000000000000008,0.5,5.40644,18.02146,return,6.754674199968576,,,,,,,3,23,female,up_down_width,2023_Aug_14_1422,exp1,2021.2.3,60.00470434875859,
,,,,,,,,,,,,,,,,5,8.95,9.475,10,10.525,11.05,0.525,0.42500000000000004,0.1,2.2,10,match,36.05,323,342,361,379,398,9,9,9,9,9,,,,,1,0,1,0,0,42,42,25,,,,,num_5,1.0029807998798788,num_5,0.3,0.9,0.15000000000000002,0.65,5.40644,23.4279,return,6.193009200040251,,,,,,,3,23,female,up_down_width,2023_Aug_14_1422,exp1,2021.2.3,60.00470434875859,
,,,,,,,,,,,,,,,,4,8.95,9.65,10.35,11.05,0,0.7,0.29999999999999993,0.4,2.5,10,initial,36.05,323,348,373,398,0,9,9,9,9,0,,,,,1,0,1,0,0,43,43,28,,,,,num_4,1.1067518999334425,num_4,0.25,0.5,0.25,0.7,9.01073,25.23005,return,2.085854900069535,,,,,,,3,23,female,up_down_width,2023_Aug_14_1422,exp1,2021.2.3,60.00470434875859,
,,,,,,,,,,,,,,,,5,8.2,9.1,10,10.9,11.8,0.9,0.8,0.1,3.7,10,initial,36.05,296,328,361,393,425,9,9,9,9,9,,,,,1,0,1,0,0,44,44,48,,,,,num_6,1.010479599935934,num_6,0.1,1.0,0.1,0.9,3.60429,32.43864,return,2.026110599981621,,,,,,,3,23,female,up_down_width,2023_Aug_14_1422,exp1,2021.2.3,60.00470434875859,
,,,,,,,,,,,,,,,,3,9.1,10,10.9,0,0,0.9,0.65,0.25,2.05,10,initial,36.05,328,361,393,0,0,9,9,9,0,0,,,,,1,0,1,0,0,45,45,14,,,,,num_3,1.4323040000163019,num_3,0.4,1.1,0.20000000000000007,0.95,7.20859,34.24078,return,2.875813900027424,,,,,,,3,23,female,up_down_width,2023_Aug_14_1422,exp1,2021.2.3,60.00470434875859,
,,,,,,,,,,,,,,,,4,9.3,9.766666666666667,10.233333333333333,10.7,0,0.4666666666666667,0.06666666666666665,0.4,1.8,10,match,36.05,335,352,369,386,0,9,9,9,9,0,,,,,1,0,1,0,0,46,46,11,,,,,num_3,1.2299075999762863,num_3,0.25,1,0.3,0.45,10.81288,16.21932,return,7.739019299857318,,,,,,,3,23,female,up_down_width,2023_Aug_14_1422,exp1,2021.2.3,60.00470434875859,
,,,,,,,,,,,,,,,,5,8.95,9.475,10,10.525,11.05,0.525,0.275,0.25,2.35,10,match,36.05,323,342,361,379,398,9,9,9,9,9,,,,,1,0,1,0,0,47,47,27,,,,,num_4,1.52675939979963,num_4,0.45,1.3,0.30000000000000004,0.6,10.81288,21.62576,return,5.973909199936315,,,,,,,3,23,female,up_down_width,2023_Aug_14_1422,exp1,2021.2.3,60.00470434875859,
,,,,,,,,,,,,,,,,5,8.2,9.1,10,10.9,11.8,0.9,0.65,0.25,3.85,10,initial,36.05,296,328,361,393,425,9,9,9,9,9,,,,,1,0,1,0,0,48,48,50,,,,,num_6,1.1458551997784525,num_6,0.1,0.4,0.3,0.7,10.81288,25.23005,return,7.353907499928027,,,,,,,3,23,female,up_down_width,2023_Aug_14_1422,exp1,2021.2.3,60.00470434875859,
,,,,,,,,,,,,,,,,5,9,9.5,10,10.5,11,0.5,0.4,0.1,2.1,10,initial,36.05,324,342,361,379,397,9,9,9,9,9,,,,,1,0,1,0,0,49,49,36,,,,,num_5,1.157027899986133,num_5,0.35,0.7,0.15000000000000002,0.6,5.40644,21.62576,return,2.709667199989781,,,,,,,3,23,female,up_down_width,2023_Aug_14_1422,exp1,2021.2.3,60.00470434875859,
,,,,,,,,,,,,,,,,4,8.65,9.55,10.45,11.35,0,0.9,0.8,0.1,2.8000000000000003,10,initial,36.05,312,344,377,409,0,9,9,9,9,0,,,,,1,0,1,0,0,50,50,30,,,,,num_5,1.0496158001478761,num_5,0.3,0.9,0.05000000000000002,0.85,1.80215,30.63649,return,4.320637599797919,,,,,,,3,23,female,up_down_width,2023_Aug_14_1422,exp1,2021.2.3,60.00470434875859,
,,,,,,,,,,,,,,,,4,9.25,9.75,10.25,10.75,0,0.5,0.25,0.25,1.75,10,initial,36.05,333,351,370,388,0,9,9,9,9,0,,,,,1,0,1,0,0,51,51,20,,,,,num_3,0.9309654999524355,num_3,0.45,0.6,0.25000000000000006,0.6,9.01073,21.62576,return,1.9657183999661356,,,,,,,3,23,female,up_down_width,2023_Aug_14_1422,exp1,2021.2.3,60.00470434875859,
,,,,,,,,,,,,,,,,3,9.3,10,10.7,0,0,0.7,0.29999999999999993,0.4,1.8,10,initial,36.05,335,361,386,0,0,9,9,9,0,0,,,,,1,0,1,0,0,52,52,10,,,,,num_3,1.479429299943149,num_3,0.2,0.6,0.39999999999999997,0.8,14.41717,28.83434,return,2.9568205000832677,,,,,,,3,23,female,up_down_width,2023_Aug_14_1422,exp1,2021.2.3,60.00470434875859,
,,,,,,,,,,,,,,,,3,8.525,10,11.475,0,0,1.475,1.225,0.25,3.2,10,match,36.05,307,361,414,0,0,9,9,9,0,0,,,,,1,0,1,0,0,53,53,47,,,,,num_3,1.1952168000862002,num_3,0.25,0.6,0.2,1.25,7.20859,45.05366,return,7.226751700043678,,,,,,,3,23,female,up_down_width,2023_Aug_14_1422,exp1,2021.2.3,60.00470434875859,
,,,,,,,,,,,,,,,,,,,,,,,,,,,,,,,,,,,,,,,,,,,1,0,1,0,,,,,,,,,,,,,,,,,,,,,,1086.7953564000782,None,1086.7953564000782,None,3,23,female,up_down_width,2023_Aug_14_1422,exp1,2021.2.3,60.00470434875859,
,,,,,,,,,,,,,,,,3,9.3,10,10.7,0,0,0.7,0.44999999999999996,0.25,1.65,10,initial,36.05,335,361,386,0,0,9,9,9,0,0,,,,,2,0,2,0,0,0,0,8,,,,,num_2,1.0785618000663817,num_2,0.35,1.6,0.3,1.1,10.81288,39.64722,return,3.178263599984348,,,,,,,3,23,female,up_down_width,2023_Aug_14_1422,exp1,2021.2.3,60.00470434875859,
,,,,,,,,,,,,,,,,5,8.65,9.325,10,10.675,11.35,0.675,0.275,0.4,3.1,10,match,36.05,312,336,361,385,409,9,9,9,9,9,,,,,2,0,2,0,0,1,1,35,,,,,num_5,2.3185133999213576,num_5,0.35,1.0,0.35,0.9,12.61502,32.43864,return,2.367110700113699,,,,,,,3,23,female,up_down_width,2023_Aug_14_1422,exp1,2021.2.3,60.00470434875859,
,,,,,,,,,,,,,,,,4,9.1,9.7,10.3,10.9,0,0.6000000000000001,0.20000000000000004,0.4,2.2,10,match,36.05,328,350,371,393,0,9,9,9,9,0,,,,,2,0,2,0,0,2,2,17,,,,,num_3,1.6099066000897437,num_3,0.15,0.4,0.35,0.8,12.61502,28.83434,return,7.800168300047517,,,,,,,3,23,female,up_down_width,2023_Aug_14_1422,exp1,2021.2.3,60.00470434875859,
,,,,,,,,,,,,,,,,3,9.5,10,10.5,0,0,0.5,0.09999999999999998,0.4,1.4000000000000001,10,initial,36.05,342,361,379,0,0,9,9,9,0,0,,,,,2,0,2,0,0,3,3,4,,,,,num_2,0.781160700134933,num_2,0.1,1.6,0.39999999999999997,0.7,14.41717,25.23005,return,6.189886200008914,,,,,,,3,23,female,up_down_width,2023_Aug_14_1422,exp1,2021.2.3,60.00470434875859,
,,,,,,,,,,,,,,,,4,9.25,9.75,10.25,10.75,0,0.5,0.09999999999999998,0.4,1.9,10,initial,36.05,333,351,370,388,0,9,9,9,9,0,,,,,2,0,2,0,0,4,4,22,,,,,num_3,0.9077008999884129,num_3,0.35,1.2,0.35,0.75,12.61502,27.0322,return,4.774555800016969,,,,,,,3,23,female,up_down_width,2023_Aug_14_1422,exp1,2021.2.3,60.00470434875859,
,,,,,,,,,,,,,,,,4,9.5,9.833333333333334,10.166666666666666,10.5,0,0.33333333333333337,0.23333333333333336,0.1,1.1,10,match,36.05,342,354,367,379,0,9,9,9,9,0,,,,,2,0,2,0,0,5,5,1,,,,,num_3,1.0477606998756528,num_3,0.15,0.3,0.15,0.3,5.40644,10.81288,return,2.189210700104013,,,,,,,3,23,female,up_down_width,2023_Aug_14_1422,exp1,2021.2.3,60.00470434875859,
,,,,,,,,,,,,,,,,5,8.65,9.325,10,10.675,11.35,0.675,0.42500000000000004,0.25,2.95,10,match,36.05,312,336,361,385,409,9,9,9,9,9,,,,,2,0,2,0,0,6,6,33,,,,,num_5,1.0939543000422418,num_5,0.1,0.8,0.15000000000000002,0.55,5.40644,19.82361,return,4.905062600038946,,,,,,,3,23,female,up_down_width,2023_Aug_14_1422,exp1,2021.2.3,60.00470434875859,
,,,,,,,,,,,,,,,,5,8.2,9.1,10,10.9,11.8,0.9,0.5,0.4,4,10,initial,36.05,296,328,361,393,425,9,9,9,9,9,,,,,2,0,2,0,0,7,7,52,,,,,num_5,1.0050170999020338,num_5,0.1,0.3,0.3,0.7,10.81288,25.23005,return,4.051649499917403,,,,,,,3,23,female,up_down_width,2023_Aug_14_1422,exp1,2021.2.3,60.00470434875859,
,,,,,,,,,,,,,,,,5,9.25,9.625,10,10.375,10.75,0.375,0.125,0.25,1.75,10,match,36.05,333,347,361,374,388,9,9,9,9,9,,,,,2,0,2,0,0,8,8,21,,,,,num_4,1.106809499906376,num_4,0.25,1.3,0.2,0.4,7.20859,14.41717,return,2.870617700042203,,,,,,,3,23,female,up_down_width,2023_Aug_14_1422,exp1,2021.2.3,60.00470434875859,
,,,,,,,,,,,,,,,,3,9,10,11,0,0,1,0.9,0.1,2.1,10,match,36.05,324,361,397,0,0,9,9,9,0,0,,,,,2,0,2,0,0,9,9,37,,,,,num_3,1.0030944999307394,num_3,0.1,0.7,0.1,1.0,3.60429,36.04293,return,2.0172806999180466,,,,,,,3,23,female,up_down_width,2023_Aug_14_1422,exp1,2021.2.3,60.00470434875859,
,,,,,,,,,,,,,,,,4,9.1,9.7,10.3,10.9,0,0.6,0.5,0.1,1.9,10,match,36.05,328,350,371,393,0,9,9,9,9,0,,,,,2,0,2,0,0,10,10,13,,,,,num_4,1.6196453999727964,num_4,0.2,1.0,0.10000000000000002,0.6,3.60429,21.62576,return,2.8338595998939127,,,,,,,3,23,female,up_down_width,2023_Aug_14_1422,exp1,2021.2.3,60.00470434875859,
,,,,,,,,,,,,,,,,4,9.425,9.808333333333334,10.191666666666666,10.575,0,0.3833333333333333,0.1333333333333333,0.25,1.4,10,match,36.05,340,354,367,381,0,9,9,9,9,0,,,,,2,0,2,0,0,11,11,5,,,,,num_4,1.2611950000282377,num_4,0.45,1.1,0.20000000000000007,0.4,7.20859,14.41717,return,6.953341499902308,,,,,,,3,23,female,up_down_width,2023_Aug_14_1422,exp1,2021.2.3,60.00470434875859,
,,,,,,,,,,,,,,,,4,9.3,9.766666666666667,10.233333333333333,10.7,0,0.4666666666666667,0.21666666666666665,0.25,1.65,10,match,36.05,335,352,369,386,0,9,9,9,9,0,,,,,2,0,2,0,0,12,12,9,,,,,num_3,1.6203095999080688,num_3,0.25,0.9,0.2,0.55,7.20859,19.82361,return,4.738316300092265,,,,,,,3,23,female,up_down_width,2023_Aug_14_1422,exp1,2021.2.3,60.00470434875859,
,,,,,,,,,,,,,,,,4,8.65,9.55,10.45,11.35,0,0.9,0.5,0.4,3.1,10,initial,36.05,312,344,377,409,0,9,9,9,9,0,,,,,2,0,2,0,0,13,13,34,,,,,num_4,0.9997758998069912,num_4,0.2,0.9,0.44999999999999996,0.9,16.21932,32.43864,return,4.383161099860445,,,,,,,3,23,female,up_down_width,2023_Aug_14_1422,exp1,2021.2.3,60.00470434875859,
,,,,,,,,,,,,,,,,4,8.65,9.55,10.45,11.35,0,0.9,0.65,0.25,2.95,10,initial,36.05,312,344,377,409,0,9,9,9,9,0,,,,,2,0,2,0,0,14,14,32,,,,,num_4,0.8704810999333858,num_4,0.2,0.8,0.2,0.8,7.20859,28.83434,return,1.2635108001995832,,,,,,,3,23,female,up_down_width,2023_Aug_14_1422,exp1,2021.2.3,60.00470434875859,
,,,,,,,,,,,,,,,,3,9.5,10,10.5,0,0,0.5,0.4,0.1,1.1,10,initial,36.05,342,361,379,0,0,9,9,9,0,0,,,,,2,0,2,0,0,15,15,0,,,,,num_2,0.9621052001602948,num_2,0.35,1.6,0.09999999999999999,1.0,3.60429,36.04293,return,12.128140900051221,,,,,,,3,23,female,up_down_width,2023_Aug_14_1422,exp1,2021.2.3,60.00470434875859,
,,,,,,,,,,,,,,,,3,9.3,10,10.7,0,0,0.7,0.29999999999999993,0.4,1.8,10,initial,36.05,335,361,386,0,0,9,9,9,0,0,,,,,2,0,2,0,0,16,16,10,,,,,num_2,0.9944720000494272,num_2,0.25,1.6,0.25,1.0,9.01073,36.04293,return,2.778203599853441,,,,,,,3,23,female,up_down_width,2023_Aug_14_1422,exp1,2021.2.3,60.00470434875859,
,,,,,,,,,,,,,,,,5,8.6,9.3,10,10.7,11.4,0.7,0.29999999999999993,0.4,3.1999999999999997,10,initial,36.05,310,335,361,386,411,9,9,9,9,9,,,,,2,0,2,0,0,17,17,46,,,,,num_5,0.9732443999964744,num_5,0.3,0.4,0.3,0.6,10.81288,21.62576,return,2.3576691998168826,,,,,,,3,23,female,up_down_width,2023_Aug_14_1422,exp1,2021.2.3,60.00470434875859,
,,,,,,,,,,,,,,,,5,8.95,9.475,10,10.525,11.05,0.525,0.275,0.25,2.35,10,match,36.05,323,342,361,379,398,9,9,9,9,9,,,,,2,0,2,0,0,18,18,27,,,,,num_4,1.3272351999767125,num_4,0.25,1.3,0.25,0.7,9.01073,25.23005,return,2.7549201000947505,,,,,,,3,23,female,up_down_width,2023_Aug_14_1422,exp1,2021.2.3,60.00470434875859,
,,,,,,,,,,,,,,,,5,9,9.5,10,10.5,11,0.5,0.09999999999999998,0.4,2.4,10,initial,36.05,324,342,361,379,397,9,9,9,9,9,,,,,2,0,2,0,0,19,19,40,,,,,num_5,1.3259225001093,num_5,0.4,1.0,0.30000000000000004,0.45,10.81288,16.21932,return,9.04517860012129,,,,,,,3,23,female,up_down_width,2023_Aug_14_1422,exp1,2021.2.3,60.00470434875859,
,,,,,,,,,,,,,,,,3,8.6,10,11.4,0,0,1.4,1.15,0.25,3.05,10,match,36.05,310,361,411,0,0,9,9,9,0,0,,,,,2,0,2,0,0,20,20,45,,,,,num_3,1.1682859000284225,num_3,0.2,0.8,0.2,1.1,7.20859,39.64722,return,1.9046086000744253,,,,,,,3,23,female,up_down_width,2023_Aug_14_1422,exp1,2021.2.3,60.00470434875859,
,,,,,,,,,,,,,,,,4,8.95,9.65,10.35,11.05,0,0.7,0.44999999999999996,0.25,2.3499999999999996,10,initial,36.05,323,348,373,398,0,9,9,9,9,0,,,,,2,0,2,0,0,21,21,26,,,,,num_4,2.8690750000532717,num_4,0.1,0.8,0.25,0.7,9.01073,25.23005,return,3.24947450007312,,,,,,,3,23,female,up_down_width,2023_Aug_14_1422,exp1,2021.2.3,60.00470434875859,
,,,,,,,,,,,,,,,,5,9.175,9.5875,10,10.4125,10.825,0.4125,0.16249999999999998,0.25,1.9,10,match,36.05,331,346,361,375,390,9,9,9,9,9,,,,,2,0,2,0,0,22,22,23,,,,,num_4,1.425974200014025,num_4,0.4,1.1,0.15000000000000008,0.4,5.40644,14.41717,return,6.776322999969125,,,,,,,3,23,female,up_down_width,2023_Aug_14_1422,exp1,2021.2.3,60.00470434875859,
,,,,,,,,,,,,,,,,5,8.65,9.325,10,10.675,11.35,0.6749999999999999,0.575,0.1,2.8,10,match,36.05,312,336,361,385,409,9,9,9,9,9,,,,,2,0,2,0,0,23,23,31,,,,,num_5,0.9932717999909073,num_5,0.1,0.4,0.1,0.55,3.60429,19.82361,return,2.1339044000487775,,,,,,,3,23,female,up_down_width,2023_Aug_14_1422,exp1,2021.2.3,60.00470434875859,
,,,,,,,,,,,,,,,,5,8.2,9.1,10,10.9,11.8,0.9,0.8,0.1,3.7,10,initial,36.05,296,328,361,393,425,9,9,9,9,9,,,,,2,0,2,0,0,24,24,48,,,,,num_6,1.1871575000695884,num_6,0.3,0.8,0.10000000000000002,0.7,3.60429,25.23005,return,3.233110499801114,,,,,,,3,23,female,up_down_width,2023_Aug_14_1422,exp1,2021.2.3,60.00470434875859,
,,,,,,,,,,,,,,,,4,8.95,9.65,10.35,11.05,0,0.7,0.6,0.1,2.1999999999999997,10,initial,36.05,323,348,373,398,0,9,9,9,9,0,,,,,2,0,2,0,0,25,25,24,,,,,num_3,1.3260021999012679,num_3,0.2,0.7,0.10000000000000002,0.75,3.60429,27.0322,return,3.9889738999772817,,,,,,,3,23,female,up_down_width,2023_Aug_14_1422,exp1,2021.2.3,60.00470434875859,
,,,,,,,,,,,,,,,,5,8.95,9.475,10,10.525,11.05,0.525,0.42500000000000004,0.1,2.2,10,match,36.05,323,342,361,379,398,9,9,9,9,9,,,,,2,0,2,0,0,26,26,25,,,,,num_5,1.7542359000071883,num_5,0.4,0.7,0.05000000000000007,0.65,1.80215,23.4279,return,4.481195500120521,,,,,,,3,23,female,up_down_width,2023_Aug_14_1422,exp1,2021.2.3,60.00470434875859,
,,,,,,,,,,,,,,,,3,9,10,11,0,0,0.9999999999999999,0.5999999999999999,0.4,2.4,10,match,36.05,324,361,397,0,0,9,9,9,0,0,,,,,2,0,2,0,0,27,27,41,,,,,num_3,0.8884675998706371,num_3,0.2,1.3,0.39999999999999997,1.3,14.41717,46.85581,return,1.8933687000535429,,,,,,,3,23,female,up_down_width,2023_Aug_14_1422,exp1,2021.2.3,60.00470434875859,
,,,,,,,,,,,,,,,,4,9.3,9.766666666666667,10.233333333333333,10.7,0,0.4666666666666667,0.3666666666666667,0.1,1.5,10,match,36.05,335,352,369,386,0,9,9,9,9,0,,,,,2,0,2,0,0,28,28,7,,,,,num_3,1.166411700192839,num_3,0.1,0.4,0.15000000000000002,0.65,5.40644,23.4279,return,3.696004099911079,,,,,,,3,23,female,up_down_width,2023_Aug_14_1422,exp1,2021.2.3,60.00470434875859,
,,,,,,,,,,,,,,,,3,9.1,10,10.9,0,0,0.9,0.5,0.4,2.2,10,initial,36.05,328,361,393,0,0,9,9,9,0,0,,,,,2,0,2,0,0,29,29,16,,,,,num_3,0.827975400025025,num_3,0.3,0.7,0.3,1.05,10.81288,37.84507,return,2.637244899990037,,,,,,,3,23,female,up_down_width,2023_Aug_14_1422,exp1,2021.2.3,60.00470434875859,
,,,,,,,,,,,,,,,,3,9.1,10,10.9,0,0,0.9,0.65,0.25,2.05,10,initial,36.05,328,361,393,0,0,9,9,9,0,0,,,,,2,0,2,0,0,30,30,14,,,,,num_2,1.0112964999862015,num_2,0.35,1.6,0.35,1.3,12.61502,46.85581,return,1.6741797998547554,,,,,,,3,23,female,up_down_width,2023_Aug_14_1422,exp1,2021.2.3,60.00470434875859,
,,,,,,,,,,,,,,,,5,9,9.5,10,10.5,11,0.5,0.25,0.25,2.25,10,initial,36.05,324,342,361,379,397,9,9,9,9,9,,,,,2,0,2,0,0,31,31,38,,,,,num_4,2.2053459000308067,num_4,0.45,0.7,0.25000000000000006,0.6,9.01073,21.62576,return,4.082365199923515,,,,,,,3,23,female,up_down_width,2023_Aug_14_1422,exp1,2021.2.3,60.00470434875859,
,,,,,,,,,,,,,,,,3,9.1,10,10.9,0,0,0.9,0.8,0.1,1.9000000000000001,10,initial,36.05,328,361,393,0,0,9,9,9,0,0,,,,,2,0,2,0,0,32,32,12,,,,,num_3,0.9188552000559866,num_3,0.35,0.7,0.10000000000000002,0.95,3.60429,34.24078,return,4.543467300012708,,,,,,,3,23,female,up_down_width,2023_Aug_14_1422,exp1,2021.2.3,60.00470434875859,
,,,,,,,,,,,,,,,,4,9.1,9.7,10.3,10.9,0,0.5999999999999999,0.3499999999999999,0.25,2.05,10,match,36.05,328,350,371,393,0,9,9,9,9,0,,,,,2,0,2,0,0,33,33,15,,,,,num_4,1.0837038001045585,num_4,0.25,1.2,0.2,0.9,7.20859,32.43864,return,2.176129899919033,,,,,,,3,23,female,up_down_width,2023_Aug_14_1422,exp1,2021.2.3,60.00470434875859,
,,,,,,,,,,,,,,,,4,9.5,9.833333333333334,10.166666666666666,10.5,0,0.3333333333333333,0.08333333333333333,0.25,1.25,10,match,36.05,342,354,367,379,0,9,9,9,9,0,,,,,2,0,2,0,0,34,34,3,,,,,num_3,1.137257499853149,num_3,0.25,1.2,0.15000000000000002,0.4,5.40644,14.41717,return,4.658635900123045,,,,,,,3,23,female,up_down_width,2023_Aug_14_1422,exp1,2021.2.3,60.00470434875859,
,,,,,,,,,,,,,,,,5,8.95,9.475,10,10.525,11.05,0.525,0.125,0.4,2.5,10,match,36.05,323,342,361,379,398,9,9,9,9,9,,,,,2,0,2,0,0,35,35,29,,,,,num_5,0.9586165000218898,num_5,0.4,0.6,0.4,0.6,14.41717,21.62576,return,1.3810393000021577,,,,,,,3,23,female,up_down_width,2023_Aug_14_1422,exp1,2021.2.3,60.00470434875859,
,,,,,,,,,,,,,,,,3,9,10,11,0,0,1,0.75,0.25,2.25,10,match,36.05,324,361,397,0,0,9,9,9,0,0,,,,,2,0,2,0,0,36,36,39,,,,,num_3,0.9926047001499683,num_3,0.15,0.8,0.25,0.8,9.01073,28.83434,return,3.1924177000764757,,,,,,,3,23,female,up_down_width,2023_Aug_14_1422,exp1,2021.2.3,60.00470434875859,
,,,,,,,,,,,,,,,,3,8.525,10,11.475,0,0,1.475,1.225,0.25,3.2,10,match,36.05,307,361,414,0,0,9,9,9,0,0,,,,,2,0,2,0,0,37,37,47,,,,,num_3,0.8305198000743985,num_3,0.25,0.8,0.2,1.4,7.20859,50.4601,return,4.605542700039223,,,,,,,3,23,female,up_down_width,2023_Aug_14_1422,exp1,2021.2.3,60.00470434875859,
,,,,,,,,,,,,,,,,3,8.2,10,11.8,0,0,1.8,1.55,0.25,3.85,10,match,36.05,296,361,425,0,0,9,9,9,0,0,,,,,2,0,2,0,0,38,38,51,,,,,num_3,1.1750606999266893,num_3,0.15,0.8,0.25,1.3,9.01073,46.85581,return,3.480976700084284,,,,,,,3,23,female,up_down_width,2023_Aug_14_1422,exp1,2021.2.3,60.00470434875859,
,,,,,,,,,,,,,,,,5,8.6,9.3,10,10.7,11.4,0.7,0.6,0.1,2.9,10,initial,36.05,310,335,361,386,411,9,9,9,9,9,,,,,2,0,2,0,0,39,39,42,,,,,num_4,0.8125632998999208,num_4,0.25,1.1,0.10000000000000002,1.1,3.60429,39.64722,return,1.8344010999426246,,,,,,,3,23,female,up_down_width,2023_Aug_14_1422,exp1,2021.2.3,60.00470434875859,
,,,,,,,,,,,,,,,,4,8.65,9.55,10.45,11.35,0,0.9,0.8,0.1,2.8000000000000003,10,initial,36.05,312,344,377,409,0,9,9,9,9,0,,,,,2,0,2,0,0,40,40,30,,,,,num_4,0.8525769000407308,num_4,0.25,1.0,0.10000000000000002,0.9,3.60429,32.43864,return,4.910613199928775,,,,,,,3,23,female,up_down_width,2023_Aug_14_1422,exp1,2021.2.3,60.00470434875859,
,,,,,,,,,,,,,,,,3,9.3,10,10.7,0,0,0.7,0.6,0.1,1.5,10,initial,36.05,335,361,386,0,0,9,9,9,0,0,,,,,2,0,2,0,0,41,41,6,,,,,num_2,0.9011685999576002,num_2,0.35,1.6,0.10000000000000002,1.1,3.60429,39.64722,return,8.271620200015604,,,,,,,3,23,female,up_down_width,2023_Aug_14_1422,exp1,2021.2.3,60.00470434875859,
,,,,,,,,,,,,,,,,3,8.6,10,11.4,0,0,1.4,1.2999999999999998,0.1,2.9,10,match,36.05,310,361,411,0,0,9,9,9,0,0,,,,,2,0,2,0,0,42,42,43,,,,,num_3,0.926022500032559,num_3,0.2,1.3,0.05000000000000002,1.4,1.80215,50.4601,return,2.9512511999346316,,,,,,,3,23,female,up_down_width,2023_Aug_14_1422,exp1,2021.2.3,60.00470434875859,
,,,,,,,,,,,,,,,,5,9.25,9.625,10,10.375,10.75,0.375,0.275,0.1,1.6,10,match,36.05,333,347,361,374,388,9,9,9,9,9,,,,,2,0,2,0,0,43,43,19,,,,,num_4,1.5184965000953525,num_4,0.4,0.6,0.05000000000000007,0.4,1.80215,14.41717,return,3.0223940000869334,,,,,,,3,23,female,up_down_width,2023_Aug_14_1422,exp1,2021.2.3,60.00470434875859,
,,,,,,,,,,,,,,,,4,8.95,9.65,10.35,11.05,0,0.7,0.29999999999999993,0.4,2.5,10,initial,36.05,323,348,373,398,0,9,9,9,9,0,,,,,2,0,2,0,0,44,44,28,,,,,num_4,0.9696178000885993,num_4,0.2,0.7,0.3,0.8,10.81288,28.83434,return,1.8429270000196993,,,,,,,3,23,female,up_down_width,2023_Aug_14_1422,exp1,2021.2.3,60.00470434875859,
,,,,,,,,,,,,,,,,5,8.6,9.3,10,10.7,11.4,0.7,0.44999999999999996,0.25,3.05,10,initial,36.05,310,335,361,386,411,9,9,9,9,9,,,,,2,0,2,0,0,45,45,44,,,,,num_5,0.9226859000045806,num_5,0.1,0.5,0.2,0.55,7.20859,19.82361,return,2.64484339999035,,,,,,,3,23,female,up_down_width,2023_Aug_14_1422,exp1,2021.2.3,60.00470434875859,
,,,,,,,,,,,,,,,,5,8.2,9.1,10,10.9,11.8,0.9,0.65,0.25,3.85,10,initial,36.05,296,328,361,393,425,9,9,9,9,9,,,,,2,0,2,0,0,46,46,50,,,,,num_6,1.5051453998312354,num_6,0.1,1.1,0.25,1.0,9.01073,36.04293,return,2.1473612999543548,,,,,,,3,23,female,up_down_width,2023_Aug_14_1422,exp1,2021.2.3,60.00470434875859,
,,,,,,,,,,,,,,,,5,9,9.5,10,10.5,11,0.5,0.4,0.1,2.1,10,initial,36.05,324,342,361,379,397,9,9,9,9,9,,,,,2,0,2,0,0,47,47,36,,,,,num_4,2.094537999946624,num_4,0.1,0.5,0.1,0.5,3.60429,18.02146,return,0.9695755001157522,,,,,,,3,23,female,up_down_width,2023_Aug_14_1422,exp1,2021.2.3,60.00470434875859,
,,,,,,,,,,,,,,,,3,8.2,10,11.8,0,0,1.7999999999999998,1.4,0.4,4,10,match,36.05,296,361,425,0,0,9,9,9,0,0,,,,,2,0,2,0,0,48,48,53,,,,,num_3,0.8737502000294626,num_3,0.3,0.9,0.3,1.4,10.81288,50.4601,return,3.7814127998426557,,,,,,,3,23,female,up_down_width,2023_Aug_14_1422,exp1,2021.2.3,60.00470434875859,
,,,,,,,,,,,,,,,,3,9.5,10,10.5,0,0,0.5,0.25,0.25,1.25,10,initial,36.05,342,361,379,0,0,9,9,9,0,0,,,,,2,0,2,0,0,49,49,2,,,,,num_2,1.0292164999991655,num_2,0.2,1.6,0.2,0.4,7.20859,14.41717,return,3.6745245999190956,,,,,,,3,23,female,up_down_width,2023_Aug_14_1422,exp1,2021.2.3,60.00470434875859,
,,,,,,,,,,,,,,,,4,9.25,9.75,10.25,10.75,0,0.5,0.25,0.25,1.75,10,initial,36.05,333,351,370,388,0,9,9,9,9,0,,,,,2,0,2,0,0,50,50,20,,,,,num_5,1.3484657001681626,num_5,0.3,0.7,0.2,0.65,7.20859,23.4279,return,1.9663541000336409,,,,,,,3,23,female,up_down_width,2023_Aug_14_1422,exp1,2021.2.3,60.00470434875859,
,,,,,,,,,,,,,,,,3,8.2,10,11.8,0,0,1.8000000000000003,1.7000000000000002,0.1,3.7,10,match,36.05,296,361,425,0,0,9,9,9,0,0,,,,,2,0,2,0,0,51,51,49,,,,,num_3,1.1197199998423457,num_3,0.4,0.9,0.15000000000000008,1.05,5.40644,37.84507,return,5.77621869998984,,,,,,,3,23,female,up_down_width,2023_Aug_14_1422,exp1,2021.2.3,60.00470434875859,
,,,,,,,,,,,,,,,,4,9.3,9.766666666666667,10.233333333333333,10.7,0,0.4666666666666667,0.06666666666666665,0.4,1.8,10,match,36.05,335,352,369,386,0,9,9,9,9,0,,,,,2,0,2,0,0,52,52,11,,,,,num_3,0.9829545000102371,num_3,0.2,1.3,0.2,0.45,7.20859,16.21932,return,5.167934099910781,,,,,,,3,23,female,up_down_width,2023_Aug_14_1422,exp1,2021.2.3,60.00470434875859,
,,,,,,,,,,,,,,,,4,9.25,9.75,10.25,10.75,0,0.5,0.4,0.1,1.6,10,initial,36.05,333,351,370,388,0,9,9,9,9,0,,,,,2,0,2,0,0,53,53,18,,,,,num_4,1.4599003000184894,num_4,0.2,0.8,0.10000000000000002,0.4,3.60429,14.41717,return,3.6250237999483943,,,,,,,3,23,female,up_down_width,2023_Aug_14_1422,exp1,2021.2.3,60.00470434875859,
,,,,,,,,,,,,,,,,,,,,,,,,,,,,,,,,,,,,,,,,,,,2,0,2,0,,,,,,,,,,,,,,,,,,,,,,1460.4615670000203,None,1460.4615670000203,None,3,23,female,up_down_width,2023_Aug_14_1422,exp1,2021.2.3,60.00470434875859,
,,,,,,,,,,,,,,,,5,9.25,9.625,10,10.375,10.75,0.375,0.125,0.25,1.75,10,match,36.05,333,347,361,374,388,9,9,9,9,9,,,,,3,0,3,0,0,0,0,21,,,,,num_4,1.133666800102219,num_4,0.25,0.7,0.2,0.4,7.20859,14.41717,return,1.8540104001294822,,,,,,,3,23,female,up_down_width,2023_Aug_14_1422,exp1,2021.2.3,60.00470434875859,
,,,,,,,,,,,,,,,,4,8.95,9.65,10.35,11.05,0,0.7,0.44999999999999996,0.25,2.3499999999999996,10,initial,36.05,323,348,373,398,0,9,9,9,9,0,,,,,3,0,3,0,0,1,1,26,,,,,num_4,1.009935700101778,num_4,0.4,1.0,0.30000000000000004,0.6,10.81288,21.62576,return,3.097070299787447,,,,,,,3,23,female,up_down_width,2023_Aug_14_1422,exp1,2021.2.3,60.00470434875859,
,,,,,,,,,,,,,,,,3,9,10,11,0,0,1,0.9,0.1,2.1,10,match,36.05,324,361,397,0,0,9,9,9,0,0,,,,,3,0,3,0,0,2,2,37,,,,,num_4,3.059077100129798,num_4,0.35,0.5,0.15000000000000002,0.8,5.40644,28.83434,return,4.599623099900782,,,,,,,3,23,female,up_down_width,2023_Aug_14_1422,exp1,2021.2.3,60.00470434875859,
,,,,,,,,,,,,,,,,3,8.2,10,11.8,0,0,1.8,1.55,0.25,3.85,10,match,36.05,296,361,425,0,0,9,9,9,0,0,,,,,3,0,3,0,0,3,3,51,,,,,num_3,0.7848165999166667,num_3,0.1,0.3,0.15000000000000002,1.35,5.40644,48.65795,return,7.853794899769127,,,,,,,3,23,female,up_down_width,2023_Aug_14_1422,exp1,2021.2.3,60.00470434875859,
,,,,,,,,,,,,,,,,5,8.6,9.3,10,10.7,11.4,0.7,0.6,0.1,2.9,10,initial,36.05,310,335,361,386,411,9,9,9,9,9,,,,,3,0,3,0,0,4,4,42,,,,,num_5,1.1498136001173407,num_5,0.15,1.0,0.09999999999999999,0.7,3.60429,25.23005,return,4.015615900047123,,,,,,,3,23,female,up_down_width,2023_Aug_14_1422,exp1,2021.2.3,60.00470434875859,
,,,,,,,,,,,,,,,,4,9.25,9.75,10.25,10.75,0,0.5,0.25,0.25,1.75,10,initial,36.05,333,351,370,388,0,9,9,9,9,0,,,,,3,0,3,0,0,5,5,20,,,,,num_4,1.2524111000820994,num_4,0.25,1.2,0.25,0.6,9.01073,21.62576,return,2.0652107999194413,,,,,,,3,23,female,up_down_width,2023_Aug_14_1422,exp1,2021.2.3,60.00470434875859,
,,,,,,,,,,,,,,,,3,9,10,11,0,0,1,0.75,0.25,2.25,10,match,36.05,324,361,397,0,0,9,9,9,0,0,,,,,3,0,3,0,0,6,6,39,,,,,num_3,0.9683252999093384,num_3,0.4,0.7,0.20000000000000007,0.95,7.20859,34.24078,return,7.297945400001481,,,,,,,3,23,female,up_down_width,2023_Aug_14_1422,exp1,2021.2.3,60.00470434875859,
,,,,,,,,,,,,,,,,4,9.1,9.7,10.3,10.9,0,0.5999999999999999,0.3499999999999999,0.25,2.05,10,match,36.05,328,350,371,393,0,9,9,9,9,0,,,,,3,0,3,0,0,7,7,15,,,,,num_4,1.2772260000929236,num_4,0.25,0.6,0.2,0.6,7.20859,21.62576,return,1.4978801000397652,,,,,,,3,23,female,up_down_width,2023_Aug_14_1422,exp1,2021.2.3,60.00470434875859,
,,,,,,,,,,,,,,,,5,8.65,9.325,10,10.675,11.35,0.6749999999999999,0.575,0.1,2.8,10,match,36.05,312,336,361,385,409,9,9,9,9,9,,,,,3,0,3,0,0,8,8,31,,,,,num_6,1.3895411998964846,num_6,0.4,0.5,0.10000000000000007,0.6,3.60429,21.62576,return,3.8364615999162197,,,,,,,3,23,female,up_down_width,2023_Aug_14_1422,exp1,2021.2.3,60.00470434875859,
,,,,,,,,,,,,,,,,5,8.95,9.475,10,10.525,11.05,0.525,0.42500000000000004,0.1,2.2,10,match,36.05,323,342,361,379,398,9,9,9,9,9,,,,,3,0,3,0,0,9,9,25,,,,,num_5,1.3523238999769092,num_5,0.1,0.8,0.1,0.65,3.60429,23.4279,return,1.953461900120601,,,,,,,3,23,female,up_down_width,2023_Aug_14_1422,exp1,2021.2.3,60.00470434875859,
,,,,,,,,,,,,,,,,4,9.5,9.833333333333334,10.166666666666666,10.5,0,0.3333333333333333,0.08333333333333333,0.25,1.25,10,match,36.05,342,354,367,379,0,9,9,9,9,0,,,,,3,0,3,0,0,10,10,3,,,,,num_3,2.0376367999706417,num_3,0.25,0.8,0.15000000000000002,0.3,5.40644,10.81288,return,10.323129900032654,,,,,,,3,23,female,up_down_width,2023_Aug_14_1422,exp1,2021.2.3,60.00470434875859,
,,,,,,,,,,,,,,,,5,8.2,9.1,10,10.9,11.8,0.9,0.5,0.4,4,10,initial,36.05,296,328,361,393,425,9,9,9,9,9,,,,,3,0,3,0,0,11,11,52,,,,,num_4,1.350576699944213,num_4,0.2,1.1,0.25,0.7,9.01073,25.23005,return,4.2556014999281615,,,,,,,3,23,female,up_down_width,2023_Aug_14_1422,exp1,2021.2.3,60.00470434875859,
,,,,,,,,,,,,,,,,5,9,9.5,10,10.5,11,0.5,0.4,0.1,2.1,10,initial,36.05,324,342,361,379,397,9,9,9,9,9,,,,,3,0,3,0,0,12,12,36,,,,,num_5,0.968359800055623,num_5,0.3,0.5,0.15000000000000002,0.5,5.40644,18.02146,return,1.8071598999667913,,,,,,,3,23,female,up_down_width,2023_Aug_14_1422,exp1,2021.2.3,60.00470434875859,
,,,,,,,,,,,,,,,,4,8.65,9.55,10.45,11.35,0,0.9,0.8,0.1,2.8000000000000003,10,initial,36.05,312,344,377,409,0,9,9,9,9,0,,,,,3,0,3,0,0,13,13,30,,,,,num_4,1.2356930000241846,num_4,0.25,0.8,0.10000000000000002,0.8,3.60429,28.83434,return,3.647760800085962,,,,,,,3,23,female,up_down_width,2023_Aug_14_1422,exp1,2021.2.3,60.00470434875859,
,,,,,,,,,,,,,,,,3,9.1,10,10.9,0,0,0.9,0.8,0.1,1.9000000000000001,10,initial,36.05,328,361,393,0,0,9,9,9,0,0,,,,,3,0,3,0,0,14,14,12,,,,,num_3,0.8820910998620093,num_3,0.45,0.6,0.10000000000000007,1.05,3.60429,37.84507,return,4.046707700006664,,,,,,,3,23,female,up_down_width,2023_Aug_14_1422,exp1,2021.2.3,60.00470434875859,
,,,,,,,,,,,,,,,,5,8.6,9.3,10,10.7,11.4,0.7,0.29999999999999993,0.4,3.1999999999999997,10,initial,36.05,310,335,361,386,411,9,9,9,9,9,,,,,3,0,3,0,0,15,15,46,,,,,num_5,1.0265259000007063,num_5,0.15,0.8,0.35,0.75,12.61502,27.0322,return,1.960501299938187,,,,,,,3,23,female,up_down_width,2023_Aug_14_1422,exp1,2021.2.3,60.00470434875859,
,,,,,,,,,,,,,,,,3,8.2,10,11.8,0,0,1.7999999999999998,1.4,0.4,4,10,match,36.05,296,361,425,0,0,9,9,9,0,0,,,,,3,0,3,0,0,16,16,53,,,,,num_3,0.8024615999311209,num_3,0.35,1.1,0.35,1.55,12.61502,55.86654,return,2.5777029001619667,,,,,,,3,23,female,up_down_width,2023_Aug_14_1422,exp1,2021.2.3,60.00470434875859,
,,,,,,,,,,,,,,,,3,8.6,10,11.4,0,0,1.4,1.15,0.25,3.05,10,match,36.05,310,361,411,0,0,9,9,9,0,0,,,,,3,0,3,0,0,17,17,45,,,,,num_3,0.9862779001705348,num_3,0.4,1.2,0.20000000000000007,1.7,7.20859,61.27298,return,5.826159900054336,,,,,,,3,23,female,up_down_width,2023_Aug_14_1422,exp1,2021.2.3,60.00470434875859,
,,,,,,,,,,,,,,,,5,8.95,9.475,10,10.525,11.05,0.525,0.275,0.25,2.35,10,match,36.05,323,342,361,379,398,9,9,9,9,9,,,,,3,0,3,0,0,18,18,27,,,,,num_4,0.9851600001566112,num_4,0.25,0.3,0.25,0.9,9.01073,32.43864,return,2.95877130003646,,,,,,,3,23,female,up_down_width,2023_Aug_14_1422,exp1,2021.2.3,60.00470434875859,
,,,,,,,,,,,,,,,,5,8.2,9.1,10,10.9,11.8,0.9,0.65,0.25,3.85,10,initial,36.05,296,328,361,393,425,9,9,9,9,9,,,,,3,0,3,0,0,19,19,50,,,,,num_6,1.1431513000279665,num_6,0.25,0.5,0.2,0.6,7.20859,21.62576,return,3.672412400133908,,,,,,,3,23,female,up_down_width,2023_Aug_14_1422,exp1,2021.2.3,60.00470434875859,
,,,,,,,,,,,,,,,,3,9,10,11,0,0,0.9999999999999999,0.5999999999999999,0.4,2.4,10,match,36.05,324,361,397,0,0,9,9,9,0,0,,,,,3,0,3,0,0,20,20,41,,,,,num_3,0.9457783999387175,num_3,0.1,0.6,0.3,1.0,10.81288,36.04293,return,5.098751600133255,,,,,,,3,23,female,up_down_width,2023_Aug_14_1422,exp1,2021.2.3,60.00470434875859,
,,,,,,,,,,,,,,,,4,9.3,9.766666666666667,10.233333333333333,10.7,0,0.4666666666666667,0.3666666666666667,0.1,1.5,10,match,36.05,335,352,369,386,0,9,9,9,9,0,,,,,3,0,3,0,0,21,21,7,,,,,num_3,0.913901099935174,num_3,0.1,1.3,0.1,0.65,3.60429,23.4279,return,5.629780899966136,,,,,,,3,23,female,up_down_width,2023_Aug_14_1422,exp1,2021.2.3,60.00470434875859,
,,,,,,,,,,,,,,,,4,9.425,9.808333333333334,10.191666666666666,10.575,0,0.3833333333333333,0.1333333333333333,0.25,1.4,10,match,36.05,340,354,367,381,0,9,9,9,9,0,,,,,3,0,3,0,0,22,22,5,,,,,num_3,1.0919447999913245,num_3,0.15,1.2,0.15,0.4,5.40644,14.41717,return,4.280011399881914,,,,,,,3,23,female,up_down_width,2023_Aug_14_1422,exp1,2021.2.3,60.00470434875859,
,,,,,,,,,,,,,,,,3,9.3,10,10.7,0,0,0.7,0.6,0.1,1.5,10,initial,36.05,335,361,386,0,0,9,9,9,0,0,,,,,3,0,3,0,0,23,23,6,,,,,num_3,0.9945205999538302,num_3,0.3,0.5,0.05000000000000002,0.55,1.80215,19.82361,return,5.322634200099856,,,,,,,3,23,female,up_down_width,2023_Aug_14_1422,exp1,2021.2.3,60.00470434875859,
,,,,,,,,,,,,,,,,5,8.95,9.475,10,10.525,11.05,0.525,0.125,0.4,2.5,10,match,36.05,323,342,361,379,398,9,9,9,9,9,,,,,3,0,3,0,0,24,24,29,,,,,num_4,1.309439199976623,num_4,0.15,0.5,0.44999999999999996,0.6,16.21932,21.62576,return,3.7200476999860257,,,,,,,3,23,female,up_down_width,2023_Aug_14_1422,exp1,2021.2.3,60.00470434875859,
,,,,,,,,,,,,,,,,4,9.25,9.75,10.25,10.75,0,0.5,0.09999999999999998,0.4,1.9,10,initial,36.05,333,351,370,388,0,9,9,9,9,0,,,,,3,0,3,0,0,25,25,22,,,,,num_3,1.1718361999373883,num_3,0.4,1,0.45,0.6,16.21932,21.62576,return,3.4935685000382364,,,,,,,3,23,female,up_down_width,2023_Aug_14_1422,exp1,2021.2.3,60.00470434875859,
,,,,,,,,,,,,,,,,4,8.65,9.55,10.45,11.35,0,0.9,0.65,0.25,2.95,10,initial,36.05,312,344,377,409,0,9,9,9,9,0,,,,,3,0,3,0,0,26,26,32,,,,,num_4,0.9265155999455601,num_4,0.4,0.8,0.30000000000000004,0.7,10.81288,25.23005,return,3.017972899833694,,,,,,,3,23,female,up_down_width,2023_Aug_14_1422,exp1,2021.2.3,60.00470434875859,
,,,,,,,,,,,,,,,,3,8.2,10,11.8,0,0,1.8000000000000003,1.7000000000000002,0.1,3.7,10,match,36.05,296,361,425,0,0,9,9,9,0,0,,,,,3,0,3,0,0,27,27,49,,,,,num_3,0.8004527001176029,num_3,0.2,0.4,1.3877787807814457e-17,0.85,0.0,30.63649,return,5.757838000077754,,,,,,,3,23,female,up_down_width,2023_Aug_14_1422,exp1,2021.2.3,60.00470434875859,
,,,,,,,,,,,,,,,,3,9.1,10,10.9,0,0,0.9,0.5,0.4,2.2,10,initial,36.05,328,361,393,0,0,9,9,9,0,0,,,,,3,0,3,0,0,28,28,16,,,,,num_3,0.8059535999782383,num_3,0.35,1.3,0.35,1.0,12.61502,36.04293,return,2.37346879998222,,,,,,,3,23,female,up_down_width,2023_Aug_14_1422,exp1,2021.2.3,60.00470434875859,
,,,,,,,,,,,,,,,,5,9.25,9.625,10,10.375,10.75,0.375,0.275,0.1,1.6,10,match,36.05,333,347,361,374,388,9,9,9,9,9,,,,,3,0,3,0,0,29,29,19,,,,,num_4,1.297989800106734,num_4,0.25,0.5,0.05000000000000002,0.2,1.80215,7.20859,return,3.0692467000335455,,,,,,,3,23,female,up_down_width,2023_Aug_14_1422,exp1,2021.2.3,60.00470434875859,
,,,,,,,,,,,,,,,,3,8.525,10,11.475,0,0,1.475,1.225,0.25,3.2,10,match,36.05,307,361,414,0,0,9,9,9,0,0,,,,,3,0,3,0,0,30,30,47,,,,,num_3,0.7550653999205679,num_3,0.25,1,0.25,1.35,9.01073,48.65795,return,2.29280239995569,,,,,,,3,23,female,up_down_width,2023_Aug_14_1422,exp1,2021.2.3,60.00470434875859,
,,,,,,,,,,,,,,,,3,9.1,10,10.9,0,0,0.9,0.65,0.25,2.05,10,initial,36.05,328,361,393,0,0,9,9,9,0,0,,,,,3,0,3,0,0,31,31,14,,,,,num_3,0.8426617998629808,num_3,0.3,0.5,0.15000000000000002,0.95,5.40644,34.24078,return,4.744197799824178,,,,,,,3,23,female,up_down_width,2023_Aug_14_1422,exp1,2021.2.3,60.00470434875859,
,,,,,,,,,,,,,,,,3,9.5,10,10.5,0,0,0.5,0.09999999999999998,0.4,1.4000000000000001,10,initial,36.05,342,361,379,0,0,9,9,9,0,0,,,,,3,0,3,0,0,32,32,4,,,,,num_2,0.8904844000935555,num_2,0.1,1.6,0.35,0.5,12.61502,18.02146,return,5.958890400128439,,,,,,,3,23,female,up_down_width,2023_Aug_14_1422,exp1,2021.2.3,60.00470434875859,
,,,,,,,,,,,,,,,,3,9.5,10,10.5,0,0,0.5,0.4,0.1,1.1,10,initial,36.05,342,361,379,0,0,9,9,9,0,0,,,,,3,0,3,0,0,33,33,0,,,,,num_2,0.8776958999224007,num_2,0.45,1.6,0.10000000000000007,0.5,3.60429,18.02146,return,6.793257899815217,,,,,,,3,23,female,up_down_width,2023_Aug_14_1422,exp1,2021.2.3,60.00470434875859,
,,,,,,,,,,,,,,,,4,9.1,9.7,10.3,10.9,0,0.6,0.5,0.1,1.9,10,match,36.05,328,350,371,393,0,9,9,9,9,0,,,,,3,0,3,0,0,34,34,13,,,,,num_5,1.184848700184375,num_5,0.3,1.0,0.15000000000000002,0.5,5.40644,18.02146,return,4.109838699921966,,,,,,,3,23,female,up_down_width,2023_Aug_14_1422,exp1,2021.2.3,60.00470434875859,
,,,,,,,,,,,,,,,,5,9,9.5,10,10.5,11,0.5,0.25,0.25,2.25,10,initial,36.05,324,342,361,379,397,9,9,9,9,9,,,,,3,0,3,0,0,35,35,38,,,,,num_4,1.393812500173226,num_4,0.45,0.7,0.25000000000000006,0.5,9.01073,18.02146,return,2.697859700070694,,,,,,,3,23,female,up_down_width,2023_Aug_14_1422,exp1,2021.2.3,60.00470434875859,
,,,,,,,,,,,,,,,,4,9.25,9.75,10.25,10.75,0,0.5,0.4,0.1,1.6,10,initial,36.05,333,351,370,388,0,9,9,9,9,0,,,,,3,0,3,0,0,36,36,18,,,,,num_3,1.001907099969685,num_3,0.2,0.4,0.05000000000000002,0.4,1.80215,14.41717,return,1.9039622999262065,,,,,,,3,23,female,up_down_width,2023_Aug_14_1422,exp1,2021.2.3,60.00470434875859,
,,,,,,,,,,,,,,,,4,9.3,9.766666666666667,10.233333333333333,10.7,0,0.4666666666666667,0.06666666666666665,0.4,1.8,10,match,36.05,335,352,369,386,0,9,9,9,9,0,,,,,3,0,3,0,0,37,37,11,,,,,num_3,1.0730489001143724,num_3,0.25,1.3,0.3,0.4,10.81288,14.41717,return,6.309830999933183,,,,,,,3,23,female,up_down_width,2023_Aug_14_1422,exp1,2021.2.3,60.00470434875859,
,,,,,,,,,,,,,,,,5,9.175,9.5875,10,10.4125,10.825,0.4125,0.16249999999999998,0.25,1.9,10,match,36.05,331,346,361,375,390,9,9,9,9,9,,,,,3,0,3,0,0,38,38,23,,,,,num_4,1.173273199936375,num_4,0.45,0.6,0.30000000000000004,0.4,10.81288,14.41717,return,4.1337995999492705,,,,,,,3,23,female,up_down_width,2023_Aug_14_1422,exp1,2021.2.3,60.00470434875859,
,,,,,,,,,,,,,,,,4,9.5,9.833333333333334,10.166666666666666,10.5,0,0.33333333333333337,0.23333333333333336,0.1,1.1,10,match,36.05,342,354,367,379,0,9,9,9,9,0,,,,,3,0,3,0,0,39,39,1,,,,,num_3,1.2127048999536783,num_3,0.35,1.1,0.10000000000000002,0.2,3.60429,7.20859,return,10.011151200160384,,,,,,,3,23,female,up_down_width,2023_Aug_14_1422,exp1,2021.2.3,60.00470434875859,
,,,,,,,,,,,,,,,,4,9.3,9.766666666666667,10.233333333333333,10.7,0,0.4666666666666667,0.21666666666666665,0.25,1.65,10,match,36.05,335,352,369,386,0,9,9,9,9,0,,,,,3,0,3,0,0,40,40,9,,,,,num_3,1.1432666000910103,num_3,0.25,0.9,0.15000000000000002,0.3,5.40644,10.81288,return,6.281271700048819,,,,,,,3,23,female,up_down_width,2023_Aug_14_1422,exp1,2021.2.3,60.00470434875859,
,,,,,,,,,,,,,,,,3,9.3,10,10.7,0,0,0.7,0.29999999999999993,0.4,1.8,10,initial,36.05,335,361,386,0,0,9,9,9,0,0,,,,,3,0,3,0,0,41,41,10,,,,,num_2,1.2158582000993192,num_2,0.25,1.6,0.25,0.5,9.01073,18.02146,return,3.182640800019726,,,,,,,3,23,female,up_down_width,2023_Aug_14_1422,exp1,2021.2.3,60.00470434875859,
,,,,,,,,,,,,,,,,5,8.2,9.1,10,10.9,11.8,0.9,0.8,0.1,3.7,10,initial,36.05,296,328,361,393,425,9,9,9,9,9,,,,,3,0,3,0,0,42,42,48,,,,,num_5,1.0318676999304444,num_5,0.35,1.1,0.10000000000000002,0.9,3.60429,32.43864,return,2.9751715001184493,,,,,,,3,23,female,up_down_width,2023_Aug_14_1422,exp1,2021.2.3,60.00470434875859,
,,,,,,,,,,,,,,,,4,8.65,9.55,10.45,11.35,0,0.9,0.5,0.4,3.1,10,initial,36.05,312,344,377,409,0,9,9,9,9,0,,,,,3,0,3,0,0,43,43,34,,,,,num_4,0.9732793997973204,num_4,0.15,0.9,0.25,0.8,9.01073,28.83434,return,2.2780271000228822,,,,,,,3,23,female,up_down_width,2023_Aug_14_1422,exp1,2021.2.3,60.00470434875859,
,,,,,,,,,,,,,,,,3,8.6,10,11.4,0,0,1.4,1.2999999999999998,0.1,2.9,10,match,36.05,310,361,411,0,0,9,9,9,0,0,,,,,3,0,3,0,0,44,44,43,,,,,num_3,0.9863877000752836,num_3,0.2,1.3,0.10000000000000002,1.2,3.60429,43.25151,return,3.569611300015822,,,,,,,3,23,female,up_down_width,2023_Aug_14_1422,exp1,2021.2.3,60.00470434875859,
,,,,,,,,,,,,,,,,4,8.95,9.65,10.35,11.05,0,0.7,0.6,0.1,2.1999999999999997,10,initial,36.05,323,348,373,398,0,9,9,9,9,0,,,,,3,0,3,0,0,45,45,24,,,,,num_4,0.8799447000492364,num_4,0.2,0.6,0.05000000000000002,0.8,1.80215,28.83434,return,3.1493570001330227,,,,,,,3,23,female,up_down_width,2023_Aug_14_1422,exp1,2021.2.3,60.00470434875859,
,,,,,,,,,,,,,,,,4,8.95,9.65,10.35,11.05,0,0.7,0.29999999999999993,0.4,2.5,10,initial,36.05,323,348,373,398,0,9,9,9,9,0,,,,,3,0,3,0,0,46,46,28,,,,,num_4,1.2525835998822004,num_4,0.45,0.6,0.45,0.9,16.21932,32.43864,return,2.5945939999073744,,,,,,,3,23,female,up_down_width,2023_Aug_14_1422,exp1,2021.2.3,60.00470434875859,
,,,,,,,,,,,,,,,,5,8.65,9.325,10,10.675,11.35,0.675,0.275,0.4,3.1,10,match,36.05,312,336,361,385,409,9,9,9,9,9,,,,,3,0,3,0,0,47,47,35,,,,,num_5,0.9078416000120342,num_5,0.35,0.5,0.35,0.75,12.61502,27.0322,return,2.6153201998677105,,,,,,,3,23,female,up_down_width,2023_Aug_14_1422,exp1,2021.2.3,60.00470434875859,
,,,,,,,,,,,,,,,,5,9,9.5,10,10.5,11,0.5,0.09999999999999998,0.4,2.4,10,initial,36.05,324,342,361,379,397,9,9,9,9,9,,,,,3,0,3,0,0,48,48,40,,,,,num_4,1.7965852001216263,num_4,0.25,1.2,0.35,0.5,12.61502,18.02146,return,4.173210500041023,,,,,,,3,23,female,up_down_width,2023_Aug_14_1422,exp1,2021.2.3,60.00470434875859,
,,,,,,,,,,,,,,,,5,8.6,9.3,10,10.7,11.4,0.7,0.44999999999999996,0.25,3.05,10,initial,36.05,310,335,361,386,411,9,9,9,9,9,,,,,3,0,3,0,0,49,49,44,,,,,num_4,1.2613666001707315,num_4,0.3,0.6,0.3,0.9,10.81288,32.43864,return,1.9114399999380112,,,,,,,3,23,female,up_down_width,2023_Aug_14_1422,exp1,2021.2.3,60.00470434875859,
,,,,,,,,,,,,,,,,3,9.5,10,10.5,0,0,0.5,0.25,0.25,1.25,10,initial,36.05,342,361,379,0,0,9,9,9,0,0,,,,,3,0,3,0,0,50,50,2,,,,,num_2,1.0661855998914689,num_2,0.2,1.6,0.25,0.4,9.01073,14.41717,return,4.221187999937683,,,,,,,3,23,female,up_down_width,2023_Aug_14_1422,exp1,2021.2.3,60.00470434875859,
,,,,,,,,,,,,,,,,3,9.3,10,10.7,0,0,0.7,0.44999999999999996,0.25,1.65,10,initial,36.05,335,361,386,0,0,9,9,9,0,0,,,,,3,0,3,0,0,51,51,8,,,,,num_3,0.8658199000637978,num_3,0.15,0.5,0.25,0.45,9.01073,16.21932,return,2.4134670000057667,,,,,,,3,23,female,up_down_width,2023_Aug_14_1422,exp1,2021.2.3,60.00470434875859,
,,,,,,,,,,,,,,,,5,8.65,9.325,10,10.675,11.35,0.675,0.42500000000000004,0.25,2.95,10,match,36.05,312,336,361,385,409,9,9,9,9,9,,,,,3,0,3,0,0,52,52,33,,,,,num_5,1.2845218000002205,num_5,0.1,1.1,0.35,0.7,12.61502,25.23005,return,4.030536599922925,,,,,,,3,23,female,up_down_width,2023_Aug_14_1422,exp1,2021.2.3,60.00470434875859,
,,,,,,,,,,,,,,,,4,9.1,9.7,10.3,10.9,0,0.6000000000000001,0.20000000000000004,0.4,2.2,10,match,36.05,328,350,371,393,0,9,9,9,9,0,,,,,3,0,3,0,0,53,53,17,,,,,num_3,0.9879217999987304,num_3,0.35,1,0.3,0.7,10.81288,25.23005,return,2.37108669988811,,,,,,,3,23,female,up_down_width,2023_Aug_14_1422,exp1,2021.2.3,60.00470434875859,
,,,,,,,,,,,,,,,,,,,,,,,,,,,,,,,,,,,,,,,,,,,3,0,3,0,,,,,,,,,,,,,,,,,,,,,,1832.5113983999472,None,1832.5113983999472,None,3,23,female,up_down_width,2023_Aug_14_1422,exp1,2021.2.3,60.00470434875859,
,,,,,,,,,,,,,,,,4,9.25,9.75,10.25,10.75,0,0.5,0.09999999999999998,0.4,1.9,10,initial,36.05,333,351,370,388,0,9,9,9,9,0,,,,,4,0,4,0,0,0,0,22,,,,,num_3,1.0484392000362277,num_3,0.25,0.3,0.25,0.3,9.01073,10.81288,return,2.0950445998460054,,,,,,,3,23,female,up_down_width,2023_Aug_14_1422,exp1,2021.2.3,60.00470434875859,
,,,,,,,,,,,,,,,,4,9.1,9.7,10.3,10.9,0,0.6,0.5,0.1,1.9,10,match,36.05,328,350,371,393,0,9,9,9,9,0,,,,,4,0,4,0,0,1,1,13,,,,,num_4,1.052570200059563,num_4,0.3,1.2,0.15000000000000002,0.5,5.40644,18.02146,return,3.4573282999917865,,,,,,,3,23,female,up_down_width,2023_Aug_14_1422,exp1,2021.2.3,60.00470434875859,
,,,,,,,,,,,,,,,,3,8.2,10,11.8,0,0,1.7999999999999998,1.4,0.4,4,10,match,36.05,296,361,425,0,0,9,9,9,0,0,,,,,4,0,4,0,0,2,2,53,,,,,num_3,0.8731295999605209,num_3,0.15,0.9,0.35,1.25,12.61502,45.05366,return,3.253830299945548,,,,,,,3,23,female,up_down_width,2023_Aug_14_1422,exp1,2021.2.3,60.00470434875859,
,,,,,,,,,,,,,,,,3,9.3,10,10.7,0,0,0.7,0.6,0.1,1.5,10,initial,36.05,335,361,386,0,0,9,9,9,0,0,,,,,4,0,4,0,0,3,3,6,,,,,num_3,1.103897999972105,num_3,0.3,0.5,0.05000000000000002,0.55,1.80215,19.82361,return,2.7542898000683635,,,,,,,3,23,female,up_down_width,2023_Aug_14_1422,exp1,2021.2.3,60.00470434875859,
,,,,,,,,,,,,,,,,5,8.6,9.3,10,10.7,11.4,0.7,0.29999999999999993,0.4,3.1999999999999997,10,initial,36.05,310,335,361,386,411,9,9,9,9,9,,,,,4,0,4,0,0,4,4,46,,,,,num_5,0.9412953001447022,num_5,0.35,0.8,0.3,0.75,10.81288,27.0322,return,2.4945150001440197,,,,,,,3,23,female,up_down_width,2023_Aug_14_1422,exp1,2021.2.3,60.00470434875859,
,,,,,,,,,,,,,,,,5,9.25,9.625,10,10.375,10.75,0.375,0.275,0.1,1.6,10,match,36.05,333,347,361,374,388,9,9,9,9,9,,,,,4,0,4,0,0,5,5,19,,,,,num_4,1.4719980000518262,num_4,0.1,0.9,0.1,0.5,3.60429,18.02146,return,2.1653255000710487,,,,,,,3,23,female,up_down_width,2023_Aug_14_1422,exp1,2021.2.3,60.00470434875859,
,,,,,,,,,,,,,,,,4,8.65,9.55,10.45,11.35,0,0.9,0.8,0.1,2.8000000000000003,10,initial,36.05,312,344,377,409,0,9,9,9,9,0,,,,,4,0,4,0,0,6,6,30,,,,,num_5,1.3502499000169337,num_5,0.15,0.6,0.04999999999999999,0.8,1.80215,28.83434,return,3.437966300174594,,,,,,,3,23,female,up_down_width,2023_Aug_14_1422,exp1,2021.2.3,60.00470434875859,
,,,,,,,,,,,,,,,,5,9,9.5,10,10.5,11,0.5,0.09999999999999998,0.4,2.4,10,initial,36.05,324,342,361,379,397,9,9,9,9,9,,,,,4,0,4,0,0,7,7,40,,,,,num_5,1.0745149999856949,num_5,0.1,0.8,0.25,0.55,9.01073,19.82361,return,3.94391499995254,,,,,,,3,23,female,up_down_width,2023_Aug_14_1422,exp1,2021.2.3,60.00470434875859,
,,,,,,,,,,,,,,,,4,9.1,9.7,10.3,10.9,0,0.5999999999999999,0.3499999999999999,0.25,2.05,10,match,36.05,328,350,371,393,0,9,9,9,9,0,,,,,4,0,4,0,0,8,8,15,,,,,num_4,1.0997833001893014,num_4,0.25,0.3,0.2,0.5,7.20859,18.02146,return,2.7968313000164926,,,,,,,3,23,female,up_down_width,2023_Aug_14_1422,exp1,2021.2.3,60.00470434875859,
,,,,,,,,,,,,,,,,4,9.25,9.75,10.25,10.75,0,0.5,0.4,0.1,1.6,10,initial,36.05,333,351,370,388,0,9,9,9,9,0,,,,,4,0,4,0,0,9,9,18,,,,,num_4,1.0313881000038236,num_4,0.15,0.6,0.09999999999999999,0.5,3.60429,18.02146,return,1.4378774999640882,,,,,,,3,23,female,up_down_width,2023_Aug_14_1422,exp1,2021.2.3,60.00470434875859,
,,,,,,,,,,,,,,,,5,8.6,9.3,10,10.7,11.4,0.7,0.6,0.1,2.9,10,initial,36.05,310,335,361,386,411,9,9,9,9,9,,,,,4,0,4,0,0,10,10,42,,,,,num_5,0.8585967000108212,num_5,0.35,1.2,0.10000000000000002,0.6,3.60429,21.62576,return,5.4448546001221985,,,,,,,3,23,female,up_down_width,2023_Aug_14_1422,exp1,2021.2.3,60.00470434875859,
,,,,,,,,,,,,,,,,3,9,10,11,0,0,1,0.75,0.25,2.25,10,match,36.05,324,361,397,0,0,9,9,9,0,0,,,,,4,0,4,0,0,11,11,39,,,,,num_3,1.284904700005427,num_3,0.1,0.6,0.10000000000000002,0.85,3.60429,30.63649,return,8.142660800134763,,,,,,,3,23,female,up_down_width,2023_Aug_14_1422,exp1,2021.2.3,60.00470434875859,
,,,,,,,,,,,,,,,,4,8.95,9.65,10.35,11.05,0,0.7,0.29999999999999993,0.4,2.5,10,initial,36.05,323,348,373,398,0,9,9,9,9,0,,,,,4,0,4,0,0,12,12,28,,,,,num_3,0.9569188000168651,num_3,0.2,0.5,0.25,0.95,9.01073,34.24078,return,3.1578732999041677,,,,,,,3,23,female,up_down_width,2023_Aug_14_1422,exp1,2021.2.3,60.00470434875859,
,,,,,,,,,,,,,,,,3,8.6,10,11.4,0,0,1.4,1.2999999999999998,0.1,2.9,10,match,36.05,310,361,411,0,0,9,9,9,0,0,,,,,4,0,4,0,0,13,13,43,,,,,num_3,0.7652789999265224,num_3,0.45,0.8,0.15000000000000008,1.2,5.40644,43.25151,return,6.766004000091925,,,,,,,3,23,female,up_down_width,2023_Aug_14_1422,exp1,2021.2.3,60.00470434875859,
,,,,,,,,,,,,,,,,3,9.1,10,10.9,0,0,0.9,0.65,0.25,2.05,10,initial,36.05,328,361,393,0,0,9,9,9,0,0,,,,,4,0,4,0,0,14,14,14,,,,,num_3,0.9838060000911355,num_3,0.45,1,0.15000000000000008,1.1,5.40644,39.64722,return,5.0378652000799775,,,,,,,3,23,female,up_down_width,2023_Aug_14_1422,exp1,2021.2.3,60.00470434875859,
,,,,,,,,,,,,,,,,5,8.2,9.1,10,10.9,11.8,0.9,0.5,0.4,4,10,initial,36.05,296,328,361,393,425,9,9,9,9,9,,,,,4,0,4,0,0,15,15,52,,,,,num_5,1.0946539000142366,num_5,0.45,1.1,0.30000000000000004,0.95,10.81288,34.24078,return,7.318701900076121,,,,,,,3,23,female,up_down_width,2023_Aug_14_1422,exp1,2021.2.3,60.00470434875859,
,,,,,,,,,,,,,,,,3,8.525,10,11.475,0,0,1.475,1.225,0.25,3.2,10,match,36.05,307,361,414,0,0,9,9,9,0,0,,,,,4,0,4,0,0,16,16,47,,,,,num_3,0.8128995001316071,num_3,0.45,0.9,0.20000000000000007,1.25,7.20859,45.05366,return,4.1877574000973254,,,,,,,3,23,female,up_down_width,2023_Aug_14_1422,exp1,2021.2.3,60.00470434875859,
,,,,,,,,,,,,,,,,3,9.5,10,10.5,0,0,0.5,0.09999999999999998,0.4,1.4000000000000001,10,initial,36.05,342,361,379,0,0,9,9,9,0,0,,,,,4,0,4,0,0,17,17,4,,,,,num_2,0.8972080000676215,num_2,0.1,1.6,0.35,0.5,12.61502,18.02146,return,4.174063500016928,,,,,,,3,23,female,up_down_width,2023_Aug_14_1422,exp1,2021.2.3,60.00470434875859,
,,,,,,,,,,,,,,,,4,9.5,9.833333333333334,10.166666666666666,10.5,0,0.33333333333333337,0.23333333333333336,0.1,1.1,10,match,36.05,342,354,367,379,0,9,9,9,9,0,,,,,4,0,4,0,0,18,18,1,,,,,num_3,0.8078534998930991,num_3,0.15,0.4,0.15,0.4,5.40644,14.41717,return,1.269651799928397,,,,,,,3,23,female,up_down_width,2023_Aug_14_1422,exp1,2021.2.3,60.00470434875859,
,,,,,,,,,,,,,,,,5,8.95,9.475,10,10.525,11.05,0.525,0.125,0.4,2.5,10,match,36.05,323,342,361,379,398,9,9,9,9,9,,,,,4,0,4,0,0,19,19,29,,,,,num_4,0.868862499948591,num_4,0.25,0.5,0.35,0.6,12.61502,21.62576,return,2.404956500045955,,,,,,,3,23,female,up_down_width,2023_Aug_14_1422,exp1,2021.2.3,60.00470434875859,
,,,,,,,,,,,,,,,,3,9.3,10,10.7,0,0,0.7,0.44999999999999996,0.25,1.65,10,initial,36.05,335,361,386,0,0,9,9,9,0,0,,,,,4,0,4,0,0,20,20,8,,,,,num_2,0.7813511998392642,num_2,0.1,1.6,0.3,0.6,10.81288,21.62576,return,4.205106399953365,,,,,,,3,23,female,up_down_width,2023_Aug_14_1422,exp1,2021.2.3,60.00470434875859,
,,,,,,,,,,,,,,,,4,9.3,9.766666666666667,10.233333333333333,10.7,0,0.4666666666666667,0.3666666666666667,0.1,1.5,10,match,36.05,335,352,369,386,0,9,9,9,9,0,,,,,4,0,4,0,0,21,21,7,,,,,num_4,1.277514000190422,num_4,0.2,1.1,0.15000000000000002,0.4,5.40644,14.41717,return,4.665474799927324,,,,,,,3,23,female,up_down_width,2023_Aug_14_1422,exp1,2021.2.3,60.00470434875859,
,,,,,,,,,,,,,,,,5,9.175,9.5875,10,10.4125,10.825,0.4125,0.16249999999999998,0.25,1.9,10,match,36.05,331,346,361,375,390,9,9,9,9,9,,,,,4,0,4,0,0,22,22,23,,,,,num_5,0.9872753000818193,num_5,0.35,1.3,0.15000000000000002,0.45,5.40644,16.21932,return,13.999830200104043,,,,,,,3,23,female,up_down_width,2023_Aug_14_1422,exp1,2021.2.3,60.00470434875859,
,,,,,,,,,,,,,,,,3,9.1,10,10.9,0,0,0.9,0.8,0.1,1.9000000000000001,10,initial,36.05,328,361,393,0,0,9,9,9,0,0,,,,,4,0,4,0,0,23,23,12,,,,,num_3,2.2351756000425667,num_3,0.35,1,0.25,0.7,9.01073,25.23005,return,3.136970000108704,,,,,,,3,23,female,up_down_width,2023_Aug_14_1422,exp1,2021.2.3,60.00470434875859,
,,,,,,,,,,,,,,,,3,8.2,10,11.8,0,0,1.8000000000000003,1.7000000000000002,0.1,3.7,10,match,36.05,296,361,425,0,0,9,9,9,0,0,,,,,4,0,4,0,0,24,24,49,,,,,num_3,0.9018510000314564,num_3,0.35,1.3,0.10000000000000002,1.4,3.60429,50.4601,return,10.177717900136486,,,,,,,3,23,female,up_down_width,2023_Aug_14_1422,exp1,2021.2.3,60.00470434875859,
,,,,,,,,,,,,,,,,4,8.95,9.65,10.35,11.05,0,0.7,0.44999999999999996,0.25,2.3499999999999996,10,initial,36.05,323,348,373,398,0,9,9,9,9,0,,,,,4,0,4,0,0,25,25,26,,,,,num_4,0.9059538999572396,num_4,0.25,1.0,0.15000000000000002,0.9,5.40644,32.43864,return,2.1181844999082386,,,,,,,3,23,female,up_down_width,2023_Aug_14_1422,exp1,2021.2.3,60.00470434875859,
,,,,,,,,,,,,,,,,4,9.1,9.7,10.3,10.9,0,0.6000000000000001,0.20000000000000004,0.4,2.2,10,match,36.05,328,350,371,393,0,9,9,9,9,0,,,,,4,0,4,0,0,26,26,17,,,,,num_4,2.3046046001836658,num_4,0.3,0.7,0.3,0.7,10.81288,25.23005,return,4.164712799945846,,,,,,,3,23,female,up_down_width,2023_Aug_14_1422,exp1,2021.2.3,60.00470434875859,
,,,,,,,,,,,,,,,,4,8.65,9.55,10.45,11.35,0,0.9,0.5,0.4,3.1,10,initial,36.05,312,344,377,409,0,9,9,9,9,0,,,,,4,0,4,0,0,27,27,34,,,,,num_4,0.959466400090605,num_4,0.1,0.3,0.3,1.0,10.81288,36.04293,return,4.232042400166392,,,,,,,3,23,female,up_down_width,2023_Aug_14_1422,exp1,2021.2.3,60.00470434875859,
,,,,,,,,,,,,,,,,5,8.65,9.325,10,10.675,11.35,0.675,0.42500000000000004,0.25,2.95,10,match,36.05,312,336,361,385,409,9,9,9,9,9,,,,,4,0,4,0,0,28,28,33,,,,,num_4,0.9593301999848336,num_4,0.25,0.3,0.15000000000000002,0.9,5.40644,32.43864,return,5.592141299974173,,,,,,,3,23,female,up_down_width,2023_Aug_14_1422,exp1,2021.2.3,60.00470434875859,
,,,,,,,,,,,,,,,,3,9.3,10,10.7,0,0,0.7,0.29999999999999993,0.4,1.8,10,initial,36.05,335,361,386,0,0,9,9,9,0,0,,,,,4,0,4,0,0,29,29,10,,,,,num_2,1.4965117999818176,num_2,0.3,1.6,0.35,0.8,12.61502,28.83434,return,3.4371593000832945,,,,,,,3,23,female,up_down_width,2023_Aug_14_1422,exp1,2021.2.3,60.00470434875859,
,,,,,,,,,,,,,,,,4,9.3,9.766666666666667,10.233333333333333,10.7,0,0.4666666666666667,0.21666666666666665,0.25,1.65,10,match,36.05,335,352,369,386,0,9,9,9,9,0,,,,,4,0,4,0,0,30,30,9,,,,,num_3,1.1253881000448018,num_3,0.25,0.6,0.25,0.6,9.01073,21.62576,return,1.5096611001063138,,,,,,,3,23,female,up_down_width,2023_Aug_14_1422,exp1,2021.2.3,60.00470434875859,
,,,,,,,,,,,,,,,,3,9.5,10,10.5,0,0,0.5,0.25,0.25,1.25,10,initial,36.05,342,361,379,0,0,9,9,9,0,0,,,,,4,0,4,0,0,31,31,2,,,,,num_2,0.7472802998963743,num_2,0.2,1.6,0.2,0.4,7.20859,14.41717,return,3.868937300052494,,,,,,,3,23,female,up_down_width,2023_Aug_14_1422,exp1,2021.2.3,60.00470434875859,
,,,,,,,,,,,,,,,,5,8.65,9.325,10,10.675,11.35,0.6749999999999999,0.575,0.1,2.8,10,match,36.05,312,336,361,385,409,9,9,9,9,9,,,,,4,0,4,0,0,32,32,31,,,,,num_5,0.9967909001279622,num_5,0.2,1.1,0.10000000000000002,0.75,3.60429,27.0322,return,4.125149699859321,,,,,,,3,23,female,up_down_width,2023_Aug_14_1422,exp1,2021.2.3,60.00470434875859,
,,,,,,,,,,,,,,,,5,9,9.5,10,10.5,11,0.5,0.4,0.1,2.1,10,initial,36.05,324,342,361,379,397,9,9,9,9,9,,,,,4,0,4,0,0,33,33,36,,,,,num_5,1.0653152000159025,num_5,0.25,0.7,0.10000000000000002,0.35,3.60429,12.61502,return,6.958211399847642,,,,,,,3,23,female,up_down_width,2023_Aug_14_1422,exp1,2021.2.3,60.00470434875859,
,,,,,,,,,,,,,,,,4,9.25,9.75,10.25,10.75,0,0.5,0.25,0.25,1.75,10,initial,36.05,333,351,370,388,0,9,9,9,9,0,,,,,4,0,4,0,0,34,34,20,,,,,num_4,1.5358743001706898,num_4,0.25,1.3,0.15000000000000002,0.5,5.40644,18.02146,return,2.910955300088972,,,,,,,3,23,female,up_down_width,2023_Aug_14_1422,exp1,2021.2.3,60.00470434875859,
,,,,,,,,,,,,,,,,5,8.95,9.475,10,10.525,11.05,0.525,0.42500000000000004,0.1,2.2,10,match,36.05,323,342,361,379,398,9,9,9,9,9,,,,,4,0,4,0,0,35,35,25,,,,,num_5,0.9408978000283241,num_5,0.15,1.2,0.09999999999999999,0.55,3.60429,19.82361,return,4.3579277999233454,,,,,,,3,23,female,up_down_width,2023_Aug_14_1422,exp1,2021.2.3,60.00470434875859,
,,,,,,,,,,,,,,,,5,8.6,9.3,10,10.7,11.4,0.7,0.44999999999999996,0.25,3.05,10,initial,36.05,310,335,361,386,411,9,9,9,9,9,,,,,4,0,4,0,0,36,36,44,,,,,num_5,1.0405170999001712,num_5,0.25,1.1,0.15000000000000002,0.6,5.40644,21.62576,return,4.30955579993315,,,,,,,3,23,female,up_down_width,2023_Aug_14_1422,exp1,2021.2.3,60.00470434875859,
,,,,,,,,,,,,,,,,4,9.5,9.833333333333334,10.166666666666666,10.5,0,0.3333333333333333,0.08333333333333333,0.25,1.25,10,match,36.05,342,354,367,379,0,9,9,9,9,0,,,,,4,0,4,0,0,37,37,3,,,,,num_3,1.0301951998844743,num_3,0.4,1,0.10000000000000007,0.3,3.60429,10.81288,return,7.293063800083473,,,,,,,3,23,female,up_down_width,2023_Aug_14_1422,exp1,2021.2.3,60.00470434875859,
,,,,,,,,,,,,,,,,3,9.1,10,10.9,0,0,0.9,0.5,0.4,2.2,10,initial,36.05,328,361,393,0,0,9,9,9,0,0,,,,,4,0,4,0,0,38,38,16,,,,,num_3,0.8204727000556886,num_3,0.45,1.3,0.35000000000000003,0.75,12.61502,27.0322,return,4.434818999841809,,,,,,,3,23,female,up_down_width,2023_Aug_14_1422,exp1,2021.2.3,60.00470434875859,
,,,,,,,,,,,,,,,,5,8.2,9.1,10,10.9,11.8,0.9,0.65,0.25,3.85,10,initial,36.05,296,328,361,393,425,9,9,9,9,9,,,,,4,0,4,0,0,39,39,50,,,,,num_5,0.8713279999792576,num_5,0.2,1.2,0.2,0.8,7.20859,28.83434,return,2.4514387999661267,,,,,,,3,23,female,up_down_width,2023_Aug_14_1422,exp1,2021.2.3,60.00470434875859,
,,,,,,,,,,,,,,,,3,8.6,10,11.4,0,0,1.4,1.15,0.25,3.05,10,match,36.05,310,361,411,0,0,9,9,9,0,0,,,,,4,0,4,0,0,40,40,45,,,,,num_3,0.7550649999175221,num_3,0.25,0.9,0.2,1.2,7.20859,43.25151,return,6.296196300070733,,,,,,,3,23,female,up_down_width,2023_Aug_14_1422,exp1,2021.2.3,60.00470434875859,
,,,,,,,,,,,,,,,,5,8.65,9.325,10,10.675,11.35,0.675,0.275,0.4,3.1,10,match,36.05,312,336,361,385,409,9,9,9,9,9,,,,,4,0,4,0,0,41,41,35,,,,,num_4,0.9640837998595089,num_4,0.4,1.1,0.4,0.8,14.41717,28.83434,return,1.725100199924782,,,,,,,3,23,female,up_down_width,2023_Aug_14_1422,exp1,2021.2.3,60.00470434875859,
,,,,,,,,,,,,,,,,5,8.2,9.1,10,10.9,11.8,0.9,0.8,0.1,3.7,10,initial,36.05,296,328,361,393,425,9,9,9,9,9,,,,,4,0,4,0,0,42,42,48,,,,,num_5,0.9113404001109302,num_5,0.4,0.5,0.10000000000000007,0.55,3.60429,19.82361,return,4.186061300104484,,,,,,,3,23,female,up_down_width,2023_Aug_14_1422,exp1,2021.2.3,60.00470434875859,
,,,,,,,,,,,,,,,,3,9,10,11,0,0,1,0.9,0.1,2.1,10,match,36.05,324,361,397,0,0,9,9,9,0,0,,,,,4,0,4,0,0,43,43,37,,,,,num_3,1.1834810997825116,num_3,0.3,0.7,0.10000000000000002,1.2,3.60429,43.25151,return,4.687421600101516,,,,,,,3,23,female,up_down_width,2023_Aug_14_1422,exp1,2021.2.3,60.00470434875859,
,,,,,,,,,,,,,,,,3,8.2,10,11.8,0,0,1.8,1.55,0.25,3.85,10,match,36.05,296,361,425,0,0,9,9,9,0,0,,,,,4,0,4,0,0,44,44,51,,,,,num_4,1.2166228999849409,num_4,0.15,0.9,0.15,1.3,5.40644,46.85581,return,2.2070013000629842,,,,,,,3,23,female,up_down_width,2023_Aug_14_1422,exp1,2021.2.3,60.00470434875859,
,,,,,,,,,,,,,,,,4,9.3,9.766666666666667,10.233333333333333,10.7,0,0.4666666666666667,0.06666666666666665,0.4,1.8,10,match,36.05,335,352,369,386,0,9,9,9,9,0,,,,,4,0,4,0,0,45,45,11,,,,,num_3,0.9031370000448078,num_3,0.2,0.9,0.35,0.45,12.61502,16.21932,return,4.223452400183305,,,,,,,3,23,female,up_down_width,2023_Aug_14_1422,exp1,2021.2.3,60.00470434875859,
,,,,,,,,,,,,,,,,5,9.25,9.625,10,10.375,10.75,0.375,0.125,0.25,1.75,10,match,36.05,333,347,361,374,388,9,9,9,9,9,,,,,4,0,4,0,0,46,46,21,,,,,num_4,1.259495300007984,num_4,0.45,1.1,0.15000000000000008,0.4,5.40644,14.41717,return,8.038008600007743,,,,,,,3,23,female,up_down_width,2023_Aug_14_1422,exp1,2021.2.3,60.00470434875859,
,,,,,,,,,,,,,,,,4,9.425,9.808333333333334,10.191666666666666,10.575,0,0.3833333333333333,0.1333333333333333,0.25,1.4,10,match,36.05,340,354,367,381,0,9,9,9,9,0,,,,,4,0,4,0,0,47,47,5,,,,,num_3,0.9087511000689119,num_3,0.2,1,0.2,0.35,7.20859,12.61502,return,5.845605700043961,,,,,,,3,23,female,up_down_width,2023_Aug_14_1422,exp1,2021.2.3,60.00470434875859,
,,,,,,,,,,,,,,,,4,8.95,9.65,10.35,11.05,0,0.7,0.6,0.1,2.1999999999999997,10,initial,36.05,323,348,373,398,0,9,9,9,9,0,,,,,4,0,4,0,0,48,48,24,,,,,num_4,0.8639181000180542,num_4,0.4,0.9,0.10000000000000007,0.5,3.60429,18.02146,return,4.81288900016807,,,,,,,3,23,female,up_down_width,2023_Aug_14_1422,exp1,2021.2.3,60.00470434875859,
,,,,,,,,,,,,,,,,5,8.95,9.475,10,10.525,11.05,0.525,0.275,0.25,2.35,10,match,36.05,323,342,361,379,398,9,9,9,9,9,,,,,4,0,4,0,0,49,49,27,,,,,num_5,0.9525892999954522,num_5,0.2,1.0,0.15000000000000002,0.45,5.40644,16.21932,return,3.186289499979466,,,,,,,3,23,female,up_down_width,2023_Aug_14_1422,exp1,2021.2.3,60.00470434875859,
,,,,,,,,,,,,,,,,3,9,10,11,0,0,0.9999999999999999,0.5999999999999999,0.4,2.4,10,match,36.05,324,361,397,0,0,9,9,9,0,0,,,,,4,0,4,0,0,50,50,41,,,,,num_3,0.7864767001010478,num_3,0.4,1.1,0.4,1.15,14.41717,41.44937,return,2.9938976999837905,,,,,,,3,23,female,up_down_width,2023_Aug_14_1422,exp1,2021.2.3,60.00470434875859,
,,,,,,,,,,,,,,,,5,9,9.5,10,10.5,11,0.5,0.25,0.25,2.25,10,initial,36.05,324,342,361,379,397,9,9,9,9,9,,,,,4,0,4,0,0,51,51,38,,,,,num_5,0.9627787000499666,num_5,0.25,0.3,0.25,0.5,9.01073,18.02146,return,3.117671900196001,,,,,,,3,23,female,up_down_width,2023_Aug_14_1422,exp1,2021.2.3,60.00470434875859,
,,,,,,,,,,,,,,,,4,8.65,9.55,10.45,11.35,0,0.9,0.65,0.25,2.95,10,initial,36.05,312,344,377,409,0,9,9,9,9,0,,,,,4,0,4,0,0,52,52,32,,,,,num_5,2.7672687000595033,num_5,0.2,1.3,0.2,0.85,7.20859,30.63649,return,3.4869498000480235,,,,,,,3,23,female,up_down_width,2023_Aug_14_1422,exp1,2021.2.3,60.00470434875859,
,,,,,,,,,,,,,,,,3,9.5,10,10.5,0,0,0.5,0.4,0.1,1.1,10,initial,36.05,342,361,379,0,0,9,9,9,0,0,,,,,4,0,4,0,0,53,53,0,,,,,num_2,1.4531338000670075,num_2,0.1,1.6,0.1,0.5,3.60429,18.02146,return,2.9622070000041276,,,,,,,3,23,female,up_down_width,2023_Aug_14_1422,exp1,2021.2.3,60.00470434875859,
,,,,,,,,,,,,,,,,,,,,,,,,,,,,,,,,,,,,,,,,,,,4,0,4,0,,,,,,,,,,,,,,,,,,,,,,2249.144503199961,None,2249.144503199961,None,3,23,female,up_down_width,2023_Aug_14_1422,exp1,2021.2.3,60.00470434875859,
,,,,,,,,,,,,,,,,5,9,9.5,10,10.5,11,0.5,0.25,0.25,2.25,10,initial,36.05,324,342,361,379,397,9,9,9,9,9,,,,,5,0,5,0,0,0,0,38,,,,,num_4,1.0645985000301152,num_4,0.4,0.8,0.25000000000000006,0.7,9.01073,25.23005,return,2.814191099954769,,,,,,,3,23,female,up_down_width,2023_Aug_14_1422,exp1,2021.2.3,60.00470434875859,
,,,,,,,,,,,,,,,,5,8.2,9.1,10,10.9,11.8,0.9,0.65,0.25,3.85,10,initial,36.05,296,328,361,393,425,9,9,9,9,9,,,,,5,0,5,0,0,1,1,50,,,,,num_5,1.059368999907747,num_5,0.1,0.9,0.15000000000000002,0.7,5.40644,25.23005,return,5.224289600038901,,,,,,,3,23,female,up_down_width,2023_Aug_14_1422,exp1,2021.2.3,60.00470434875859,
,,,,,,,,,,,,,,,,3,9.1,10,10.9,0,0,0.9,0.65,0.25,2.05,10,initial,36.05,328,361,393,0,0,9,9,9,0,0,,,,,5,0,5,0,0,2,2,14,,,,,num_3,1.091095200041309,num_3,0.25,0.5,0.15000000000000002,0.6,5.40644,21.62576,return,29.828220500145108,,,,,,,3,23,female,up_down_width,2023_Aug_14_1422,exp1,2021.2.3,60.00470434875859,
,,,,,,,,,,,,,,,,5,8.6,9.3,10,10.7,11.4,0.7,0.6,0.1,2.9,10,initial,36.05,310,335,361,386,411,9,9,9,9,9,,,,,5,0,5,0,0,3,3,42,,,,,num_5,1.4460301001090556,num_5,0.2,0.5,0.05000000000000002,0.55,1.80215,19.82361,return,2.907795300008729,,,,,,,3,23,female,up_down_width,2023_Aug_14_1422,exp1,2021.2.3,60.00470434875859,
,,,,,,,,,,,,,,,,4,9.3,9.766666666666667,10.233333333333333,10.7,0,0.4666666666666667,0.06666666666666665,0.4,1.8,10,match,36.05,335,352,369,386,0,9,9,9,9,0,,,,,5,0,5,0,0,4,4,11,,,,,num_3,1.5614771998953074,num_3,0.4,1.3,0.4,0.5,14.41717,18.02146,return,6.394177800044417,,,,,,,3,23,female,up_down_width,2023_Aug_14_1422,exp1,2021.2.3,60.00470434875859,
,,,,,,,,,,,,,,,,3,8.525,10,11.475,0,0,1.475,1.225,0.25,3.2,10,match,36.05,307,361,414,0,0,9,9,9,0,0,,,,,5,0,5,0,0,5,5,47,,,,,num_3,0.8767363999504596,num_3,0.35,0.8,0.15000000000000002,1.25,5.40644,45.05366,return,3.41527899983339,,,,,,,3,23,female,up_down_width,2023_Aug_14_1422,exp1,2021.2.3,60.00470434875859,
,,,,,,,,,,,,,,,,5,8.95,9.475,10,10.525,11.05,0.525,0.42500000000000004,0.1,2.2,10,match,36.05,323,342,361,379,398,9,9,9,9,9,,,,,5,0,5,0,0,6,6,25,,,,,num_4,1.0148515000473708,num_4,0.1,1.2,0.1,0.9,3.60429,32.43864,return,4.6700899000279605,,,,,,,3,23,female,up_down_width,2023_Aug_14_1422,exp1,2021.2.3,60.00470434875859,
,,,,,,,,,,,,,,,,5,8.65,9.325,10,10.675,11.35,0.675,0.275,0.4,3.1,10,match,36.05,312,336,361,385,409,9,9,9,9,9,,,,,5,0,5,0,0,7,7,35,,,,,num_4,1.3594039001036435,num_4,0.35,0.9,0.35,0.9,12.61502,32.43864,return,1.2725192999932915,,,,,,,3,23,female,up_down_width,2023_Aug_14_1422,exp1,2021.2.3,60.00470434875859,
,,,,,,,,,,,,,,,,3,8.2,10,11.8,0,0,1.8,1.55,0.25,3.85,10,match,36.05,296,361,425,0,0,9,9,9,0,0,,,,,5,0,5,0,0,8,8,51,,,,,num_3,0.8434385000728071,num_3,0.45,0.5,0.20000000000000007,1.0,7.20859,36.04293,return,4.710444199852645,,,,,,,3,23,female,up_down_width,2023_Aug_14_1422,exp1,2021.2.3,60.00470434875859,
,,,,,,,,,,,,,,,,4,8.65,9.55,10.45,11.35,0,0.9,0.8,0.1,2.8000000000000003,10,initial,36.05,312,344,377,409,0,9,9,9,9,0,,,,,5,0,5,0,0,9,9,30,,,,,num_4,1.0009042001329362,num_4,0.4,0.6,0.05000000000000007,1.0,1.80215,36.04293,return,3.8245301998686045,,,,,,,3,23,female,up_down_width,2023_Aug_14_1422,exp1,2021.2.3,60.00470434875859,
,,,,,,,,,,,,,,,,3,8.2,10,11.8,0,0,1.8000000000000003,1.7000000000000002,0.1,3.7,10,match,36.05,296,361,425,0,0,9,9,9,0,0,,,,,5,0,5,0,0,10,10,49,,,,,num_3,0.8307191000785679,num_3,0.45,0.7,0.05000000000000007,1.05,1.80215,37.84507,return,4.743967100046575,,,,,,,3,23,female,up_down_width,2023_Aug_14_1422,exp1,2021.2.3,60.00470434875859,
,,,,,,,,,,,,,,,,5,8.6,9.3,10,10.7,11.4,0.7,0.44999999999999996,0.25,3.05,10,initial,36.05,310,335,361,386,411,9,9,9,9,9,,,,,5,0,5,0,0,11,11,44,,,,,num_5,0.9122116998769343,num_5,0.45,0.6,0.20000000000000007,0.8,7.20859,28.83434,return,3.930066999979317,,,,,,,3,23,female,up_down_width,2023_Aug_14_1422,exp1,2021.2.3,60.00470434875859,
,,,,,,,,,,,,,,,,3,8.6,10,11.4,0,0,1.4,1.2999999999999998,0.1,2.9,10,match,36.05,310,361,411,0,0,9,9,9,0,0,,,,,5,0,5,0,0,12,12,43,,,,,num_3,0.8197888999711722,num_3,0.15,0.3,0.04999999999999999,0.8,1.80215,28.83434,return,3.9385496999602765,,,,,,,3,23,female,up_down_width,2023_Aug_14_1422,exp1,2021.2.3,60.00470434875859,
,,,,,,,,,,,,,,,,3,9.5,10,10.5,0,0,0.5,0.25,0.25,1.25,10,initial,36.05,342,361,379,0,0,9,9,9,0,0,,,,,5,0,5,0,0,13,13,2,,,,,num_3,1.419720800127834,num_3,0.15,0.6,0.15,0.35,5.40644,12.61502,return,1.9038511998951435,,,,,,,3,23,female,up_down_width,2023_Aug_14_1422,exp1,2021.2.3,60.00470434875859,
,,,,,,,,,,,,,,,,3,9,10,11,0,0,0.9999999999999999,0.5999999999999999,0.4,2.4,10,match,36.05,324,361,397,0,0,9,9,9,0,0,,,,,5,0,5,0,0,14,14,41,,,,,num_3,0.8873733999207616,num_3,0.25,0.3,0.35,0.65,12.61502,23.4279,return,2.5963892000727355,,,,,,,3,23,female,up_down_width,2023_Aug_14_1422,exp1,2021.2.3,60.00470434875859,
,,,,,,,,,,,,,,,,3,8.2,10,11.8,0,0,1.7999999999999998,1.4,0.4,4,10,match,36.05,296,361,425,0,0,9,9,9,0,0,,,,,5,0,5,0,0,15,15,53,,,,,num_3,0.6731207000557333,num_3,0.25,0.3,0.39999999999999997,1.35,14.41717,48.65795,return,6.117493399884552,,,,,,,3,23,female,up_down_width,2023_Aug_14_1422,exp1,2021.2.3,60.00470434875859,
,,,,,,,,,,,,,,,,3,9,10,11,0,0,1,0.9,0.1,2.1,10,match,36.05,324,361,397,0,0,9,9,9,0,0,,,,,5,0,5,0,0,16,16,37,,,,,num_3,0.7774487999267876,num_3,0.2,0.5,0.05000000000000002,0.85,1.80215,30.63649,return,3.880116700194776,,,,,,,3,23,female,up_down_width,2023_Aug_14_1422,exp1,2021.2.3,60.00470434875859,
,,,,,,,,,,,,,,,,4,8.65,9.55,10.45,11.35,0,0.9,0.65,0.25,2.95,10,initial,36.05,312,344,377,409,0,9,9,9,9,0,,,,,5,0,5,0,0,17,17,32,,,,,num_4,1.054511700058356,num_4,0.45,1.2,0.25000000000000006,1.0,9.01073,36.04293,return,3.5554961999878287,,,,,,,3,23,female,up_down_width,2023_Aug_14_1422,exp1,2021.2.3,60.00470434875859,
,,,,,,,,,,,,,,,,5,9.25,9.625,10,10.375,10.75,0.375,0.125,0.25,1.75,10,match,36.05,333,347,361,374,388,9,9,9,9,9,,,,,5,0,5,0,0,18,18,21,,,,,num_4,2.8693564001005143,num_4,0.1,1.3,0.15000000000000002,0.3,5.40644,10.81288,return,5.327629099832848,,,,,,,3,23,female,up_down_width,2023_Aug_14_1422,exp1,2021.2.3,60.00470434875859,
,,,,,,,,,,,,,,,,4,9.3,9.766666666666667,10.233333333333333,10.7,0,0.4666666666666667,0.3666666666666667,0.1,1.5,10,match,36.05,335,352,369,386,0,9,9,9,9,0,,,,,5,0,5,0,0,19,19,7,,,,,num_3,0.8767077999655157,num_3,0.4,1.1,0.05000000000000007,0.35,1.80215,12.61502,return,5.52880740002729,,,,,,,3,23,female,up_down_width,2023_Aug_14_1422,exp1,2021.2.3,60.00470434875859,
,,,,,,,,,,,,,,,,5,8.2,9.1,10,10.9,11.8,0.9,0.5,0.4,4,10,initial,36.05,296,328,361,393,425,9,9,9,9,9,,,,,5,0,5,0,0,20,20,52,,,,,num_6,1.2182499000336975,num_6,0.4,0.5,0.4,0.8,14.41717,28.83434,return,3.1343975998461246,,,,,,,3,23,female,up_down_width,2023_Aug_14_1422,exp1,2021.2.3,60.00470434875859,
,,,,,,,,,,,,,,,,4,8.95,9.65,10.35,11.05,0,0.7,0.6,0.1,2.1999999999999997,10,initial,36.05,323,348,373,398,0,9,9,9,9,0,,,,,5,0,5,0,0,21,21,24,,,,,num_4,1.5941226000431925,num_4,0.4,1.1,0.10000000000000007,0.6,3.60429,21.62576,return,4.682284299982712,,,,,,,3,23,female,up_down_width,2023_Aug_14_1422,exp1,2021.2.3,60.00470434875859,
,,,,,,,,,,,,,,,,4,9.1,9.7,10.3,10.9,0,0.5999999999999999,0.3499999999999999,0.25,2.05,10,match,36.05,328,350,371,393,0,9,9,9,9,0,,,,,5,0,5,0,0,22,22,15,,,,,num_3,1.2469407999888062,num_3,0.15,1.2,0.15,0.5,5.40644,18.02146,return,4.65303419996053,,,,,,,3,23,female,up_down_width,2023_Aug_14_1422,exp1,2021.2.3,60.00470434875859,
,,,,,,,,,,,,,,,,5,8.65,9.325,10,10.675,11.35,0.675,0.42500000000000004,0.25,2.95,10,match,36.05,312,336,361,385,409,9,9,9,9,9,,,,,5,0,5,0,0,23,23,33,,,,,num_5,0.9107345999218524,num_5,0.1,0.6,0.2,0.6,7.20859,21.62576,return,2.393261600052938,,,,,,,3,23,female,up_down_width,2023_Aug_14_1422,exp1,2021.2.3,60.00470434875859,
,,,,,,,,,,,,,,,,5,9,9.5,10,10.5,11,0.5,0.4,0.1,2.1,10,initial,36.05,324,342,361,379,397,9,9,9,9,9,,,,,5,0,5,0,0,24,24,36,,,,,num_4,0.9142036000266671,num_4,0.15,0.9,0.15,0.6,5.40644,21.62576,return,1.9012124999426305,,,,,,,3,23,female,up_down_width,2023_Aug_14_1422,exp1,2021.2.3,60.00470434875859,
,,,,,,,,,,,,,,,,3,8.6,10,11.4,0,0,1.4,1.15,0.25,3.05,10,match,36.05,310,361,411,0,0,9,9,9,0,0,,,,,5,0,5,0,0,25,25,45,,,,,num_3,0.7775824000127614,num_3,0.3,1,0.2,1.35,7.20859,48.65795,return,3.574989400105551,,,,,,,3,23,female,up_down_width,2023_Aug_14_1422,exp1,2021.2.3,60.00470434875859,
,,,,,,,,,,,,,,,,4,8.65,9.55,10.45,11.35,0,0.9,0.5,0.4,3.1,10,initial,36.05,312,344,377,409,0,9,9,9,9,0,,,,,5,0,5,0,0,26,26,34,,,,,num_4,0.9787451999727637,num_4,0.1,0.4,0.39999999999999997,0.8,14.41717,28.83434,return,3.738947000121698,,,,,,,3,23,female,up_down_width,2023_Aug_14_1422,exp1,2021.2.3,60.00470434875859,
