amount_p,posx1_p,posx2_p,posx3_p,posx4_p,posx5_p,center_to_center_p,edge_to_edge_p,w_p,stim_lengt_p,eccentricity_p,line1_p,line2_p,line3_p,line4_p,line5_p,amount,posx1,posx2,posx3,posx4,posx5,center_to_center,edge_to_edge,w,stim_length,eccentricity,trial_type,deg_to_pix_index,posx1_in_pix,posx2_in_pix,posx3_in_pix,posx4_in_pix,posx5_in_pix,line1,line2,line3,line4,line5,trials.thisRepN,trials.thisTrialN,trials.thisN,trials.thisIndex,blocks.thisRepN,blocks.thisTrialN,blocks.thisN,blocks.thisIndex,loop.thisRepN,loop.thisTrialN,loop.thisN,loop.thisIndex,key_resp_3.keys,key_resp_3.rt,key_resp_3.started,key_resp_3.stopped,key_resp.keys,key_resp.rt,response,starting_width_deg,starting_space_deg,response_width_degree,response_spacing_degree,response_width_pixel,response_spacing_pixel,next_5.keys,next_5.rt,key_resp_4.keys,key_resp_4.rt,text_3.started,text_3.stopped,text_4.started,text_4.stopped,participant,age,gender,resp_group,date,expName,psychopyVersion,frameRate,
,,,,,,,,,,,,,,,,,,,,,,,,,,,,,,,,,,,,,,,,,,,,,,,,,,,c,104.85078239999712,23.295795700047165,None,,,,,,,,,,,,,,,,,,4,22,female,left_right_width,2023_Aug_14_1524,exp1,2021.2.3,60.14614310501687,
5,9,9.5,10,10.5,11,0.5,0.09999999999999998,0.4,2.4,10,9,9,9,9,9,,,,,,,,,,,,,,,,,,,,,,,,0,0,0,8,,,,,,,,,,,,,num_4,3.14176889997907,num_4,0.1,0.7,0.15000000000000002,0.6,5.40644,21.62576,return,19.105475599877536,,,,,,,4,22,female,left_right_width,2023_Aug_14_1524,exp1,2021.2.3,60.14614310501687,
4,8.65,9.55,10.45,11.35,0,0.9,0.5,0.4,3.1,10,9,9,9,9,0,,,,,,,,,,,,,,,,,,,,,,,,0,1,1,5,,,,,,,,,,,,,num_4,1.7624540000688285,num_4,0.2,1.0,0.25,1.1,9.01073,39.64722,return,4.057214200031012,,,,,,,4,22,female,left_right_width,2023_Aug_14_1524,exp1,2021.2.3,60.14614310501687,
3,9,10,11,0,0,1,0.9,0.1,2.1,10,9,9,9,0,0,,,,,,,,,,,,,,,,,,,,,,,,0,2,2,1,,,,,,,,,,,,,num_3,2.8176629000809044,num_3,0.1,0.5,0.05000000000000002,0.7,1.80215,25.23005,return,9.295444500166923,,,,,,,4,22,female,left_right_width,2023_Aug_14_1524,exp1,2021.2.3,60.14614310501687,
3,9.5,10,10.5,0,0,0.5,0.4,0.1,1.1,10,9,9,9,0,0,,,,,,,,,,,,,,,,,,,,,,,,0,3,3,0,,,,,,,,,,,,,num_3,1.8644383000209928,num_3,0.1,0.9,0.05,1.0,1.80215,36.04293,return,5.244730499805883,,,,,,,4,22,female,left_right_width,2023_Aug_14_1524,exp1,2021.2.3,60.14614310501687,
4,9.25,9.75,10.25,10.75,0,0.5,0.25,0.25,1.75,10,9,9,9,9,0,,,,,,,,,,,,,,,,,,,,,,,,0,4,4,4,,,,,,,,,,,,,num_4,1.4320388999767601,num_4,0.15,0.8,0.15000000000000002,0.7,5.40644,25.23005,return,8.477030499838293,,,,,,,4,22,female,left_right_width,2023_Aug_14_1524,exp1,2021.2.3,60.14614310501687,
4,9.5,9.833333333333334,10.166666666666666,10.5,0,0.33333333333333337,0.23333333333333336,0.1,1.1,10,9,9,9,9,0,,,,,,,,,,,,,,,,,,,,,,,,0,5,5,3,,,,,,,,,,,,,num_4,1.4791758998762816,num_4,0.15,1.2,0.04999999999999999,1.3,1.80215,46.85581,return,5.7549346999730915,,,,,,,4,22,female,left_right_width,2023_Aug_14_1524,exp1,2021.2.3,60.14614310501687,
5,9.25,9.625,10,10.375,10.75,0.375,0.125,0.25,1.75,10,9,9,9,9,9,,,,,,,,,,,,,,,,,,,,,,,,0,6,6,6,,,,,,,,,,,,,num_4,1.451056299963966,num_4,0.2,1.0,0.15000000000000002,1.1,5.40644,39.64722,return,8.863968800054863,,,,,,,4,22,female,left_right_width,2023_Aug_14_1524,exp1,2021.2.3,60.14614310501687,
5,8.6,9.3,10,10.7,11.4,0.7,0.29999999999999993,0.4,3.1999999999999997,10,9,9,9,9,9,,,,,,,,,,,,,,,,,,,,,,,,0,7,7,7,,,,,,,,,,,,,num_4,1.3702894998714328,num_4,0.45,0.8,0.30000000000000004,1.1,10.81288,39.64722,return,8.898474200163037,,,,,,,4,22,female,left_right_width,2023_Aug_14_1524,exp1,2021.2.3,60.14614310501687,
3,8.2,10,11.8,0,0,1.7999999999999998,1.4,0.4,4,10,9,9,9,0,0,,,,,,,,,,,,,,,,,,,,,,,,0,8,8,2,,,,,,,,,,,,,num_3,1.7869287999346852,num_3,0.2,1.3,0.3,1.3,10.81288,46.85581,return,4.066772900056094,,,,,,,4,22,female,left_right_width,2023_Aug_14_1524,exp1,2021.2.3,60.14614310501687,
,,,,,,,,,,,,,,,,,,,,,,,,,,,,,,,,,,,,,,,,,,,,,,,,,,,,,,,,,,,,,,,,,,c,42.1255801001098,,,,,4,22,female,left_right_width,2023_Aug_14_1524,exp1,2021.2.3,60.14614310501687,
,,,,,,,,,,,,,,,,5,8.6,9.3,10,10.7,11.4,0.7,0.44999999999999996,0.25,3.05,10,initial,36.05,310,335,361,386,411,9,9,9,9,9,,,,,0,0,0,0,0,0,0,44,,,,,num_4,1.090139500098303,num_4,0.2,1.2,0.15000000000000002,1.1,5.40644,39.64722,return,6.104610400041565,,,,,,,4,22,female,left_right_width,2023_Aug_14_1524,exp1,2021.2.3,60.14614310501687,
,,,,,,,,,,,,,,,,5,8.65,9.325,10,10.675,11.35,0.6749999999999999,0.575,0.1,2.8,10,match,36.05,312,336,361,385,409,9,9,9,9,9,,,,,0,0,0,0,0,1,1,31,,,,,num_4,1.4445306998677552,num_4,0.15,0.4,0.05000000000000002,0.7,1.80215,25.23005,return,5.737811799859628,,,,,,,4,22,female,left_right_width,2023_Aug_14_1524,exp1,2021.2.3,60.14614310501687,
,,,,,,,,,,,,,,,,3,8.2,10,11.8,0,0,1.7999999999999998,1.4,0.4,4,10,match,36.05,296,361,425,0,0,9,9,9,0,0,,,,,0,0,0,0,0,2,2,53,,,,,num_3,1.9368708000984043,num_3,0.35,0.8,0.15000000000000002,0.95,5.40644,34.24078,return,6.273539999965578,,,,,,,4,22,female,left_right_width,2023_Aug_14_1524,exp1,2021.2.3,60.14614310501687,
,,,,,,,,,,,,,,,,5,9.175,9.5875,10,10.4125,10.825,0.4125,0.16249999999999998,0.25,1.9,10,match,36.05,331,346,361,375,390,9,9,9,9,9,,,,,0,0,0,0,0,3,3,23,,,,,num_4,1.2958382999058813,num_4,0.4,1.0,0.25000000000000006,1.1,9.01073,39.64722,return,7.752240899950266,,,,,,,4,22,female,left_right_width,2023_Aug_14_1524,exp1,2021.2.3,60.14614310501687,
,,,,,,,,,,,,,,,,4,9.1,9.7,10.3,10.9,0,0.5999999999999999,0.3499999999999999,0.25,2.05,10,match,36.05,328,350,371,393,0,9,9,9,9,0,,,,,0,0,0,0,0,4,4,15,,,,,num_4,2.314765399787575,num_4,0.3,0.9,0.25,0.9,9.01073,32.43864,return,4.010920099914074,,,,,,,4,22,female,left_right_width,2023_Aug_14_1524,exp1,2021.2.3,60.14614310501687,
,,,,,,,,,,,,,,,,4,8.65,9.55,10.45,11.35,0,0.9,0.8,0.1,2.8000000000000003,10,initial,36.05,312,344,377,409,0,9,9,9,9,0,,,,,0,0,0,0,0,5,5,30,,,,,num_3,2.020164299989119,num_3,0.25,0.4,0.05000000000000002,0.8,1.80215,28.83434,return,5.631726699881256,,,,,,,4,22,female,left_right_width,2023_Aug_14_1524,exp1,2021.2.3,60.14614310501687,
,,,,,,,,,,,,,,,,3,8.6,10,11.4,0,0,1.4,1.2999999999999998,0.1,2.9,10,match,36.05,310,361,411,0,0,9,9,9,0,0,,,,,0,0,0,0,0,6,6,43,,,,,num_3,2.4772138001862913,num_3,0.3,0.9,0.10000000000000002,1.05,3.60429,37.84507,return,7.896512700011954,,,,,,,4,22,female,left_right_width,2023_Aug_14_1524,exp1,2021.2.3,60.14614310501687,
,,,,,,,,,,,,,,,,5,9,9.5,10,10.5,11,0.5,0.4,0.1,2.1,10,initial,36.05,324,342,361,379,397,9,9,9,9,9,,,,,0,0,0,0,0,7,7,36,,,,,num_3,2.5550842001102865,num_3,0.45,0.8,0.05000000000000007,1.05,1.80215,37.84507,return,6.81822989997454,,,,,,,4,22,female,left_right_width,2023_Aug_14_1524,exp1,2021.2.3,60.14614310501687,
,,,,,,,,,,,,,,,,3,9.1,10,10.9,0,0,0.9,0.8,0.1,1.9000000000000001,10,initial,36.05,328,361,393,0,0,9,9,9,0,0,,,,,0,0,0,0,0,8,8,12,,,,,num_3,1.4551244000904262,num_3,0.25,0.4,0.05000000000000002,0.75,1.80215,27.0322,return,4.908199900062755,,,,,,,4,22,female,left_right_width,2023_Aug_14_1524,exp1,2021.2.3,60.14614310501687,
,,,,,,,,,,,,,,,,3,8.2,10,11.8,0,0,1.8000000000000003,1.7000000000000002,0.1,3.7,10,match,36.05,296,361,425,0,0,9,9,9,0,0,,,,,0,0,0,0,0,9,9,49,,,,,num_3,1.661071800161153,num_3,0.1,1.1,0.0,1.7,0.0,61.27298,return,5.753544199978933,,,,,,,4,22,female,left_right_width,2023_Aug_14_1524,exp1,2021.2.3,60.14614310501687,
,,,,,,,,,,,,,,,,4,8.95,9.65,10.35,11.05,0,0.7,0.44999999999999996,0.25,2.3499999999999996,10,initial,36.05,323,348,373,398,0,9,9,9,9,0,,,,,0,0,0,0,0,10,10,26,,,,,num_4,1.510416700039059,num_4,0.1,1.0,-0.3,0.8,-10.81288,28.83434,return,5.433255899930373,,,,,,,4,22,female,left_right_width,2023_Aug_14_1524,exp1,2021.2.3,60.14614310501687,
,,,,,,,,,,,,,,,,3,9.5,10,10.5,0,0,0.5,0.09999999999999998,0.4,1.4000000000000001,10,initial,36.05,342,361,379,0,0,9,9,9,0,0,,,,,0,0,0,0,0,11,11,4,,,,,num_3,1.7437100999522954,num_3,0.4,0.6,0.35000000000000003,0.7,12.61502,25.23005,return,6.121450399979949,,,,,,,4,22,female,left_right_width,2023_Aug_14_1524,exp1,2021.2.3,60.14614310501687,
,,,,,,,,,,,,,,,,3,8.6,10,11.4,0,0,1.4,1.15,0.25,3.05,10,match,36.05,310,361,411,0,0,9,9,9,0,0,,,,,0,0,0,0,0,12,12,45,,,,,num_3,1.7298514998983592,num_3,0.45,1.3,0.30000000000000004,1.6,10.81288,57.66869,return,6.571856499882415,,,,,,,4,22,female,left_right_width,2023_Aug_14_1524,exp1,2021.2.3,60.14614310501687,
,,,,,,,,,,,,,,,,5,9,9.5,10,10.5,11,0.5,0.25,0.25,2.25,10,initial,36.05,324,342,361,379,397,9,9,9,9,9,,,,,0,0,0,0,0,13,13,38,,,,,num_4,2.1617083000019193,num_4,0.2,0.4,0.15000000000000002,0.8,5.40644,28.83434,return,5.751786900218576,,,,,,,4,22,female,left_right_width,2023_Aug_14_1524,exp1,2021.2.3,60.14614310501687,
,,,,,,,,,,,,,,,,5,8.65,9.325,10,10.675,11.35,0.675,0.275,0.4,3.1,10,match,36.05,312,336,361,385,409,9,9,9,9,9,,,,,0,0,0,0,0,14,14,35,,,,,num_5,2.701204299926758,num_5,0.3,0.9,0.2,0.85,7.20859,30.63649,return,7.313477799994871,,,,,,,4,22,female,left_right_width,2023_Aug_14_1524,exp1,2021.2.3,60.14614310501687,
,,,,,,,,,,,,,,,,4,9.25,9.75,10.25,10.75,0,0.5,0.09999999999999998,0.4,1.9,10,initial,36.05,333,351,370,388,0,9,9,9,9,0,,,,,0,0,0,0,0,15,15,22,,,,,num_4,1.3010863000527024,num_4,0.45,0.7,0.35000000000000003,0.9,12.61502,32.43864,return,3.2954094000160694,,,,,,,4,22,female,left_right_width,2023_Aug_14_1524,exp1,2021.2.3,60.14614310501687,
,,,,,,,,,,,,,,,,5,8.65,9.325,10,10.675,11.35,0.675,0.42500000000000004,0.25,2.95,10,match,36.05,312,336,361,385,409,9,9,9,9,9,,,,,0,0,0,0,0,16,16,33,,,,,num_5,1.352637000149116,num_5,0.25,1.3,0.15000000000000002,1.2,5.40644,43.25151,return,4.747878199908882,,,,,,,4,22,female,left_right_width,2023_Aug_14_1524,exp1,2021.2.3,60.14614310501687,
,,,,,,,,,,,,,,,,4,9.3,9.766666666666667,10.233333333333333,10.7,0,0.4666666666666667,0.06666666666666665,0.4,1.8,10,match,36.05,335,352,369,386,0,9,9,9,9,0,,,,,0,0,0,0,0,17,17,11,,,,,num_4,1.372351000085473,num_4,0.25,0.6,0.2,0.8,7.20859,28.83434,return,2.9948874001856893,,,,,,,4,22,female,left_right_width,2023_Aug_14_1524,exp1,2021.2.3,60.14614310501687,
,,,,,,,,,,,,,,,,5,8.95,9.475,10,10.525,11.05,0.525,0.42500000000000004,0.1,2.2,10,match,36.05,323,342,361,379,398,9,9,9,9,9,,,,,0,0,0,0,0,18,18,25,,,,,num_4,1.0809847998898476,num_4,0.1,0.6,-0.05,0.8,-1.80215,28.83434,return,2.7117206000257283,,,,,,,4,22,female,left_right_width,2023_Aug_14_1524,exp1,2021.2.3,60.14614310501687,
,,,,,,,,,,,,,,,,5,8.2,9.1,10,10.9,11.8,0.9,0.8,0.1,3.7,10,initial,36.05,296,328,361,393,425,9,9,9,9,9,,,,,0,0,0,0,0,19,19,48,,,,,num_5,1.2189132999628782,num_5,0.3,0.8,0.10000000000000002,0.85,3.60429,30.63649,return,2.5909432999324054,,,,,,,4,22,female,left_right_width,2023_Aug_14_1524,exp1,2021.2.3,60.14614310501687,
,,,,,,,,,,,,,,,,4,9.3,9.766666666666667,10.233333333333333,10.7,0,0.4666666666666667,0.3666666666666667,0.1,1.5,10,match,36.05,335,352,369,386,0,9,9,9,9,0,,,,,0,0,0,0,0,20,20,7,,,,,num_3,2.2079402001108974,num_3,0.2,0.5,-0.09999999999999999,0.6,-3.60429,21.62576,return,7.002111599780619,,,,,,,4,22,female,left_right_width,2023_Aug_14_1524,exp1,2021.2.3,60.14614310501687,
,,,,,,,,,,,,,,,,3,9,10,11,0,0,0.9999999999999999,0.5999999999999999,0.4,2.4,10,match,36.05,324,361,397,0,0,9,9,9,0,0,,,,,0,0,0,0,0,21,21,41,,,,,num_3,2.174943999852985,num_3,0.2,0.6,0.2,0.7,7.20859,25.23005,return,2.3913658999372274,,,,,,,4,22,female,left_right_width,2023_Aug_14_1524,exp1,2021.2.3,60.14614310501687,
,,,,,,,,,,,,,,,,3,9.1,10,10.9,0,0,0.9,0.5,0.4,2.2,10,initial,36.05,328,361,393,0,0,9,9,9,0,0,,,,,0,0,0,0,0,22,22,16,,,,,num_3,1.322309800190851,num_3,0.3,1.3,0.25,1.35,9.01073,48.65795,return,3.76556869992055,,,,,,,4,22,female,left_right_width,2023_Aug_14_1524,exp1,2021.2.3,60.14614310501687,
,,,,,,,,,,,,,,,,3,8.525,10,11.475,0,0,1.475,1.225,0.25,3.2,10,match,36.05,307,361,414,0,0,9,9,9,0,0,,,,,0,0,0,0,0,23,23,47,,,,,num_3,1.8945172999519855,num_3,0.4,0.6,0.10000000000000007,0.85,3.60429,30.63649,return,4.058156399987638,,,,,,,4,22,female,left_right_width,2023_Aug_14_1524,exp1,2021.2.3,60.14614310501687,
,,,,,,,,,,,,,,,,5,9,9.5,10,10.5,11,0.5,0.09999999999999998,0.4,2.4,10,initial,36.05,324,342,361,379,397,9,9,9,9,9,,,,,0,0,0,0,0,24,24,40,,,,,num_4,1.1339368999470025,num_4,0.4,1.1,0.25000000000000006,0.7,9.01073,25.23005,return,5.504797399975359,,,,,,,4,22,female,left_right_width,2023_Aug_14_1524,exp1,2021.2.3,60.14614310501687,
,,,,,,,,,,,,,,,,4,9.5,9.833333333333334,10.166666666666666,10.5,0,0.3333333333333333,0.08333333333333333,0.25,1.25,10,match,36.05,342,354,367,379,0,9,9,9,9,0,,,,,0,0,0,0,0,25,25,3,,,,,num_3,1.7323003998026252,num_3,0.45,0.9,0.20000000000000007,0.8,7.20859,28.83434,return,4.9276014000643045,,,,,,,4,22,female,left_right_width,2023_Aug_14_1524,exp1,2021.2.3,60.14614310501687,
,,,,,,,,,,,,,,,,4,9.3,9.766666666666667,10.233333333333333,10.7,0,0.4666666666666667,0.21666666666666665,0.25,1.65,10,match,36.05,335,352,369,386,0,9,9,9,9,0,,,,,0,0,0,0,0,26,26,9,,,,,num_4,0.9710441001225263,num_4,0.15,0.8,0.25,0.6,9.01073,21.62576,return,4.450017299968749,,,,,,,4,22,female,left_right_width,2023_Aug_14_1524,exp1,2021.2.3,60.14614310501687,
,,,,,,,,,,,,,,,,4,9.25,9.75,10.25,10.75,0,0.5,0.25,0.25,1.75,10,initial,36.05,333,351,370,388,0,9,9,9,9,0,,,,,0,0,0,0,0,27,27,20,,,,,num_4,1.099084199871868,num_4,0.3,1.2,0.25,0.7,9.01073,25.23005,return,5.086087699979544,,,,,,,4,22,female,left_right_width,2023_Aug_14_1524,exp1,2021.2.3,60.14614310501687,
,,,,,,,,,,,,,,,,5,8.6,9.3,10,10.7,11.4,0.7,0.6,0.1,2.9,10,initial,36.05,310,335,361,386,411,9,9,9,9,9,,,,,0,0,0,0,0,28,28,42,,,,,num_4,1.5636272002011538,num_4,0.15,0.9,0.09999999999999999,0.8,3.60429,28.83434,return,4.591808099998161,,,,,,,4,22,female,left_right_width,2023_Aug_14_1524,exp1,2021.2.3,60.14614310501687,
,,,,,,,,,,,,,,,,5,8.2,9.1,10,10.9,11.8,0.9,0.5,0.4,4,10,initial,36.05,296,328,361,393,425,9,9,9,9,9,,,,,0,0,0,0,0,29,29,52,,,,,num_5,1.0791732999496162,num_5,0.1,1.2,0.25,0.85,9.01073,30.63649,return,5.977519100066274,,,,,,,4,22,female,left_right_width,2023_Aug_14_1524,exp1,2021.2.3,60.14614310501687,
,,,,,,,,,,,,,,,,4,8.95,9.65,10.35,11.05,0,0.7,0.29999999999999993,0.4,2.5,10,initial,36.05,323,348,373,398,0,9,9,9,9,0,,,,,0,0,0,0,0,30,30,28,,,,,num_4,1.2841404997743666,num_4,0.2,1.0,0.3,0.7,10.81288,25.23005,return,2.960315000033006,,,,,,,4,22,female,left_right_width,2023_Aug_14_1524,exp1,2021.2.3,60.14614310501687,
,,,,,,,,,,,,,,,,4,9.425,9.808333333333334,10.191666666666666,10.575,0,0.3833333333333333,0.1333333333333333,0.25,1.4,10,match,36.05,340,354,367,381,0,9,9,9,9,0,,,,,0,0,0,0,0,31,31,5,,,,,num_4,1.2024980999995023,num_4,0.4,1.3,0.25000000000000006,0.6,9.01073,21.62576,return,7.985147299943492,,,,,,,4,22,female,left_right_width,2023_Aug_14_1524,exp1,2021.2.3,60.14614310501687,
,,,,,,,,,,,,,,,,3,8.2,10,11.8,0,0,1.8,1.55,0.25,3.85,10,match,36.05,296,361,425,0,0,9,9,9,0,0,,,,,0,0,0,0,0,32,32,51,,,,,num_3,1.5883289000485092,num_3,0.25,0.7,0.15000000000000002,1.3,5.40644,46.85581,return,3.9549483999144286,,,,,,,4,22,female,left_right_width,2023_Aug_14_1524,exp1,2021.2.3,60.14614310501687,
,,,,,,,,,,,,,,,,4,8.65,9.55,10.45,11.35,0,0.9,0.5,0.4,3.1,10,initial,36.05,312,344,377,409,0,9,9,9,9,0,,,,,0,0,0,0,0,33,33,34,,,,,num_4,1.1662396998144686,num_4,0.1,0.9,0.25,1.0,9.01073,36.04293,return,5.069982499815524,,,,,,,4,22,female,left_right_width,2023_Aug_14_1524,exp1,2021.2.3,60.14614310501687,
,,,,,,,,,,,,,,,,5,8.95,9.475,10,10.525,11.05,0.525,0.125,0.4,2.5,10,match,36.05,323,342,361,379,398,9,9,9,9,9,,,,,0,0,0,0,0,34,34,29,,,,,num_4,1.2684188999701291,num_4,0.35,1.0,0.25,0.5,9.01073,18.02146,return,5.218255500076339,,,,,,,4,22,female,left_right_width,2023_Aug_14_1524,exp1,2021.2.3,60.14614310501687,
,,,,,,,,,,,,,,,,4,9.5,9.833333333333334,10.166666666666666,10.5,0,0.33333333333333337,0.23333333333333336,0.1,1.1,10,match,36.05,342,354,367,379,0,9,9,9,9,0,,,,,0,0,0,0,0,35,35,1,,,,,num_3,1.6505096000619233,num_3,0.3,1,0.10000000000000002,0.5,3.60429,18.02146,return,4.636723299976438,,,,,,,4,22,female,left_right_width,2023_Aug_14_1524,exp1,2021.2.3,60.14614310501687,
,,,,,,,,,,,,,,,,5,9.25,9.625,10,10.375,10.75,0.375,0.275,0.1,1.6,10,match,36.05,333,347,361,374,388,9,9,9,9,9,,,,,0,0,0,0,0,36,36,19,,,,,num_4,1.0958787999115884,num_4,0.35,0.4,0.2,0.0,7.20859,0.0,return,8.395630500046536,,,,,,,4,22,female,left_right_width,2023_Aug_14_1524,exp1,2021.2.3,60.14614310501687,
,,,,,,,,,,,,,,,,4,9.1,9.7,10.3,10.9,0,0.6000000000000001,0.20000000000000004,0.4,2.2,10,match,36.05,328,350,371,393,0,9,9,9,9,0,,,,,0,0,0,0,0,37,37,17,,,,,num_4,1.1320032998919487,num_4,0.35,0.6,0.2,0.4,7.20859,14.41717,return,4.286102199926972,,,,,,,4,22,female,left_right_width,2023_Aug_14_1524,exp1,2021.2.3,60.14614310501687,
,,,,,,,,,,,,,,,,4,9.1,9.7,10.3,10.9,0,0.6,0.5,0.1,1.9,10,match,36.05,328,350,371,393,0,9,9,9,9,0,,,,,0,0,0,0,0,38,38,13,,,,,num_4,1.2149746001232415,num_4,0.3,1.3,0.05000000000000002,0.4,1.80215,14.41717,return,5.471057299990207,,,,,,,4,22,female,left_right_width,2023_Aug_14_1524,exp1,2021.2.3,60.14614310501687,
,,,,,,,,,,,,,,,,3,9.5,10,10.5,0,0,0.5,0.4,0.1,1.1,10,initial,36.05,342,361,379,0,0,9,9,9,0,0,,,,,0,0,0,0,0,39,39,0,,,,,num_2,1.1738324000034481,num_2,0.2,1.6,0.15000000000000002,0.6,5.40644,21.62576,return,4.5339872997719795,,,,,,,4,22,female,left_right_width,2023_Aug_14_1524,exp1,2021.2.3,60.14614310501687,
,,,,,,,,,,,,,,,,5,8.2,9.1,10,10.9,11.8,0.9,0.65,0.25,3.85,10,initial,36.05,296,328,361,393,425,9,9,9,9,9,,,,,0,0,0,0,0,40,40,50,,,,,num_5,0.9469382001552731,num_5,0.4,1.0,0.10000000000000007,0.4,3.60429,14.41717,return,4.004241999937221,,,,,,,4,22,female,left_right_width,2023_Aug_14_1524,exp1,2021.2.3,60.14614310501687,
,,,,,,,,,,,,,,,,4,8.65,9.55,10.45,11.35,0,0.9,0.65,0.25,2.95,10,initial,36.05,312,344,377,409,0,9,9,9,9,0,,,,,0,0,0,0,0,41,41,32,,,,,num_4,1.2946937000378966,num_4,0.4,0.9,0.15000000000000008,0.4,5.40644,14.41717,return,6.146091299830005,,,,,,,4,22,female,left_right_width,2023_Aug_14_1524,exp1,2021.2.3,60.14614310501687,
,,,,,,,,,,,,,,,,4,9.25,9.75,10.25,10.75,0,0.5,0.4,0.1,1.6,10,initial,36.05,333,351,370,388,0,9,9,9,9,0,,,,,0,0,0,0,0,42,42,18,,,,,num_4,1.1958187997806817,num_4,0.3,0.7,0.15000000000000002,0.4,5.40644,14.41717,return,6.701142800040543,,,,,,,4,22,female,left_right_width,2023_Aug_14_1524,exp1,2021.2.3,60.14614310501687,
,,,,,,,,,,,,,,,,3,9.5,10,10.5,0,0,0.5,0.25,0.25,1.25,10,initial,36.05,342,361,379,0,0,9,9,9,0,0,,,,,0,0,0,0,0,43,43,2,,,,,num_3,2.0979005000554025,num_3,0.35,0.7,0.2,0.7,7.20859,25.23005,return,2.8448722998145968,,,,,,,4,22,female,left_right_width,2023_Aug_14_1524,exp1,2021.2.3,60.14614310501687,
,,,,,,,,,,,,,,,,3,9.3,10,10.7,0,0,0.7,0.29999999999999993,0.4,1.8,10,initial,36.05,335,361,386,0,0,9,9,9,0,0,,,,,0,0,0,0,0,44,44,10,,,,,num_3,1.9978213000576943,num_3,0.1,0.4,0.25,0.6,9.01073,21.62576,return,6.173882600152865,,,,,,,4,22,female,left_right_width,2023_Aug_14_1524,exp1,2021.2.3,60.14614310501687,
,,,,,,,,,,,,,,,,4,8.95,9.65,10.35,11.05,0,0.7,0.6,0.1,2.1999999999999997,10,initial,36.05,323,348,373,398,0,9,9,9,9,0,,,,,0,0,0,0,0,45,45,24,,,,,num_3,1.6244990997947752,num_3,0.3,1.3,0.10000000000000002,1.15,3.60429,41.44937,return,4.151189900003374,,,,,,,4,22,female,left_right_width,2023_Aug_14_1524,exp1,2021.2.3,60.14614310501687,
,,,,,,,,,,,,,,,,3,9,10,11,0,0,1,0.75,0.25,2.25,10,match,36.05,324,361,397,0,0,9,9,9,0,0,,,,,0,0,0,0,0,46,46,39,,,,,num_3,3.777126200031489,num_3,0.2,0.4,0.15000000000000002,0.65,5.40644,23.4279,return,6.900608700001612,,,,,,,4,22,female,left_right_width,2023_Aug_14_1524,exp1,2021.2.3,60.14614310501687,
,,,,,,,,,,,,,,,,5,8.6,9.3,10,10.7,11.4,0.7,0.29999999999999993,0.4,3.1999999999999997,10,initial,36.05,310,335,361,386,411,9,9,9,9,9,,,,,0,0,0,0,0,47,47,46,,,,,num_5,1.0515911998227239,num_5,0.3,0.7,0.25,0.8,9.01073,28.83434,return,4.476020600181073,,,,,,,4,22,female,left_right_width,2023_Aug_14_1524,exp1,2021.2.3,60.14614310501687,
,,,,,,,,,,,,,,,,3,9,10,11,0,0,1,0.9,0.1,2.1,10,match,36.05,324,361,397,0,0,9,9,9,0,0,,,,,0,0,0,0,0,48,48,37,,,,,num_3,1.4350568000227213,num_3,0.2,0.5,0.05000000000000002,0.6,1.80215,21.62576,return,4.625133299967274,,,,,,,4,22,female,left_right_width,2023_Aug_14_1524,exp1,2021.2.3,60.14614310501687,
,,,,,,,,,,,,,,,,3,9.3,10,10.7,0,0,0.7,0.44999999999999996,0.25,1.65,10,initial,36.05,335,361,386,0,0,9,9,9,0,0,,,,,0,0,0,0,0,49,49,8,,,,,num_3,1.352603399893269,num_3,0.2,0.6,0.15000000000000002,0.65,5.40644,23.4279,return,3.3432100999634713,,,,,,,4,22,female,left_right_width,2023_Aug_14_1524,exp1,2021.2.3,60.14614310501687,
,,,,,,,,,,,,,,,,3,9.3,10,10.7,0,0,0.7,0.6,0.1,1.5,10,initial,36.05,335,361,386,0,0,9,9,9,0,0,,,,,0,0,0,0,0,50,50,6,,,,,num_3,1.5395507998764515,num_3,0.4,1.1,0.10000000000000007,0.95,3.60429,34.24078,return,5.185457000043243,,,,,,,4,22,female,left_right_width,2023_Aug_14_1524,exp1,2021.2.3,60.14614310501687,
,,,,,,,,,,,,,,,,3,9.1,10,10.9,0,0,0.9,0.65,0.25,2.05,10,initial,36.05,328,361,393,0,0,9,9,9,0,0,,,,,0,0,0,0,0,51,51,14,,,,,num_3,1.4743124002125114,num_3,0.45,0.9,0.15000000000000008,1.1,5.40644,39.64722,return,4.3096923001576215,,,,,,,4,22,female,left_right_width,2023_Aug_14_1524,exp1,2021.2.3,60.14614310501687,
,,,,,,,,,,,,,,,,5,9.25,9.625,10,10.375,10.75,0.375,0.125,0.25,1.75,10,match,36.05,333,347,361,374,388,9,9,9,9,9,,,,,0,0,0,0,0,52,52,21,,,,,num_5,1.6285225001629442,num_5,0.15,0.9,-0.15000000000000002,0.45,-5.40644,16.21932,return,9.820058400044218,,,,,,,4,22,female,left_right_width,2023_Aug_14_1524,exp1,2021.2.3,60.14614310501687,
,,,,,,,,,,,,,,,,5,8.95,9.475,10,10.525,11.05,0.525,0.275,0.25,2.35,10,match,36.05,323,342,361,379,398,9,9,9,9,9,,,,,0,0,0,0,0,53,53,27,,,,,num_5,1.1085654001217335,num_5,0.35,1.3,0.10000000000000002,0.45,3.60429,16.21932,return,5.959206399973482,,,,,,,4,22,female,left_right_width,2023_Aug_14_1524,exp1,2021.2.3,60.14614310501687,
,,,,,,,,,,,,,,,,,,,,,,,,,,,,,,,,,,,,,,,,,,,0,0,0,0,,,,,,,,,,,,,,,,,,,,,,740.5752312000841,None,740.5752312000841,None,4,22,female,left_right_width,2023_Aug_14_1524,exp1,2021.2.3,60.14614310501687,
,,,,,,,,,,,,,,,,4,8.95,9.65,10.35,11.05,0,0.7,0.29999999999999993,0.4,2.5,10,initial,36.05,323,348,373,398,0,9,9,9,9,0,,,,,1,0,1,0,0,0,0,28,,,,,num_4,1.2556600999087095,num_4,0.25,1.0,0.35,1.0,12.61502,36.04293,return,3.8436007001437247,,,,,,,4,22,female,left_right_width,2023_Aug_14_1524,exp1,2021.2.3,60.14614310501687,
,,,,,,,,,,,,,,,,5,8.6,9.3,10,10.7,11.4,0.7,0.44999999999999996,0.25,3.05,10,initial,36.05,310,335,361,386,411,9,9,9,9,9,,,,,1,0,1,0,0,1,1,44,,,,,num_5,1.6754841001238674,num_5,0.4,0.9,0.15000000000000008,0.95,5.40644,34.24078,return,4.519861300010234,,,,,,,4,22,female,left_right_width,2023_Aug_14_1524,exp1,2021.2.3,60.14614310501687,
,,,,,,,,,,,,,,,,3,8.2,10,11.8,0,0,1.8000000000000003,1.7000000000000002,0.1,3.7,10,match,36.05,296,361,425,0,0,9,9,9,0,0,,,,,1,0,1,0,0,2,2,49,,,,,num_3,1.62073460011743,num_3,0.15,0.9,0.04999999999999999,1.35,1.80215,48.65795,return,3.5420181998051703,,,,,,,4,22,female,left_right_width,2023_Aug_14_1524,exp1,2021.2.3,60.14614310501687,
,,,,,,,,,,,,,,,,5,9,9.5,10,10.5,11,0.5,0.25,0.25,2.25,10,initial,36.05,324,342,361,379,397,9,9,9,9,9,,,,,1,0,1,0,0,3,3,38,,,,,num_4,1.0697297002188861,num_4,0.1,1.0,-0.25,0.9,-9.01073,32.43864,return,6.4977829998824745,,,,,,,4,22,female,left_right_width,2023_Aug_14_1524,exp1,2021.2.3,60.14614310501687,
,,,,,,,,,,,,,,,,3,8.2,10,11.8,0,0,1.7999999999999998,1.4,0.4,4,10,match,36.05,296,361,425,0,0,9,9,9,0,0,,,,,1,0,1,0,0,4,4,53,,,,,num_3,1.5564482999034226,num_3,0.25,1.1,0.15000000000000002,1.6,5.40644,57.66869,return,6.290417100070044,,,,,,,4,22,female,left_right_width,2023_Aug_14_1524,exp1,2021.2.3,60.14614310501687,
,,,,,,,,,,,,,,,,3,8.2,10,11.8,0,0,1.8,1.55,0.25,3.85,10,match,36.05,296,361,425,0,0,9,9,9,0,0,,,,,1,0,1,0,0,5,5,51,,,,,num_3,1.519778300076723,num_3,0.35,0.7,0.15000000000000002,1.1,5.40644,39.64722,return,3.8257663000840694,,,,,,,4,22,female,left_right_width,2023_Aug_14_1524,exp1,2021.2.3,60.14614310501687,
,,,,,,,,,,,,,,,,5,8.65,9.325,10,10.675,11.35,0.675,0.275,0.4,3.1,10,match,36.05,312,336,361,385,409,9,9,9,9,9,,,,,1,0,1,0,0,6,6,35,,,,,num_5,1.1052298001013696,num_5,0.1,0.5,0.25,0.55,9.01073,19.82361,return,4.79101449996233,,,,,,,4,22,female,left_right_width,2023_Aug_14_1524,exp1,2021.2.3,60.14614310501687,
,,,,,,,,,,,,,,,,5,9,9.5,10,10.5,11,0.5,0.4,0.1,2.1,10,initial,36.05,324,342,361,379,397,9,9,9,9,9,,,,,1,0,1,0,0,7,7,36,,,,,num_4,1.2530332999303937,num_4,0.1,0.9,-0.05,0.9,-1.80215,32.43864,return,7.250495300162584,,,,,,,4,22,female,left_right_width,2023_Aug_14_1524,exp1,2021.2.3,60.14614310501687,
,,,,,,,,,,,,,,,,5,8.2,9.1,10,10.9,11.8,0.9,0.5,0.4,4,10,initial,36.05,296,328,361,393,425,9,9,9,9,9,,,,,1,0,1,0,0,8,8,52,,,,,num_5,1.0145249001216143,num_5,0.1,0.8,-0.25,0.8,-9.01073,28.83434,return,4.813403100008145,,,,,,,4,22,female,left_right_width,2023_Aug_14_1524,exp1,2021.2.3,60.14614310501687,
,,,,,,,,,,,,,,,,5,9,9.5,10,10.5,11,0.5,0.09999999999999998,0.4,2.4,10,initial,36.05,324,342,361,379,397,9,9,9,9,9,,,,,1,0,1,0,0,9,9,40,,,,,num_4,1.106972600100562,num_4,0.15,0.3,-0.2,0.4,-7.20859,14.41717,return,5.093932999996468,,,,,,,4,22,female,left_right_width,2023_Aug_14_1524,exp1,2021.2.3,60.14614310501687,
,,,,,,,,,,,,,,,,3,9.3,10,10.7,0,0,0.7,0.44999999999999996,0.25,1.65,10,initial,36.05,335,361,386,0,0,9,9,9,0,0,,,,,1,0,1,0,0,10,10,8,,,,,num_2,1.1362777999602258,num_2,0.1,1.6,0.35,1.2,12.61502,43.25151,return,5.890638999873772,,,,,,,4,22,female,left_right_width,2023_Aug_14_1524,exp1,2021.2.3,60.14614310501687,
,,,,,,,,,,,,,,,,3,9,10,11,0,0,1,0.75,0.25,2.25,10,match,36.05,324,361,397,0,0,9,9,9,0,0,,,,,1,0,1,0,0,11,11,39,,,,,num_3,1.784855900099501,num_3,0.2,0.8,0.3,0.8,10.81288,28.83434,return,3.71030110004358,,,,,,,4,22,female,left_right_width,2023_Aug_14_1524,exp1,2021.2.3,60.14614310501687,
,,,,,,,,,,,,,,,,4,8.65,9.55,10.45,11.35,0,0.9,0.65,0.25,2.95,10,initial,36.05,312,344,377,409,0,9,9,9,9,0,,,,,1,0,1,0,0,12,12,32,,,,,num_3,1.6233929002191871,num_3,0.15,0.7,0.3,0.85,10.81288,30.63649,return,5.173299900023267,,,,,,,4,22,female,left_right_width,2023_Aug_14_1524,exp1,2021.2.3,60.14614310501687,
,,,,,,,,,,,,,,,,4,9.3,9.766666666666667,10.233333333333333,10.7,0,0.4666666666666667,0.21666666666666665,0.25,1.65,10,match,36.05,335,352,369,386,0,9,9,9,9,0,,,,,1,0,1,0,0,13,13,9,,,,,num_3,1.9838547001127154,num_3,0.1,0.4,-0.2,0.55,-7.20859,19.82361,return,4.283454699907452,,,,,,,4,22,female,left_right_width,2023_Aug_14_1524,exp1,2021.2.3,60.14614310501687,
,,,,,,,,,,,,,,,,4,9.3,9.766666666666667,10.233333333333333,10.7,0,0.4666666666666667,0.3666666666666667,0.1,1.5,10,match,36.05,335,352,369,386,0,9,9,9,9,0,,,,,1,0,1,0,0,14,14,7,,,,,num_3,1.3731895999517292,num_3,0.45,0.8,0.10000000000000007,1.1,3.60429,39.64722,return,6.261093999957666,,,,,,,4,22,female,left_right_width,2023_Aug_14_1524,exp1,2021.2.3,60.14614310501687,
,,,,,,,,,,,,,,,,4,9.25,9.75,10.25,10.75,0,0.5,0.25,0.25,1.75,10,initial,36.05,333,351,370,388,0,9,9,9,9,0,,,,,1,0,1,0,0,15,15,20,,,,,num_3,1.186869699973613,num_3,0.45,0.8,0.15000000000000008,0.9,5.40644,32.43864,return,4.722474799957126,,,,,,,4,22,female,left_right_width,2023_Aug_14_1524,exp1,2021.2.3,60.14614310501687,
,,,,,,,,,,,,,,,,3,9,10,11,0,0,1,0.9,0.1,2.1,10,match,36.05,324,361,397,0,0,9,9,9,0,0,,,,,1,0,1,0,0,16,16,37,,,,,num_3,1.2779310999903828,num_3,0.3,0.9,0.05000000000000002,1.05,1.80215,37.84507,return,3.9344524000771344,,,,,,,4,22,female,left_right_width,2023_Aug_14_1524,exp1,2021.2.3,60.14614310501687,
,,,,,,,,,,,,,,,,3,9,10,11,0,0,0.9999999999999999,0.5999999999999999,0.4,2.4,10,match,36.05,324,361,397,0,0,9,9,9,0,0,,,,,1,0,1,0,0,17,17,41,,,,,num_3,1.2990109999664128,num_3,0.2,0.5,0.3,1.0,10.81288,36.04293,return,6.094399799825624,,,,,,,4,22,female,left_right_width,2023_Aug_14_1524,exp1,2021.2.3,60.14614310501687,
,,,,,,,,,,,,,,,,5,8.65,9.325,10,10.675,11.35,0.6749999999999999,0.575,0.1,2.8,10,match,36.05,312,336,361,385,409,9,9,9,9,9,,,,,1,0,1,0,0,18,18,31,,,,,num_4,1.2272926000878215,num_4,0.15,0.6,0.09999999999999999,1.0,3.60429,36.04293,return,4.087689500069246,,,,,,,4,22,female,left_right_width,2023_Aug_14_1524,exp1,2021.2.3,60.14614310501687,
,,,,,,,,,,,,,,,,4,9.5,9.833333333333334,10.166666666666666,10.5,0,0.33333333333333337,0.23333333333333336,0.1,1.1,10,match,36.05,342,354,367,379,0,9,9,9,9,0,,,,,1,0,1,0,0,19,19,1,,,,,num_3,1.5318472001235932,num_3,0.3,1,0.10000000000000002,1.15,3.60429,41.44937,return,5.916729000164196,,,,,,,4,22,female,left_right_width,2023_Aug_14_1524,exp1,2021.2.3,60.14614310501687,
,,,,,,,,,,,,,,,,3,9.5,10,10.5,0,0,0.5,0.09999999999999998,0.4,1.4000000000000001,10,initial,36.05,342,361,379,0,0,9,9,9,0,0,,,,,1,0,1,0,0,20,20,4,,,,,num_2,1.821811700006947,num_2,0.25,1.6,0.39999999999999997,0.6,14.41717,21.62576,return,7.202919200062752,,,,,,,4,22,female,left_right_width,2023_Aug_14_1524,exp1,2021.2.3,60.14614310501687,
,,,,,,,,,,,,,,,,4,9.1,9.7,10.3,10.9,0,0.5999999999999999,0.3499999999999999,0.25,2.05,10,match,36.05,328,350,371,393,0,9,9,9,9,0,,,,,1,0,1,0,0,21,21,15,,,,,num_4,1.526399499969557,num_4,0.1,0.5,0.3,0.8,10.81288,28.83434,return,4.696663700044155,,,,,,,4,22,female,left_right_width,2023_Aug_14_1524,exp1,2021.2.3,60.14614310501687,
,,,,,,,,,,,,,,,,4,8.65,9.55,10.45,11.35,0,0.9,0.8,0.1,2.8000000000000003,10,initial,36.05,312,344,377,409,0,9,9,9,9,0,,,,,1,0,1,0,0,22,22,30,,,,,num_4,1.5250254001002759,num_4,0.4,0.8,-0.04999999999999993,1.0,-1.80215,36.04293,return,9.191569299902767,,,,,,,4,22,female,left_right_width,2023_Aug_14_1524,exp1,2021.2.3,60.14614310501687,
,,,,,,,,,,,,,,,,3,9.1,10,10.9,0,0,0.9,0.5,0.4,2.2,10,initial,36.05,328,361,393,0,0,9,9,9,0,0,,,,,1,0,1,0,0,23,23,16,,,,,num_2,1.3995886999182403,num_2,0.3,1.6,0.39999999999999997,1.8,14.41717,64.87727,return,5.168118000030518,,,,,,,4,22,female,left_right_width,2023_Aug_14_1524,exp1,2021.2.3,60.14614310501687,
,,,,,,,,,,,,,,,,5,8.6,9.3,10,10.7,11.4,0.7,0.6,0.1,2.9,10,initial,36.05,310,335,361,386,411,9,9,9,9,9,,,,,1,0,1,0,0,24,24,42,,,,,num_5,2.841266799950972,num_5,0.35,0.8,0.05000000000000002,1.1,1.80215,39.64722,return,6.069781500147656,,,,,,,4,22,female,left_right_width,2023_Aug_14_1524,exp1,2021.2.3,60.14614310501687,
,,,,,,,,,,,,,,,,3,8.6,10,11.4,0,0,1.4,1.15,0.25,3.05,10,match,36.05,310,361,411,0,0,9,9,9,0,0,,,,,1,0,1,0,0,25,25,45,,,,,num_3,2.0446502999402583,num_3,0.3,1,0.05000000000000002,1.5,1.80215,54.06439,return,5.815852799918503,,,,,,,4,22,female,left_right_width,2023_Aug_14_1524,exp1,2021.2.3,60.14614310501687,
,,,,,,,,,,,,,,,,5,8.95,9.475,10,10.525,11.05,0.525,0.125,0.4,2.5,10,match,36.05,323,342,361,379,398,9,9,9,9,9,,,,,1,0,1,0,0,26,26,29,,,,,num_4,2.065677599981427,num_4,0.2,0.5,0.10000000000000002,1.3,3.60429,46.85581,return,6.191593199968338,,,,,,,4,22,female,left_right_width,2023_Aug_14_1524,exp1,2021.2.3,60.14614310501687,
,,,,,,,,,,,,,,,,4,8.95,9.65,10.35,11.05,0,0.7,0.6,0.1,2.1999999999999997,10,initial,36.05,323,348,373,398,0,9,9,9,9,0,,,,,1,0,1,0,0,27,27,24,,,,,num_3,1.7248712999280542,num_3,0.3,0.8,0.10000000000000002,1.3,3.60429,46.85581,return,4.342806200031191,,,,,,,4,22,female,left_right_width,2023_Aug_14_1524,exp1,2021.2.3,60.14614310501687,
,,,,,,,,,,,,,,,,5,8.6,9.3,10,10.7,11.4,0.7,0.29999999999999993,0.4,3.1999999999999997,10,initial,36.05,310,335,361,386,411,9,9,9,9,9,,,,,1,0,1,0,0,28,28,46,,,,,num_5,1.3336690000724047,num_5,0.1,1.1,0.15000000000000002,1.0,5.40644,36.04293,return,3.6492693999316543,,,,,,,4,22,female,left_right_width,2023_Aug_14_1524,exp1,2021.2.3,60.14614310501687,
,,,,,,,,,,,,,,,,3,8.6,10,11.4,0,0,1.4,1.2999999999999998,0.1,2.9,10,match,36.05,310,361,411,0,0,9,9,9,0,0,,,,,1,0,1,0,0,29,29,43,,,,,num_2,1.1659401999786496,num_2,0.15,1.6,0.04999999999999999,1.9,1.80215,68.48156,return,2.958587600151077,,,,,,,4,22,female,left_right_width,2023_Aug_14_1524,exp1,2021.2.3,60.14614310501687,
,,,,,,,,,,,,,,,,5,8.65,9.325,10,10.675,11.35,0.675,0.42500000000000004,0.25,2.95,10,match,36.05,312,336,361,385,409,9,9,9,9,9,,,,,1,0,1,0,0,30,30,33,,,,,num_5,0.9537952998653054,num_5,0.2,0.3,0.05000000000000002,0.65,1.80215,23.4279,return,6.258714100113139,,,,,,,4,22,female,left_right_width,2023_Aug_14_1524,exp1,2021.2.3,60.14614310501687,
,,,,,,,,,,,,,,,,3,9.3,10,10.7,0,0,0.7,0.6,0.1,1.5,10,initial,36.05,335,361,386,0,0,9,9,9,0,0,,,,,1,0,1,0,0,31,31,6,,,,,num_2,1.2161735000554472,num_2,0.2,1.6,0.05000000000000002,1.7,1.80215,61.27298,return,3.664305099984631,,,,,,,4,22,female,left_right_width,2023_Aug_14_1524,exp1,2021.2.3,60.14614310501687,
,,,,,,,,,,,,,,,,3,9.3,10,10.7,0,0,0.7,0.29999999999999993,0.4,1.8,10,initial,36.05,335,361,386,0,0,9,9,9,0,0,,,,,1,0,1,0,0,32,32,10,,,,,num_3,2.1979908000212163,num_3,0.3,0.4,0.05000000000000002,0.65,1.80215,23.4279,return,4.717498899903148,,,,,,,4,22,female,left_right_width,2023_Aug_14_1524,exp1,2021.2.3,60.14614310501687,
,,,,,,,,,,,,,,,,5,9.25,9.625,10,10.375,10.75,0.375,0.125,0.25,1.75,10,match,36.05,333,347,361,374,388,9,9,9,9,9,,,,,1,0,1,0,0,33,33,21,,,,,num_4,1.1925544999539852,num_4,0.25,0.3,0.05000000000000002,0.6,1.80215,21.62576,return,6.293052199995145,,,,,,,4,22,female,left_right_width,2023_Aug_14_1524,exp1,2021.2.3,60.14614310501687,
,,,,,,,,,,,,,,,,4,9.1,9.7,10.3,10.9,0,0.6,0.5,0.1,1.9,10,match,36.05,328,350,371,393,0,9,9,9,9,0,,,,,1,0,1,0,0,34,34,13,,,,,num_4,1.1087356999050826,num_4,0.4,0.8,0.05000000000000007,0.9,1.80215,32.43864,return,3.2091306000947952,,,,,,,4,22,female,left_right_width,2023_Aug_14_1524,exp1,2021.2.3,60.14614310501687,
,,,,,,,,,,,,,,,,5,8.2,9.1,10,10.9,11.8,0.9,0.65,0.25,3.85,10,initial,36.05,296,328,361,393,425,9,9,9,9,9,,,,,1,0,1,0,0,35,35,50,,,,,num_5,1.2731177997775376,num_5,0.3,0.8,0.10000000000000002,0.75,3.60429,27.0322,return,3.97209950000979,,,,,,,4,22,female,left_right_width,2023_Aug_14_1524,exp1,2021.2.3,60.14614310501687,
,,,,,,,,,,,,,,,,3,8.525,10,11.475,0,0,1.475,1.225,0.25,3.2,10,match,36.05,307,361,414,0,0,9,9,9,0,0,,,,,1,0,1,0,0,36,36,47,,,,,num_2,1.0945810999255627,num_2,0.2,1.6,0.10000000000000002,2.1,3.60429,75.69015,return,4.633556900080293,,,,,,,4,22,female,left_right_width,2023_Aug_14_1524,exp1,2021.2.3,60.14614310501687,
,,,,,,,,,,,,,,,,4,9.3,9.766666666666667,10.233333333333333,10.7,0,0.4666666666666667,0.06666666666666665,0.4,1.8,10,match,36.05,335,352,369,386,0,9,9,9,9,0,,,,,1,0,1,0,0,37,37,11,,,,,num_4,1.0530413000378758,num_4,0.45,0.6,0.35000000000000003,0.7,12.61502,25.23005,return,11.199158899951726,,,,,,,4,22,female,left_right_width,2023_Aug_14_1524,exp1,2021.2.3,60.14614310501687,
,,,,,,,,,,,,,,,,4,9.425,9.808333333333334,10.191666666666666,10.575,0,0.3833333333333333,0.1333333333333333,0.25,1.4,10,match,36.05,340,354,367,381,0,9,9,9,9,0,,,,,1,0,1,0,0,38,38,5,,,,,num_4,1.4280890999361873,num_4,0.3,0.9,0.2,0.4,7.20859,14.41717,return,3.049580599879846,,,,,,,4,22,female,left_right_width,2023_Aug_14_1524,exp1,2021.2.3,60.14614310501687,
,,,,,,,,,,,,,,,,5,9.175,9.5875,10,10.4125,10.825,0.4125,0.16249999999999998,0.25,1.9,10,match,36.05,331,346,361,375,390,9,9,9,9,9,,,,,1,0,1,0,0,39,39,23,,,,,num_4,0.9939806000329554,num_4,0.45,0.5,0.20000000000000007,0.4,7.20859,14.41717,return,6.169675700133666,,,,,,,4,22,female,left_right_width,2023_Aug_14_1524,exp1,2021.2.3,60.14614310501687,
,,,,,,,,,,,,,,,,4,9.25,9.75,10.25,10.75,0,0.5,0.09999999999999998,0.4,1.9,10,initial,36.05,333,351,370,388,0,9,9,9,9,0,,,,,1,0,1,0,0,40,40,22,,,,,num_3,1.8070421000011265,num_3,0.2,1,0.35,0.5,12.61502,18.02146,return,7.062677399953827,,,,,,,4,22,female,left_right_width,2023_Aug_14_1524,exp1,2021.2.3,60.14614310501687,
,,,,,,,,,,,,,,,,3,9.5,10,10.5,0,0,0.5,0.4,0.1,1.1,10,initial,36.05,342,361,379,0,0,9,9,9,0,0,,,,,1,0,1,0,0,41,41,0,,,,,num_2,1.1712827999144793,num_2,0.3,1.6,0.05000000000000002,0.8,1.80215,28.83434,return,5.3133978000842035,,,,,,,4,22,female,left_right_width,2023_Aug_14_1524,exp1,2021.2.3,60.14614310501687,
,,,,,,,,,,,,,,,,3,9.1,10,10.9,0,0,0.9,0.65,0.25,2.05,10,initial,36.05,328,361,393,0,0,9,9,9,0,0,,,,,1,0,1,0,0,42,42,14,,,,,num_2,1.6120873000472784,num_2,0.2,1.6,0.10000000000000002,1.6,3.60429,57.66869,return,2.946799200028181,,,,,,,4,22,female,left_right_width,2023_Aug_14_1524,exp1,2021.2.3,60.14614310501687,
,,,,,,,,,,,,,,,,5,9.25,9.625,10,10.375,10.75,0.375,0.275,0.1,1.6,10,match,36.05,333,347,361,374,388,9,9,9,9,9,,,,,1,0,1,0,0,43,43,19,,,,,num_4,2.126018699957058,num_4,0.45,1.0,0.10000000000000007,0.7,3.60429,25.23005,return,4.9651254999917,,,,,,,4,22,female,left_right_width,2023_Aug_14_1524,exp1,2021.2.3,60.14614310501687,
,,,,,,,,,,,,,,,,4,9.25,9.75,10.25,10.75,0,0.5,0.4,0.1,1.6,10,initial,36.05,333,351,370,388,0,9,9,9,9,0,,,,,1,0,1,0,0,44,44,18,,,,,num_4,1.3163582999259233,num_4,0.45,1.2,0.10000000000000007,0.6,3.60429,21.62576,return,7.053201700095087,,,,,,,4,22,female,left_right_width,2023_Aug_14_1524,exp1,2021.2.3,60.14614310501687,
,,,,,,,,,,,,,,,,5,8.95,9.475,10,10.525,11.05,0.525,0.275,0.25,2.35,10,match,36.05,323,342,361,379,398,9,9,9,9,9,,,,,1,0,1,0,0,45,45,27,,,,,num_5,1.0729702999815345,num_5,0.45,0.7,0.10000000000000007,0.35,3.60429,12.61502,return,5.907227699877694,,,,,,,4,22,female,left_right_width,2023_Aug_14_1524,exp1,2021.2.3,60.14614310501687,
,,,,,,,,,,,,,,,,4,8.95,9.65,10.35,11.05,0,0.7,0.44999999999999996,0.25,2.3499999999999996,10,initial,36.05,323,348,373,398,0,9,9,9,9,0,,,,,1,0,1,0,0,46,46,26,,,,,num_4,1.1990513999480754,num_4,0.3,0.5,0.10000000000000002,0.3,3.60429,10.81288,return,4.047252499964088,,,,,,,4,22,female,left_right_width,2023_Aug_14_1524,exp1,2021.2.3,60.14614310501687,
,,,,,,,,,,,,,,,,4,9.5,9.833333333333334,10.166666666666666,10.5,0,0.3333333333333333,0.08333333333333333,0.25,1.25,10,match,36.05,342,354,367,379,0,9,9,9,9,0,,,,,1,0,1,0,0,47,47,3,,,,,num_3,1.6629779001232237,num_3,0.25,0.8,0.10000000000000002,0.4,3.60429,14.41717,return,6.22308379993774,,,,,,,4,22,female,left_right_width,2023_Aug_14_1524,exp1,2021.2.3,60.14614310501687,
,,,,,,,,,,,,,,,,5,8.2,9.1,10,10.9,11.8,0.9,0.8,0.1,3.7,10,initial,36.05,296,328,361,393,425,9,9,9,9,9,,,,,1,0,1,0,0,48,48,48,,,,,num_4,0.9638066999614239,num_4,0.3,0.4,0.10000000000000002,1.2,3.60429,43.25151,return,5.496261100051925,,,,,,,4,22,female,left_right_width,2023_Aug_14_1524,exp1,2021.2.3,60.14614310501687,
,,,,,,,,,,,,,,,,4,8.65,9.55,10.45,11.35,0,0.9,0.5,0.4,3.1,10,initial,36.05,312,344,377,409,0,9,9,9,9,0,,,,,1,0,1,0,0,49,49,34,,,,,num_4,1.2400539999362081,num_4,0.3,0.7,0.10000000000000002,1.0,3.60429,36.04293,return,4.064279900165275,,,,,,,4,22,female,left_right_width,2023_Aug_14_1524,exp1,2021.2.3,60.14614310501687,
,,,,,,,,,,,,,,,,5,8.95,9.475,10,10.525,11.05,0.525,0.42500000000000004,0.1,2.2,10,match,36.05,323,342,361,379,398,9,9,9,9,9,,,,,1,0,1,0,0,50,50,25,,,,,num_4,0.9280384001322091,num_4,0.15,0.6,0.04999999999999999,0.9,1.80215,32.43864,return,2.648481999989599,,,,,,,4,22,female,left_right_width,2023_Aug_14_1524,exp1,2021.2.3,60.14614310501687,
,,,,,,,,,,,,,,,,3,9.1,10,10.9,0,0,0.9,0.8,0.1,1.9000000000000001,10,initial,36.05,328,361,393,0,0,9,9,9,0,0,,,,,1,0,1,0,0,51,51,12,,,,,num_2,2.0241618999280035,num_2,0.4,1.6,0.05000000000000007,1.9,1.80215,68.48156,return,4.2176980001386255,,,,,,,4,22,female,left_right_width,2023_Aug_14_1524,exp1,2021.2.3,60.14614310501687,
,,,,,,,,,,,,,,,,4,9.1,9.7,10.3,10.9,0,0.6000000000000001,0.20000000000000004,0.4,2.2,10,match,36.05,328,350,371,393,0,9,9,9,9,0,,,,,1,0,1,0,0,52,52,17,,,,,num_3,1.5902344000060111,num_3,0.3,0.4,0.10000000000000002,0.45,3.60429,16.21932,return,5.749113199999556,,,,,,,4,22,female,left_right_width,2023_Aug_14_1524,exp1,2021.2.3,60.14614310501687,
,,,,,,,,,,,,,,,,3,9.5,10,10.5,0,0,0.5,0.25,0.25,1.25,10,initial,36.05,342,361,379,0,0,9,9,9,0,0,,,,,1,0,1,0,0,53,53,2,,,,,num_3,2.688233699882403,num_3,0.1,0.3,-0.2,0.5,-7.20859,18.02146,return,3.5894195998553187,,,,,,,4,22,female,left_right_width,2023_Aug_14_1524,exp1,2021.2.3,60.14614310501687,
,,,,,,,,,,,,,,,,,,,,,,,,,,,,,,,,,,,,,,,,,,,1,0,1,0,,,,,,,,,,,,,,,,,,,,,,1195.4707564001437,None,1195.4707564001437,None,4,22,female,left_right_width,2023_Aug_14_1524,exp1,2021.2.3,60.14614310501687,
,,,,,,,,,,,,,,,,3,9.1,10,10.9,0,0,0.9,0.8,0.1,1.9000000000000001,10,initial,36.05,328,361,393,0,0,9,9,9,0,0,,,,,2,0,2,0,0,0,0,12,,,,,num_2,1.599109600065276,num_2,0.45,1.6,0.10000000000000007,1.3,3.60429,46.85581,return,4.109362600138411,,,,,,,4,22,female,left_right_width,2023_Aug_14_1524,exp1,2021.2.3,60.14614310501687,
,,,,,,,,,,,,,,,,4,8.65,9.55,10.45,11.35,0,0.9,0.65,0.25,2.95,10,initial,36.05,312,344,377,409,0,9,9,9,9,0,,,,,2,0,2,0,0,1,1,32,,,,,num_4,1.2282823000568897,num_4,0.1,0.8,0.1,1.1,3.60429,39.64722,return,7.495964799774811,,,,,,,4,22,female,left_right_width,2023_Aug_14_1524,exp1,2021.2.3,60.14614310501687,
,,,,,,,,,,,,,,,,5,8.95,9.475,10,10.525,11.05,0.525,0.125,0.4,2.5,10,match,36.05,323,342,361,379,398,9,9,9,9,9,,,,,2,0,2,0,0,2,2,29,,,,,num_4,1.2172405000310391,num_4,0.15,0.6,0.25,0.4,9.01073,14.41717,return,4.989648299990222,,,,,,,4,22,female,left_right_width,2023_Aug_14_1524,exp1,2021.2.3,60.14614310501687,
,,,,,,,,,,,,,,,,5,8.65,9.325,10,10.675,11.35,0.675,0.275,0.4,3.1,10,match,36.05,312,336,361,385,409,9,9,9,9,9,,,,,2,0,2,0,0,3,3,35,,,,,num_5,1.368215500144288,num_5,0.3,0.8,0.25,0.6,9.01073,21.62576,return,4.181913000065833,,,,,,,4,22,female,left_right_width,2023_Aug_14_1524,exp1,2021.2.3,60.14614310501687,
,,,,,,,,,,,,,,,,4,9.425,9.808333333333334,10.191666666666666,10.575,0,0.3833333333333333,0.1333333333333333,0.25,1.4,10,match,36.05,340,354,367,381,0,9,9,9,9,0,,,,,2,0,2,0,0,4,4,5,,,,,num_3,1.4900127998553216,num_3,0.3,0.6,0.2,0.5,7.20859,18.02146,return,3.093753800028935,,,,,,,4,22,female,left_right_width,2023_Aug_14_1524,exp1,2021.2.3,60.14614310501687,
,,,,,,,,,,,,,,,,3,8.2,10,11.8,0,0,1.8,1.55,0.25,3.85,10,match,36.05,296,361,425,0,0,9,9,9,0,0,,,,,2,0,2,0,0,5,5,51,,,,,num_3,1.1377178998664021,num_3,0.1,0.8,0.2,1.15,7.20859,41.44937,return,4.6908162999898195,,,,,,,4,22,female,left_right_width,2023_Aug_14_1524,exp1,2021.2.3,60.14614310501687,
,,,,,,,,,,,,,,,,5,8.6,9.3,10,10.7,11.4,0.7,0.44999999999999996,0.25,3.05,10,initial,36.05,310,335,361,386,411,9,9,9,9,9,,,,,2,0,2,0,0,6,6,44,,,,,num_5,0.9900130000896752,num_5,0.25,0.8,0.10000000000000002,0.95,3.60429,34.24078,return,3.2561492999084294,,,,,,,4,22,female,left_right_width,2023_Aug_14_1524,exp1,2021.2.3,60.14614310501687,
,,,,,,,,,,,,,,,,3,8.2,10,11.8,0,0,1.7999999999999998,1.4,0.4,4,10,match,36.05,296,361,425,0,0,9,9,9,0,0,,,,,2,0,2,0,0,7,7,53,,,,,num_3,1.1478034001775086,num_3,0.2,0.3,0.3,1.5,10.81288,54.06439,return,7.723659800132737,,,,,,,4,22,female,left_right_width,2023_Aug_14_1524,exp1,2021.2.3,60.14614310501687,
,,,,,,,,,,,,,,,,4,9.25,9.75,10.25,10.75,0,0.5,0.25,0.25,1.75,10,initial,36.05,333,351,370,388,0,9,9,9,9,0,,,,,2,0,2,0,0,8,8,20,,,,,num_3,1.5404551001265645,num_3,0.3,1.1,0.15000000000000002,0.65,5.40644,23.4279,return,3.3320771001745015,,,,,,,4,22,female,left_right_width,2023_Aug_14_1524,exp1,2021.2.3,60.14614310501687,
,,,,,,,,,,,,,,,,4,9.3,9.766666666666667,10.233333333333333,10.7,0,0.4666666666666667,0.3666666666666667,0.1,1.5,10,match,36.05,335,352,369,386,0,9,9,9,9,0,,,,,2,0,2,0,0,9,9,7,,,,,num_3,1.2651624002028257,num_3,0.1,1.3,-0.05,0.6,-1.80215,21.62576,return,5.326074399985373,,,,,,,4,22,female,left_right_width,2023_Aug_14_1524,exp1,2021.2.3,60.14614310501687,
,,,,,,,,,,,,,,,,4,9.3,9.766666666666667,10.233333333333333,10.7,0,0.4666666666666667,0.06666666666666665,0.4,1.8,10,match,36.05,335,352,369,386,0,9,9,9,9,0,,,,,2,0,2,0,0,10,10,11,,,,,num_3,1.5251572001725435,num_3,0.2,0.9,0.39999999999999997,1.05,14.41717,37.84507,return,4.330952299991623,,,,,,,4,22,female,left_right_width,2023_Aug_14_1524,exp1,2021.2.3,60.14614310501687,
,,,,,,,,,,,,,,,,4,9.5,9.833333333333334,10.166666666666666,10.5,0,0.33333333333333337,0.23333333333333336,0.1,1.1,10,match,36.05,342,354,367,379,0,9,9,9,9,0,,,,,2,0,2,0,0,11,11,1,,,,,num_3,1.4108106999192387,num_3,0.3,1,0.05000000000000002,0.45,1.80215,16.21932,return,6.680936200078577,,,,,,,4,22,female,left_right_width,2023_Aug_14_1524,exp1,2021.2.3,60.14614310501687,
,,,,,,,,,,,,,,,,5,9,9.5,10,10.5,11,0.5,0.4,0.1,2.1,10,initial,36.05,324,342,361,379,397,9,9,9,9,9,,,,,2,0,2,0,0,12,12,36,,,,,num_5,1.2389709001872689,num_5,0.25,0.6,0.05000000000000002,0.35,1.80215,12.61502,return,3.6044399000238627,,,,,,,4,22,female,left_right_width,2023_Aug_14_1524,exp1,2021.2.3,60.14614310501687,
,,,,,,,,,,,,,,,,3,9.1,10,10.9,0,0,0.9,0.5,0.4,2.2,10,initial,36.05,328,361,393,0,0,9,9,9,0,0,,,,,2,0,2,0,0,13,13,16,,,,,num_3,1.3031252999790013,num_3,0.25,0.7,0.35,1.1,12.61502,39.64722,return,3.874423500150442,,,,,,,4,22,female,left_right_width,2023_Aug_14_1524,exp1,2021.2.3,60.14614310501687,
,,,,,,,,,,,,,,,,5,8.65,9.325,10,10.675,11.35,0.6749999999999999,0.575,0.1,2.8,10,match,36.05,312,336,361,385,409,9,9,9,9,9,,,,,2,0,2,0,0,14,14,31,,,,,num_5,1.1010975001845509,num_5,0.45,0.9,0.05000000000000007,0.9,1.80215,32.43864,return,4.911537700099871,,,,,,,4,22,female,left_right_width,2023_Aug_14_1524,exp1,2021.2.3,60.14614310501687,
,,,,,,,,,,,,,,,,5,8.6,9.3,10,10.7,11.4,0.7,0.29999999999999993,0.4,3.1999999999999997,10,initial,36.05,310,335,361,386,411,9,9,9,9,9,,,,,2,0,2,0,0,15,15,46,,,,,num_4,1.854506100062281,num_4,0.4,0.6,0.25000000000000006,1.0,9.01073,36.04293,return,4.945123099954799,,,,,,,4,22,female,left_right_width,2023_Aug_14_1524,exp1,2021.2.3,60.14614310501687,
,,,,,,,,,,,,,,,,5,8.6,9.3,10,10.7,11.4,0.7,0.6,0.1,2.9,10,initial,36.05,310,335,361,386,411,9,9,9,9,9,,,,,2,0,2,0,0,16,16,42,,,,,num_5,1.2157887001521885,num_5,0.45,0.9,0.10000000000000007,1.05,3.60429,37.84507,return,4.286371200112626,,,,,,,4,22,female,left_right_width,2023_Aug_14_1524,exp1,2021.2.3,60.14614310501687,
,,,,,,,,,,,,,,,,5,8.95,9.475,10,10.525,11.05,0.525,0.42500000000000004,0.1,2.2,10,match,36.05,323,342,361,379,398,9,9,9,9,9,,,,,2,0,2,0,0,17,17,25,,,,,num_4,1.2760250000283122,num_4,0.35,1.0,-0.04999999999999999,1.1,-1.80215,39.64722,return,7.829417400062084,,,,,,,4,22,female,left_right_width,2023_Aug_14_1524,exp1,2021.2.3,60.14614310501687,
,,,,,,,,,,,,,,,,3,9.5,10,10.5,0,0,0.5,0.25,0.25,1.25,10,initial,36.05,342,361,379,0,0,9,9,9,0,0,,,,,2,0,2,0,0,18,18,2,,,,,num_3,2.495298699941486,num_3,0.25,0.9,0.15000000000000002,0.6,5.40644,21.62576,return,6.315428800182417,,,,,,,4,22,female,left_right_width,2023_Aug_14_1524,exp1,2021.2.3,60.14614310501687,
,,,,,,,,,,,,,,,,5,8.2,9.1,10,10.9,11.8,0.9,0.5,0.4,4,10,initial,36.05,296,328,361,393,425,9,9,9,9,9,,,,,2,0,2,0,0,19,19,52,,,,,num_5,3.1304251002147794,num_5,0.1,1.0,0.2,0.55,7.20859,19.82361,return,5.214767399942502,,,,,,,4,22,female,left_right_width,2023_Aug_14_1524,exp1,2021.2.3,60.14614310501687,
,,,,,,,,,,,,,,,,3,9.3,10,10.7,0,0,0.7,0.6,0.1,1.5,10,initial,36.05,335,361,386,0,0,9,9,9,0,0,,,,,2,0,2,0,0,20,20,6,,,,,num_2,1.6306617998052388,num_2,0.35,1.6,0.15000000000000002,0.6,5.40644,21.62576,return,5.099379099905491,,,,,,,4,22,female,left_right_width,2023_Aug_14_1524,exp1,2021.2.3,60.14614310501687,
,,,,,,,,,,,,,,,,5,9,9.5,10,10.5,11,0.5,0.25,0.25,2.25,10,initial,36.05,324,342,361,379,397,9,9,9,9,9,,,,,2,0,2,0,0,21,21,38,,,,,num_5,1.001405700109899,num_5,0.45,0.6,0.15000000000000008,0.45,5.40644,16.21932,return,3.355716099962592,,,,,,,4,22,female,left_right_width,2023_Aug_14_1524,exp1,2021.2.3,60.14614310501687,
,,,,,,,,,,,,,,,,4,8.95,9.65,10.35,11.05,0,0.7,0.6,0.1,2.1999999999999997,10,initial,36.05,323,348,373,398,0,9,9,9,9,0,,,,,2,0,2,0,0,22,22,24,,,,,num_3,1.8089614000637084,num_3,0.25,0.7,1.3877787807814457e-17,0.85,0.0,30.63649,return,4.24549869983457,,,,,,,4,22,female,left_right_width,2023_Aug_14_1524,exp1,2021.2.3,60.14614310501687,
,,,,,,,,,,,,,,,,4,8.95,9.65,10.35,11.05,0,0.7,0.29999999999999993,0.4,2.5,10,initial,36.05,323,348,373,398,0,9,9,9,9,0,,,,,2,0,2,0,0,23,23,28,,,,,num_4,1.2626133998855948,num_4,0.4,1.2,0.20000000000000007,0.9,7.20859,32.43864,return,2.7135646999813616,,,,,,,4,22,female,left_right_width,2023_Aug_14_1524,exp1,2021.2.3,60.14614310501687,
,,,,,,,,,,,,,,,,3,9.5,10,10.5,0,0,0.5,0.4,0.1,1.1,10,initial,36.05,342,361,379,0,0,9,9,9,0,0,,,,,2,0,2,0,0,24,24,0,,,,,num_2,1.4233427001163363,num_2,0.1,1.6,0.05,0.6,1.80215,21.62576,return,6.452851000009105,,,,,,,4,22,female,left_right_width,2023_Aug_14_1524,exp1,2021.2.3,60.14614310501687,
,,,,,,,,,,,,,,,,3,8.2,10,11.8,0,0,1.8000000000000003,1.7000000000000002,0.1,3.7,10,match,36.05,296,361,425,0,0,9,9,9,0,0,,,,,2,0,2,0,0,25,25,49,,,,,num_2,0.9559285000432283,num_2,0.15,1.6,0.09999999999999999,2.0,3.60429,72.08586,return,8.597587500000373,,,,,,,4,22,female,left_right_width,2023_Aug_14_1524,exp1,2021.2.3,60.14614310501687,
,,,,,,,,,,,,,,,,5,8.65,9.325,10,10.675,11.35,0.675,0.42500000000000004,0.25,2.95,10,match,36.05,312,336,361,385,409,9,9,9,9,9,,,,,2,0,2,0,0,26,26,33,,,,,num_4,1.0593388001434505,num_4,0.45,0.6,0.05000000000000007,0.9,1.80215,32.43864,return,5.102678600000218,,,,,,,4,22,female,left_right_width,2023_Aug_14_1524,exp1,2021.2.3,60.14614310501687,
,,,,,,,,,,,,,,,,4,9.3,9.766666666666667,10.233333333333333,10.7,0,0.4666666666666667,0.21666666666666665,0.25,1.65,10,match,36.05,335,352,369,386,0,9,9,9,9,0,,,,,2,0,2,0,0,27,27,9,,,,,num_4,1.8205859998706728,num_4,0.15,0.8,0.09999999999999999,0.3,3.60429,10.81288,return,2.706533299991861,,,,,,,4,22,female,left_right_width,2023_Aug_14_1524,exp1,2021.2.3,60.14614310501687,
,,,,,,,,,,,,,,,,5,9.175,9.5875,10,10.4125,10.825,0.4125,0.16249999999999998,0.25,1.9,10,match,36.05,331,346,361,375,390,9,9,9,9,9,,,,,2,0,2,0,0,28,28,23,,,,,num_4,1.1807432000059634,num_4,0.2,0.9,0.10000000000000002,0.6,3.60429,21.62576,return,3.99688470014371,,,,,,,4,22,female,left_right_width,2023_Aug_14_1524,exp1,2021.2.3,60.14614310501687,
,,,,,,,,,,,,,,,,4,9.1,9.7,10.3,10.9,0,0.6,0.5,0.1,1.9,10,match,36.05,328,350,371,393,0,9,9,9,9,0,,,,,2,0,2,0,0,29,29,13,,,,,num_3,1.4650570000521839,num_3,0.45,0.9,0.05000000000000007,0.75,1.80215,27.0322,return,5.068346600048244,,,,,,,4,22,female,left_right_width,2023_Aug_14_1524,exp1,2021.2.3,60.14614310501687,
,,,,,,,,,,,,,,,,4,8.95,9.65,10.35,11.05,0,0.7,0.44999999999999996,0.25,2.3499999999999996,10,initial,36.05,323,348,373,398,0,9,9,9,9,0,,,,,2,0,2,0,0,30,30,26,,,,,num_4,1.2537750999908894,num_4,0.35,0.5,0.10000000000000002,0.7,3.60429,25.23005,return,4.130600600037724,,,,,,,4,22,female,left_right_width,2023_Aug_14_1524,exp1,2021.2.3,60.14614310501687,
,,,,,,,,,,,,,,,,5,9.25,9.625,10,10.375,10.75,0.375,0.275,0.1,1.6,10,match,36.05,333,347,361,374,388,9,9,9,9,9,,,,,2,0,2,0,0,31,31,19,,,,,num_4,0.9502204000018537,num_4,0.1,0.6,0.1,0.9,3.60429,32.43864,return,2.3631655001081526,,,,,,,4,22,female,left_right_width,2023_Aug_14_1524,exp1,2021.2.3,60.14614310501687,
,,,,,,,,,,,,,,,,3,8.6,10,11.4,0,0,1.4,1.15,0.25,3.05,10,match,36.05,310,361,411,0,0,9,9,9,0,0,,,,,2,0,2,0,0,32,32,45,,,,,num_2,1.377271399833262,num_2,0.35,1.6,0.10000000000000002,2.6,3.60429,93.71161,return,4.105868200073019,,,,,,,4,22,female,left_right_width,2023_Aug_14_1524,exp1,2021.2.3,60.14614310501687,
,,,,,,,,,,,,,,,,3,9.3,10,10.7,0,0,0.7,0.44999999999999996,0.25,1.65,10,initial,36.05,335,361,386,0,0,9,9,9,0,0,,,,,2,0,2,0,0,33,33,8,,,,,num_2,1.083031800109893,num_2,0.4,1.6,0.10000000000000007,0.8,3.60429,28.83434,return,3.791511100018397,,,,,,,4,22,female,left_right_width,2023_Aug_14_1524,exp1,2021.2.3,60.14614310501687,
,,,,,,,,,,,,,,,,4,9.25,9.75,10.25,10.75,0,0.5,0.4,0.1,1.6,10,initial,36.05,333,351,370,388,0,9,9,9,9,0,,,,,2,0,2,0,0,34,34,18,,,,,num_3,1.8800306001212448,num_3,0.3,1,0.05000000000000002,1.25,1.80215,45.05366,return,4.317114500096068,,,,,,,4,22,female,left_right_width,2023_Aug_14_1524,exp1,2021.2.3,60.14614310501687,
,,,,,,,,,,,,,,,,3,9.3,10,10.7,0,0,0.7,0.29999999999999993,0.4,1.8,10,initial,36.05,335,361,386,0,0,9,9,9,0,0,,,,,2,0,2,0,0,35,35,10,,,,,num_2,0.9186875999439508,num_2,0.35,1.6,0.25,1.1,9.01073,39.64722,return,4.655607900116593,,,,,,,4,22,female,left_right_width,2023_Aug_14_1524,exp1,2021.2.3,60.14614310501687,
,,,,,,,,,,,,,,,,3,9.1,10,10.9,0,0,0.9,0.65,0.25,2.05,10,initial,36.05,328,361,393,0,0,9,9,9,0,0,,,,,2,0,2,0,0,36,36,14,,,,,num_2,1.2065178998745978,num_2,0.2,1.6,0.3,1.9,10.81288,68.48156,return,3.0299273000564426,,,,,,,4,22,female,left_right_width,2023_Aug_14_1524,exp1,2021.2.3,60.14614310501687,
,,,,,,,,,,,,,,,,4,9.1,9.7,10.3,10.9,0,0.5999999999999999,0.3499999999999999,0.25,2.05,10,match,36.05,328,350,371,393,0,9,9,9,9,0,,,,,2,0,2,0,0,37,37,15,,,,,num_3,1.218172799795866,num_3,0.3,0.5,0.25,0.85,9.01073,30.63649,return,3.5979373999871314,,,,,,,4,22,female,left_right_width,2023_Aug_14_1524,exp1,2021.2.3,60.14614310501687,
,,,,,,,,,,,,,,,,5,8.2,9.1,10,10.9,11.8,0.9,0.65,0.25,3.85,10,initial,36.05,296,328,361,393,425,9,9,9,9,9,,,,,2,0,2,0,0,38,38,50,,,,,num_4,1.6507939000148326,num_4,0.35,1.3,0.25,1.6,9.01073,57.66869,return,3.3306207000277936,,,,,,,4,22,female,left_right_width,2023_Aug_14_1524,exp1,2021.2.3,60.14614310501687,
,,,,,,,,,,,,,,,,5,8.95,9.475,10,10.525,11.05,0.525,0.275,0.25,2.35,10,match,36.05,323,342,361,379,398,9,9,9,9,9,,,,,2,0,2,0,0,39,39,27,,,,,num_4,1.9791854999493808,num_4,0.4,0.7,0.25000000000000006,1.2,9.01073,43.25151,return,4.183144400129095,,,,,,,4,22,female,left_right_width,2023_Aug_14_1524,exp1,2021.2.3,60.14614310501687,
,,,,,,,,,,,,,,,,3,9,10,11,0,0,1,0.75,0.25,2.25,10,match,36.05,324,361,397,0,0,9,9,9,0,0,,,,,2,0,2,0,0,40,40,39,,,,,num_2,0.9812248998787254,num_2,0.45,1.6,0.30000000000000004,2.4,10.81288,86.50303,return,3.099995099939406,,,,,,,4,22,female,left_right_width,2023_Aug_14_1524,exp1,2021.2.3,60.14614310501687,
,,,,,,,,,,,,,,,,3,9,10,11,0,0,0.9999999999999999,0.5999999999999999,0.4,2.4,10,match,36.05,324,361,397,0,0,9,9,9,0,0,,,,,2,0,2,0,0,41,41,41,,,,,num_2,0.9996515999082476,num_2,0.3,1.6,0.15000000000000002,1.9,5.40644,68.48156,return,2.1608311999589205,,,,,,,4,22,female,left_right_width,2023_Aug_14_1524,exp1,2021.2.3,60.14614310501687,
,,,,,,,,,,,,,,,,5,8.2,9.1,10,10.9,11.8,0.9,0.8,0.1,3.7,10,initial,36.05,296,328,361,393,425,9,9,9,9,9,,,,,2,0,2,0,0,42,42,48,,,,,num_4,2.1007246000226587,num_4,0.35,1.2,0.10000000000000002,1.7,3.60429,61.27298,return,6.254006699891761,,,,,,,4,22,female,left_right_width,2023_Aug_14_1524,exp1,2021.2.3,60.14614310501687,
,,,,,,,,,,,,,,,,3,8.6,10,11.4,0,0,1.4,1.2999999999999998,0.1,2.9,10,match,36.05,310,361,411,0,0,9,9,9,0,0,,,,,2,0,2,0,0,43,43,43,,,,,num_2,1.1136598999146372,num_2,0.15,1.6,0.04999999999999999,2.2,1.80215,79.29444,return,4.354208200005814,,,,,,,4,22,female,left_right_width,2023_Aug_14_1524,exp1,2021.2.3,60.14614310501687,
,,,,,,,,,,,,,,,,4,8.65,9.55,10.45,11.35,0,0.9,0.8,0.1,2.8000000000000003,10,initial,36.05,312,344,377,409,0,9,9,9,9,0,,,,,2,0,2,0,0,44,44,30,,,,,num_4,1.1883094001095742,num_4,0.45,1.1,0.10000000000000007,1.3,3.60429,46.85581,return,6.450759100029245,,,,,,,4,22,female,left_right_width,2023_Aug_14_1524,exp1,2021.2.3,60.14614310501687,
,,,,,,,,,,,,,,,,3,9,10,11,0,0,1,0.9,0.1,2.1,10,match,36.05,324,361,397,0,0,9,9,9,0,0,,,,,2,0,2,0,0,45,45,37,,,,,num_2,2.5849082998465747,num_2,0.4,1.6,0.05000000000000007,2.3,1.80215,82.89874,return,4.446795800002292,,,,,,,4,22,female,left_right_width,2023_Aug_14_1524,exp1,2021.2.3,60.14614310501687,
,,,,,,,,,,,,,,,,4,9.5,9.833333333333334,10.166666666666666,10.5,0,0.3333333333333333,0.08333333333333333,0.25,1.25,10,match,36.05,342,354,367,379,0,9,9,9,9,0,,,,,2,0,2,0,0,46,46,3,,,,,num_3,2.0278151999227703,num_3,0.45,0.7,0.25000000000000006,0.5,9.01073,18.02146,return,3.7061522998847067,,,,,,,4,22,female,left_right_width,2023_Aug_14_1524,exp1,2021.2.3,60.14614310501687,
,,,,,,,,,,,,,,,,3,8.525,10,11.475,0,0,1.475,1.225,0.25,3.2,10,match,36.05,307,361,414,0,0,9,9,9,0,0,,,,,2,0,2,0,0,47,47,47,,,,,num_2,1.1020315999630839,num_2,0.25,1.6,0.35,2.3,12.61502,82.89874,return,3.1841349001042545,,,,,,,4,22,female,left_right_width,2023_Aug_14_1524,exp1,2021.2.3,60.14614310501687,
,,,,,,,,,,,,,,,,5,9.25,9.625,10,10.375,10.75,0.375,0.125,0.25,1.75,10,match,36.05,333,347,361,374,388,9,9,9,9,9,,,,,2,0,2,0,0,48,48,21,,,,,num_4,1.4418480000458658,num_4,0.15,0.7,0.2,0.4,7.20859,14.41717,return,3.3979702000506222,,,,,,,4,22,female,left_right_width,2023_Aug_14_1524,exp1,2021.2.3,60.14614310501687,
,,,,,,,,,,,,,,,,4,9.1,9.7,10.3,10.9,0,0.6000000000000001,0.20000000000000004,0.4,2.2,10,match,36.05,328,350,371,393,0,9,9,9,9,0,,,,,2,0,2,0,0,49,49,17,,,,,num_3,1.394199199974537,num_3,0.25,0.8,0.44999999999999996,0.7,16.21932,25.23005,return,3.6660252001602203,,,,,,,4,22,female,left_right_width,2023_Aug_14_1524,exp1,2021.2.3,60.14614310501687,
,,,,,,,,,,,,,,,,4,9.25,9.75,10.25,10.75,0,0.5,0.09999999999999998,0.4,1.9,10,initial,36.05,333,351,370,388,0,9,9,9,9,0,,,,,2,0,2,0,0,50,50,22,,,,,num_3,0.9953783999662846,num_3,0.4,0.6,0.35000000000000003,0.6,12.61502,21.62576,return,4.50736579997465,,,,,,,4,22,female,left_right_width,2023_Aug_14_1524,exp1,2021.2.3,60.14614310501687,
,,,,,,,,,,,,,,,,5,9,9.5,10,10.5,11,0.5,0.09999999999999998,0.4,2.4,10,initial,36.05,324,342,361,379,397,9,9,9,9,9,,,,,2,0,2,0,0,51,51,40,,,,,num_4,1.0547094999346882,num_4,0.35,0.9,0.39999999999999997,0.6,14.41717,21.62576,return,3.53897920018062,,,,,,,4,22,female,left_right_width,2023_Aug_14_1524,exp1,2021.2.3,60.14614310501687,
,,,,,,,,,,,,,,,,4,8.65,9.55,10.45,11.35,0,0.9,0.5,0.4,3.1,10,initial,36.05,312,344,377,409,0,9,9,9,9,0,,,,,2,0,2,0,0,52,52,34,,,,,num_4,1.054016999900341,num_4,0.45,0.9,0.45,1.1,16.21932,39.64722,return,2.7706216000951827,,,,,,,4,22,female,left_right_width,2023_Aug_14_1524,exp1,2021.2.3,60.14614310501687,
,,,,,,,,,,,,,,,,3,9.5,10,10.5,0,0,0.5,0.09999999999999998,0.4,1.4000000000000001,10,initial,36.05,342,361,379,0,0,9,9,9,0,0,,,,,2,0,2,0,0,53,53,4,,,,,num_2,1.100428500212729,num_2,0.45,1.6,0.30000000000000004,0.7,10.81288,25.23005,return,4.026529700029641,,,,,,,4,22,female,left_right_width,2023_Aug_14_1524,exp1,2021.2.3,60.14614310501687,
,,,,,,,,,,,,,,,,,,,,,,,,,,,,,,,,,,,,,,,,,,,2,0,2,0,,,,,,,,,,,,,,,,,,,,,,1608.0038676999975,None,1608.0038676999975,None,4,22,female,left_right_width,2023_Aug_14_1524,exp1,2021.2.3,60.14614310501687,
,,,,,,,,,,,,,,,,4,9.5,9.833333333333334,10.166666666666666,10.5,0,0.3333333333333333,0.08333333333333333,0.25,1.25,10,match,36.05,342,354,367,379,0,9,9,9,9,0,,,,,3,0,3,0,0,0,0,3,,,,,num_3,1.4371048999018967,num_3,0.1,0.5,0.15000000000000002,0.3,5.40644,10.81288,return,5.278473700163886,,,,,,,4,22,female,left_right_width,2023_Aug_14_1524,exp1,2021.2.3,60.14614310501687,
,,,,,,,,,,,,,,,,4,9.1,9.7,10.3,10.9,0,0.5999999999999999,0.3499999999999999,0.25,2.05,10,match,36.05,328,350,371,393,0,9,9,9,9,0,,,,,3,0,3,0,0,1,1,15,,,,,num_4,1.62166430009529,num_4,0.1,0.5,0.3,0.5,10.81288,18.02146,return,3.6113011999987066,,,,,,,4,22,female,left_right_width,2023_Aug_14_1524,exp1,2021.2.3,60.14614310501687,
,,,,,,,,,,,,,,,,5,8.65,9.325,10,10.675,11.35,0.675,0.42500000000000004,0.25,2.95,10,match,36.05,312,336,361,385,409,9,9,9,9,9,,,,,3,0,3,0,0,2,2,33,,,,,num_4,1.0691714000422508,num_4,0.2,0.4,0.15000000000000002,0.8,5.40644,28.83434,return,4.494974100030959,,,,,,,4,22,female,left_right_width,2023_Aug_14_1524,exp1,2021.2.3,60.14614310501687,
,,,,,,,,,,,,,,,,5,9,9.5,10,10.5,11,0.5,0.4,0.1,2.1,10,initial,36.05,324,342,361,379,397,9,9,9,9,9,,,,,3,0,3,0,0,3,3,36,,,,,num_4,0.9251114001963288,num_4,0.2,0.4,0.05000000000000002,1.0,1.80215,36.04293,return,2.805590200005099,,,,,,,4,22,female,left_right_width,2023_Aug_14_1524,exp1,2021.2.3,60.14614310501687,
,,,,,,,,,,,,,,,,5,8.65,9.325,10,10.675,11.35,0.675,0.275,0.4,3.1,10,match,36.05,312,336,361,385,409,9,9,9,9,9,,,,,3,0,3,0,0,4,4,35,,,,,num_4,1.059281700057909,num_4,0.25,0.3,0.35,1.0,12.61502,36.04293,return,3.5763906000647694,,,,,,,4,22,female,left_right_width,2023_Aug_14_1524,exp1,2021.2.3,60.14614310501687,
,,,,,,,,,,,,,,,,5,9,9.5,10,10.5,11,0.5,0.09999999999999998,0.4,2.4,10,initial,36.05,324,342,361,379,397,9,9,9,9,9,,,,,3,0,3,0,0,5,5,40,,,,,num_4,1.333515799837187,num_4,0.25,0.5,0.3,0.7,10.81288,25.23005,return,3.987423100043088,,,,,,,4,22,female,left_right_width,2023_Aug_14_1524,exp1,2021.2.3,60.14614310501687,
,,,,,,,,,,,,,,,,4,9.1,9.7,10.3,10.9,0,0.6,0.5,0.1,1.9,10,match,36.05,328,350,371,393,0,9,9,9,9,0,,,,,3,0,3,0,0,6,6,13,,,,,num_3,1.5010389999952167,num_3,0.35,0.4,1.3877787807814457e-17,1.0,0.0,36.04293,return,5.2639613000210375,,,,,,,4,22,female,left_right_width,2023_Aug_14_1524,exp1,2021.2.3,60.14614310501687,
,,,,,,,,,,,,,,,,5,9.25,9.625,10,10.375,10.75,0.375,0.275,0.1,1.6,10,match,36.05,333,347,361,374,388,9,9,9,9,9,,,,,3,0,3,0,0,7,7,19,,,,,num_4,1.1100790000054985,num_4,0.15,1.1,0.04999999999999999,0.4,1.80215,14.41717,return,4.009536199970171,,,,,,,4,22,female,left_right_width,2023_Aug_14_1524,exp1,2021.2.3,60.14614310501687,
,,,,,,,,,,,,,,,,5,8.95,9.475,10,10.525,11.05,0.525,0.42500000000000004,0.1,2.2,10,match,36.05,323,342,361,379,398,9,9,9,9,9,,,,,3,0,3,0,0,8,8,25,,,,,num_5,2.660626499913633,num_5,0.35,1.3,0.05000000000000002,0.45,1.80215,16.21932,return,8.265654999995604,,,,,,,4,22,female,left_right_width,2023_Aug_14_1524,exp1,2021.2.3,60.14614310501687,
,,,,,,,,,,,,,,,,4,9.25,9.75,10.25,10.75,0,0.5,0.09999999999999998,0.4,1.9,10,initial,36.05,333,351,370,388,0,9,9,9,9,0,,,,,3,0,3,0,0,9,9,22,,,,,num_4,1.6531052999198437,num_4,0.1,1.3,0.05,0.4,1.80215,14.41717,return,3.6185141000896692,,,,,,,4,22,female,left_right_width,2023_Aug_14_1524,exp1,2021.2.3,60.14614310501687,
,,,,,,,,,,,,,,,,4,9.25,9.75,10.25,10.75,0,0.5,0.4,0.1,1.6,10,initial,36.05,333,351,370,388,0,9,9,9,9,0,,,,,3,0,3,0,0,10,10,18,,,,,num_3,1.2898440998978913,num_3,0.1,0.8,0.05,0.95,1.80215,34.24078,return,3.0906533000525087,,,,,,,4,22,female,left_right_width,2023_Aug_14_1524,exp1,2021.2.3,60.14614310501687,
,,,,,,,,,,,,,,,,4,9.425,9.808333333333334,10.191666666666666,10.575,0,0.3833333333333333,0.1333333333333333,0.25,1.4,10,match,36.05,340,354,367,381,0,9,9,9,9,0,,,,,3,0,3,0,0,11,11,5,,,,,num_3,1.234025200130418,num_3,0.25,1.3,0.10000000000000002,0.65,3.60429,23.4279,return,5.072117399889976,,,,,,,4,22,female,left_right_width,2023_Aug_14_1524,exp1,2021.2.3,60.14614310501687,
,,,,,,,,,,,,,,,,5,8.95,9.475,10,10.525,11.05,0.525,0.125,0.4,2.5,10,match,36.05,323,342,361,379,398,9,9,9,9,9,,,,,3,0,3,0,0,12,12,29,,,,,num_4,1.0930252999532968,num_4,0.2,0.8,0.3,0.6,10.81288,21.62576,return,5.643191700102761,,,,,,,4,22,female,left_right_width,2023_Aug_14_1524,exp1,2021.2.3,60.14614310501687,
,,,,,,,,,,,,,,,,3,9,10,11,0,0,1,0.9,0.1,2.1,10,match,36.05,324,361,397,0,0,9,9,9,0,0,,,,,3,0,3,0,0,13,13,37,,,,,num_2,1.3949867999181151,num_2,0.1,1.6,-0.2,1.3,-7.20859,46.85581,return,4.480311100138351,,,,,,,4,22,female,left_right_width,2023_Aug_14_1524,exp1,2021.2.3,60.14614310501687,
,,,,,,,,,,,,,,,,3,9.1,10,10.9,0,0,0.9,0.65,0.25,2.05,10,initial,36.05,328,361,393,0,0,9,9,9,0,0,,,,,3,0,3,0,0,14,14,14,,,,,num_2,0.9284095999319106,num_2,0.4,1.6,0.15000000000000008,2.0,5.40644,72.08586,return,3.645453799981624,,,,,,,4,22,female,left_right_width,2023_Aug_14_1524,exp1,2021.2.3,60.14614310501687,
,,,,,,,,,,,,,,,,3,8.525,10,11.475,0,0,1.475,1.225,0.25,3.2,10,match,36.05,307,361,414,0,0,9,9,9,0,0,,,,,3,0,3,0,0,15,15,47,,,,,num_2,1.3524614002089947,num_2,0.4,1.6,0.10000000000000007,2.5,3.60429,90.10732,return,5.508253799984232,,,,,,,4,22,female,left_right_width,2023_Aug_14_1524,exp1,2021.2.3,60.14614310501687,
,,,,,,,,,,,,,,,,3,8.2,10,11.8,0,0,1.8000000000000003,1.7000000000000002,0.1,3.7,10,match,36.05,296,361,425,0,0,9,9,9,0,0,,,,,3,0,3,0,0,16,16,49,,,,,num_2,2.401447100099176,num_2,0.25,1.6,0.05000000000000002,2.8,1.80215,100.9202,return,7.217631299979985,,,,,,,4,22,female,left_right_width,2023_Aug_14_1524,exp1,2021.2.3,60.14614310501687,
,,,,,,,,,,,,,,,,3,8.6,10,11.4,0,0,1.4,1.15,0.25,3.05,10,match,36.05,310,361,411,0,0,9,9,9,0,0,,,,,3,0,3,0,0,17,17,45,,,,,num_2,1.141875599976629,num_2,0.4,1.6,0.10000000000000007,2.5,3.60429,90.10732,return,5.223870599875227,,,,,,,4,22,female,left_right_width,2023_Aug_14_1524,exp1,2021.2.3,60.14614310501687,
,,,,,,,,,,,,,,,,3,8.2,10,11.8,0,0,1.7999999999999998,1.4,0.4,4,10,match,36.05,296,361,425,0,0,9,9,9,0,0,,,,,3,0,3,0,0,18,18,53,,,,,num_2,1.0960948998108506,num_2,0.45,1.6,0.10000000000000007,3.3,3.60429,118.94166,return,7.590948399854824,,,,,,,4,22,female,left_right_width,2023_Aug_14_1524,exp1,2021.2.3,60.14614310501687,
,,,,,,,,,,,,,,,,3,9.5,10,10.5,0,0,0.5,0.4,0.1,1.1,10,initial,36.05,342,361,379,0,0,9,9,9,0,0,,,,,3,0,3,0,0,19,19,0,,,,,num_2,1.1172708999365568,num_2,0.35,1.6,0.25,0.5,9.01073,18.02146,return,4.576746100094169,,,,,,,4,22,female,left_right_width,2023_Aug_14_1524,exp1,2021.2.3,60.14614310501687,
,,,,,,,,,,,,,,,,3,9.5,10,10.5,0,0,0.5,0.09999999999999998,0.4,1.4000000000000001,10,initial,36.05,342,361,379,0,0,9,9,9,0,0,,,,,3,0,3,0,0,20,20,4,,,,,num_2,1.029371300013736,num_2,0.3,1.6,0.25,0.5,9.01073,18.02146,return,4.877084699925035,,,,,,,4,22,female,left_right_width,2023_Aug_14_1524,exp1,2021.2.3,60.14614310501687,
,,,,,,,,,,,,,,,,4,8.65,9.55,10.45,11.35,0,0.9,0.5,0.4,3.1,10,initial,36.05,312,344,377,409,0,9,9,9,9,0,,,,,3,0,3,0,0,21,21,34,,,,,num_4,1.736048499820754,num_4,0.3,1.2,0.39999999999999997,0.7,14.41717,25.23005,return,5.110938099911436,,,,,,,4,22,female,left_right_width,2023_Aug_14_1524,exp1,2021.2.3,60.14614310501687,
,,,,,,,,,,,,,,,,4,8.95,9.65,10.35,11.05,0,0.7,0.44999999999999996,0.25,2.3499999999999996,10,initial,36.05,323,348,373,398,0,9,9,9,9,0,,,,,3,0,3,0,0,22,22,26,,,,,num_4,1.197694499976933,num_4,0.4,0.6,0.20000000000000007,0.9,7.20859,32.43864,return,4.541736599989235,,,,,,,4,22,female,left_right_width,2023_Aug_14_1524,exp1,2021.2.3,60.14614310501687,
,,,,,,,,,,,,,,,,5,8.6,9.3,10,10.7,11.4,0.7,0.6,0.1,2.9,10,initial,36.05,310,335,361,386,411,9,9,9,9,9,,,,,3,0,3,0,0,23,23,42,,,,,num_4,1.1460357999894768,num_4,0.35,0.8,0.05000000000000002,0.9,1.80215,32.43864,return,4.318152700085193,,,,,,,4,22,female,left_right_width,2023_Aug_14_1524,exp1,2021.2.3,60.14614310501687,
,,,,,,,,,,,,,,,,5,8.2,9.1,10,10.9,11.8,0.9,0.5,0.4,4,10,initial,36.05,296,328,361,393,425,9,9,9,9,9,,,,,3,0,3,0,0,24,24,52,,,,,num_5,1.239412299823016,num_5,0.4,0.8,0.15000000000000008,0.8,5.40644,28.83434,return,3.252323399996385,,,,,,,4,22,female,left_right_width,2023_Aug_14_1524,exp1,2021.2.3,60.14614310501687,
,,,,,,,,,,,,,,,,4,9.5,9.833333333333334,10.166666666666666,10.5,0,0.33333333333333337,0.23333333333333336,0.1,1.1,10,match,36.05,342,354,367,379,0,9,9,9,9,0,,,,,3,0,3,0,0,25,25,1,,,,,num_3,1.6359004999976605,num_3,0.15,0.3,0.15,0.5,5.40644,18.02146,return,4.592064500087872,,,,,,,4,22,female,left_right_width,2023_Aug_14_1524,exp1,2021.2.3,60.14614310501687,
,,,,,,,,,,,,,,,,4,9.1,9.7,10.3,10.9,0,0.6000000000000001,0.20000000000000004,0.4,2.2,10,match,36.05,328,350,371,393,0,9,9,9,9,0,,,,,3,0,3,0,0,26,26,17,,,,,num_4,1.1996187998447567,num_4,0.1,1.3,0.39999999999999997,0.9,14.41717,32.43864,return,5.077580600045621,,,,,,,4,22,female,left_right_width,2023_Aug_14_1524,exp1,2021.2.3,60.14614310501687,
,,,,,,,,,,,,,,,,5,8.6,9.3,10,10.7,11.4,0.7,0.44999999999999996,0.25,3.05,10,initial,36.05,310,335,361,386,411,9,9,9,9,9,,,,,3,0,3,0,0,27,27,44,,,,,num_5,1.1633677000645548,num_5,0.15,0.5,0.25,0.95,9.01073,34.24078,return,5.13406730000861,,,,,,,4,22,female,left_right_width,2023_Aug_14_1524,exp1,2021.2.3,60.14614310501687,
,,,,,,,,,,,,,,,,5,8.2,9.1,10,10.9,11.8,0.9,0.8,0.1,3.7,10,initial,36.05,296,328,361,393,425,9,9,9,9,9,,,,,3,0,3,0,0,28,28,48,,,,,num_5,1.0473615999799222,num_5,0.45,1.1,0.10000000000000007,1.1,3.60429,39.64722,return,3.77322329999879,,,,,,,4,22,female,left_right_width,2023_Aug_14_1524,exp1,2021.2.3,60.14614310501687,
,,,,,,,,,,,,,,,,3,8.6,10,11.4,0,0,1.4,1.2999999999999998,0.1,2.9,10,match,36.05,310,361,411,0,0,9,9,9,0,0,,,,,3,0,3,0,0,29,29,43,,,,,num_2,1.234227200038731,num_2,0.2,1.6,0.10000000000000002,2.3,3.60429,82.89874,return,3.3122823000885546,,,,,,,4,22,female,left_right_width,2023_Aug_14_1524,exp1,2021.2.3,60.14614310501687,
,,,,,,,,,,,,,,,,4,8.65,9.55,10.45,11.35,0,0.9,0.65,0.25,2.95,10,initial,36.05,312,344,377,409,0,9,9,9,9,0,,,,,3,0,3,0,0,30,30,32,,,,,num_3,1.692065899958834,num_3,0.35,1.3,0.15000000000000002,1.6,5.40644,57.66869,return,6.91946729994379,,,,,,,4,22,female,left_right_width,2023_Aug_14_1524,exp1,2021.2.3,60.14614310501687,
,,,,,,,,,,,,,,,,4,8.95,9.65,10.35,11.05,0,0.7,0.6,0.1,2.1999999999999997,10,initial,36.05,323,348,373,398,0,9,9,9,9,0,,,,,3,0,3,0,0,31,31,24,,,,,num_3,2.283294799970463,num_3,0.1,1,0.15000000000000002,1,5.40644,36.04293,return,11.025590000208467,,,,,,,4,22,female,left_right_width,2023_Aug_14_1524,exp1,2021.2.3,60.14614310501687,
,,,,,,,,,,,,,,,,3,9,10,11,0,0,0.9999999999999999,0.5999999999999999,0.4,2.4,10,match,36.05,324,361,397,0,0,9,9,9,0,0,,,,,3,0,3,0,0,32,32,41,,,,,num_2,1.1386816001031548,num_2,0.4,1.6,0.4,1.2,14.41717,43.25151,return,2.612642199965194,,,,,,,4,22,female,left_right_width,2023_Aug_14_1524,exp1,2021.2.3,60.14614310501687,
,,,,,,,,,,,,,,,,4,8.95,9.65,10.35,11.05,0,0.7,0.29999999999999993,0.4,2.5,10,initial,36.05,323,348,373,398,0,9,9,9,9,0,,,,,3,0,3,0,0,33,33,28,,,,,num_3,1.7101551000960171,num_3,0.15,1.1,0.3,0.85,10.81288,30.63649,return,5.639813000103459,,,,,,,4,22,female,left_right_width,2023_Aug_14_1524,exp1,2021.2.3,60.14614310501687,
,,,,,,,,,,,,,,,,3,9,10,11,0,0,1,0.75,0.25,2.25,10,match,36.05,324,361,397,0,0,9,9,9,0,0,,,,,3,0,3,0,0,34,34,39,,,,,num_2,1.0912592001259327,num_2,0.15,1.6,0.25,0.8,9.01073,28.83434,return,5.786991199944168,,,,,,,4,22,female,left_right_width,2023_Aug_14_1524,exp1,2021.2.3,60.14614310501687,
,,,,,,,,,,,,,,,,3,9.3,10,10.7,0,0,0.7,0.6,0.1,1.5,10,initial,36.05,335,361,386,0,0,9,9,9,0,0,,,,,3,0,3,0,0,35,35,6,,,,,num_2,2.7904367002192885,num_2,0.3,1.6,0.10000000000000002,1.9,3.60429,68.48156,return,3.6963317000772804,,,,,,,4,22,female,left_right_width,2023_Aug_14_1524,exp1,2021.2.3,60.14614310501687,
,,,,,,,,,,,,,,,,4,9.25,9.75,10.25,10.75,0,0.5,0.25,0.25,1.75,10,initial,36.05,333,351,370,388,0,9,9,9,9,0,,,,,3,0,3,0,0,36,36,20,,,,,num_3,1.192767099943012,num_3,0.25,1.1,0.05000000000000002,0.7,1.80215,25.23005,return,3.827135000145063,,,,,,,4,22,female,left_right_width,2023_Aug_14_1524,exp1,2021.2.3,60.14614310501687,
,,,,,,,,,,,,,,,,3,8.2,10,11.8,0,0,1.8,1.55,0.25,3.85,10,match,36.05,296,361,425,0,0,9,9,9,0,0,,,,,3,0,3,0,0,37,37,51,,,,,num_2,1.2858114000409842,num_2,0.4,1.6,0.10000000000000007,2.5,3.60429,90.10732,return,4.962184499949217,,,,,,,4,22,female,left_right_width,2023_Aug_14_1524,exp1,2021.2.3,60.14614310501687,
,,,,,,,,,,,,,,,,3,9.3,10,10.7,0,0,0.7,0.44999999999999996,0.25,1.65,10,initial,36.05,335,361,386,0,0,9,9,9,0,0,,,,,3,0,3,0,0,38,38,8,,,,,num_2,0.9631080999970436,num_2,0.15,1.6,0.15,0.8,5.40644,28.83434,return,2.9145994000136852,,,,,,,4,22,female,left_right_width,2023_Aug_14_1524,exp1,2021.2.3,60.14614310501687,
,,,,,,,,,,,,,,,,5,9.25,9.625,10,10.375,10.75,0.375,0.125,0.25,1.75,10,match,36.05,333,347,361,374,388,9,9,9,9,9,,,,,3,0,3,0,0,39,39,21,,,,,num_4,1.3802718000952154,num_4,0.25,0.3,0.2,0.5,7.20859,18.02146,return,4.367197300074622,,,,,,,4,22,female,left_right_width,2023_Aug_14_1524,exp1,2021.2.3,60.14614310501687,
,,,,,,,,,,,,,,,,3,9.1,10,10.9,0,0,0.9,0.8,0.1,1.9000000000000001,10,initial,36.05,328,361,393,0,0,9,9,9,0,0,,,,,3,0,3,0,0,40,40,12,,,,,num_2,1.0781823999714106,num_2,0.2,1.6,0.05000000000000002,1.6,1.80215,57.66869,return,2.6014776998199522,,,,,,,4,22,female,left_right_width,2023_Aug_14_1524,exp1,2021.2.3,60.14614310501687,
,,,,,,,,,,,,,,,,5,8.65,9.325,10,10.675,11.35,0.6749999999999999,0.575,0.1,2.8,10,match,36.05,312,336,361,385,409,9,9,9,9,9,,,,,3,0,3,0,0,41,41,31,,,,,num_5,1.604182800045237,num_5,0.1,0.9,0.1,0.9,3.60429,32.43864,return,4.2840533999260515,,,,,,,4,22,female,left_right_width,2023_Aug_14_1524,exp1,2021.2.3,60.14614310501687,
,,,,,,,,,,,,,,,,5,8.2,9.1,10,10.9,11.8,0.9,0.65,0.25,3.85,10,initial,36.05,296,328,361,393,425,9,9,9,9,9,,,,,3,0,3,0,0,42,42,50,,,,,num_5,1.4571830998174846,num_5,0.45,1.1,0.10000000000000007,0.85,3.60429,30.63649,return,4.514885900076479,,,,,,,4,22,female,left_right_width,2023_Aug_14_1524,exp1,2021.2.3,60.14614310501687,
,,,,,,,,,,,,,,,,5,8.6,9.3,10,10.7,11.4,0.7,0.29999999999999993,0.4,3.1999999999999997,10,initial,36.05,310,335,361,386,411,9,9,9,9,9,,,,,3,0,3,0,0,43,43,46,,,,,num_5,1.5293489000760019,num_5,0.45,0.6,0.10000000000000007,0.75,3.60429,27.0322,return,4.4745591001119465,,,,,,,4,22,female,left_right_width,2023_Aug_14_1524,exp1,2021.2.3,60.14614310501687,
,,,,,,,,,,,,,,,,4,8.65,9.55,10.45,11.35,0,0.9,0.8,0.1,2.8000000000000003,10,initial,36.05,312,344,377,409,0,9,9,9,9,0,,,,,3,0,3,0,0,44,44,30,,,,,num_4,1.0980833999346942,num_4,0.35,0.6,0.05000000000000002,1.0,1.80215,36.04293,return,4.026106199948117,,,,,,,4,22,female,left_right_width,2023_Aug_14_1524,exp1,2021.2.3,60.14614310501687,
,,,,,,,,,,,,,,,,5,9,9.5,10,10.5,11,0.5,0.25,0.25,2.25,10,initial,36.05,324,342,361,379,397,9,9,9,9,9,,,,,3,0,3,0,0,45,45,38,,,,,num_4,1.3981995999347419,num_4,0.4,1.2,0.05000000000000007,1.1,1.80215,39.64722,return,5.486336200032383,,,,,,,4,22,female,left_right_width,2023_Aug_14_1524,exp1,2021.2.3,60.14614310501687,
,,,,,,,,,,,,,,,,5,9.175,9.5875,10,10.4125,10.825,0.4125,0.16249999999999998,0.25,1.9,10,match,36.05,331,346,361,375,390,9,9,9,9,9,,,,,3,0,3,0,0,46,46,23,,,,,num_4,1.3165504999924451,num_4,0.35,1.2,0.05000000000000002,1.0,1.80215,36.04293,return,4.6929116998799145,,,,,,,4,22,female,left_right_width,2023_Aug_14_1524,exp1,2021.2.3,60.14614310501687,
,,,,,,,,,,,,,,,,4,9.3,9.766666666666667,10.233333333333333,10.7,0,0.4666666666666667,0.3666666666666667,0.1,1.5,10,match,36.05,335,352,369,386,0,9,9,9,9,0,,,,,3,0,3,0,0,47,47,7,,,,,num_3,1.578738700132817,num_3,0.2,0.6,0.05000000000000002,0.55,1.80215,19.82361,return,5.180288200033829,,,,,,,4,22,female,left_right_width,2023_Aug_14_1524,exp1,2021.2.3,60.14614310501687,
,,,,,,,,,,,,,,,,3,9.1,10,10.9,0,0,0.9,0.5,0.4,2.2,10,initial,36.05,328,361,393,0,0,9,9,9,0,0,,,,,3,0,3,0,0,48,48,16,,,,,num_2,1.540206199977547,num_2,0.2,1.6,0.3,1.6,10.81288,57.66869,return,3.3336918000131845,,,,,,,4,22,female,left_right_width,2023_Aug_14_1524,exp1,2021.2.3,60.14614310501687,
,,,,,,,,,,,,,,,,4,9.3,9.766666666666667,10.233333333333333,10.7,0,0.4666666666666667,0.06666666666666665,0.4,1.8,10,match,36.05,335,352,369,386,0,9,9,9,9,0,,,,,3,0,3,0,0,49,49,11,,,,,num_3,1.1442350998986512,num_3,0.15,1,0.25,0.35,9.01073,12.61502,return,7.288628699956462,,,,,,,4,22,female,left_right_width,2023_Aug_14_1524,exp1,2021.2.3,60.14614310501687,
,,,,,,,,,,,,,,,,5,8.95,9.475,10,10.525,11.05,0.525,0.275,0.25,2.35,10,match,36.05,323,342,361,379,398,9,9,9,9,9,,,,,3,0,3,0,0,50,50,27,,,,,num_4,1.9613602999597788,num_4,0.4,0.6,0.5,0.8,18.02146,28.83434,return,5.962007200112566,,,,,,,4,22,female,left_right_width,2023_Aug_14_1524,exp1,2021.2.3,60.14614310501687,
,,,,,,,,,,,,,,,,4,9.3,9.766666666666667,10.233333333333333,10.7,0,0.4666666666666667,0.21666666666666665,0.25,1.65,10,match,36.05,335,352,369,386,0,9,9,9,9,0,,,,,3,0,3,0,0,51,51,9,,,,,num_3,1.4578986999113113,num_3,0.45,0.6,0.30000000000000004,0.5,10.81288,18.02146,return,6.536233100108802,,,,,,,4,22,female,left_right_width,2023_Aug_14_1524,exp1,2021.2.3,60.14614310501687,
,,,,,,,,,,,,,,,,3,9.3,10,10.7,0,0,0.7,0.29999999999999993,0.4,1.8,10,initial,36.05,335,361,386,0,0,9,9,9,0,0,,,,,3,0,3,0,0,52,52,10,,,,,num_2,1.2521560001187027,num_2,0.15,1.6,0.35,0.5,12.61502,18.02146,return,5.11435590009205,,,,,,,4,22,female,left_right_width,2023_Aug_14_1524,exp1,2021.2.3,60.14614310501687,
,,,,,,,,,,,,,,,,3,9.5,10,10.5,0,0,0.5,0.25,0.25,1.25,10,initial,36.05,342,361,379,0,0,9,9,9,0,0,,,,,3,0,3,0,0,53,53,2,,,,,num_2,1.0689150001853704,num_2,0.25,1.6,0.39999999999999997,0.6,14.41717,21.62576,return,4.705401899991557,,,,,,,4,22,female,left_right_width,2023_Aug_14_1524,exp1,2021.2.3,60.14614310501687,
,,,,,,,,,,,,,,,,,,,,,,,,,,,,,,,,,,,,,,,,,,,3,0,3,0,,,,,,,,,,,,,,,,,,,,,,2043.870233300142,None,2043.870233300142,None,4,22,female,left_right_width,2023_Aug_14_1524,exp1,2021.2.3,60.14614310501687,
,,,,,,,,,,,,,,,,5,8.2,9.1,10,10.9,11.8,0.9,0.65,0.25,3.85,10,initial,36.05,296,328,361,393,425,9,9,9,9,9,,,,,4,0,4,0,0,0,0,50,,,,,num_4,1.341955600073561,num_4,0.15,0.6,0.04999999999999999,1.7,1.80215,61.27298,return,3.6706216000020504,,,,,,,4,22,female,left_right_width,2023_Aug_14_1524,exp1,2021.2.3,60.14614310501687,
,,,,,,,,,,,,,,,,3,8.6,10,11.4,0,0,1.4,1.15,0.25,3.05,10,match,36.05,310,361,411,0,0,9,9,9,0,0,,,,,4,0,4,0,0,1,1,45,,,,,num_2,1.1473386001307517,num_2,0.25,1.6,0.15000000000000002,2.8,5.40644,100.9202,return,3.4702878000680357,,,,,,,4,22,female,left_right_width,2023_Aug_14_1524,exp1,2021.2.3,60.14614310501687,
,,,,,,,,,,,,,,,,5,8.95,9.475,10,10.525,11.05,0.525,0.275,0.25,2.35,10,match,36.05,323,342,361,379,398,9,9,9,9,9,,,,,4,0,4,0,0,2,2,27,,,,,num_4,2.1583098999690264,num_4,0.25,1.0,0.15000000000000002,0.6,5.40644,21.62576,return,4.19378129998222,,,,,,,4,22,female,left_right_width,2023_Aug_14_1524,exp1,2021.2.3,60.14614310501687,
,,,,,,,,,,,,,,,,5,8.95,9.475,10,10.525,11.05,0.525,0.42500000000000004,0.1,2.2,10,match,36.05,323,342,361,379,398,9,9,9,9,9,,,,,4,0,4,0,0,3,3,25,,,,,num_4,1.3526560000609607,num_4,0.2,1.3,0.10000000000000002,1.5,3.60429,54.06439,return,4.257180899847299,,,,,,,4,22,female,left_right_width,2023_Aug_14_1524,exp1,2021.2.3,60.14614310501687,
,,,,,,,,,,,,,,,,3,9.3,10,10.7,0,0,0.7,0.44999999999999996,0.25,1.65,10,initial,36.05,335,361,386,0,0,9,9,9,0,0,,,,,4,0,4,0,0,4,4,8,,,,,num_2,1.191152400104329,num_2,0.45,1.6,0.20000000000000007,1.1,7.20859,39.64722,return,3.990081900032237,,,,,,,4,22,female,left_right_width,2023_Aug_14_1524,exp1,2021.2.3,60.14614310501687,
,,,,,,,,,,,,,,,,3,9,10,11,0,0,1,0.75,0.25,2.25,10,match,36.05,324,361,397,0,0,9,9,9,0,0,,,,,4,0,4,0,0,5,5,39,,,,,num_2,0.996753100072965,num_2,0.4,1.6,0.15000000000000008,1.9,5.40644,68.48156,return,3.110112499911338,,,,,,,4,22,female,left_right_width,2023_Aug_14_1524,exp1,2021.2.3,60.14614310501687,
,,,,,,,,,,,,,,,,3,8.2,10,11.8,0,0,1.8000000000000003,1.7000000000000002,0.1,3.7,10,match,36.05,296,361,425,0,0,9,9,9,0,0,,,,,4,0,4,0,0,6,6,49,,,,,num_2,1.0159132999833673,num_2,0.25,1.6,0.05000000000000002,1.8,1.80215,64.87727,return,2.5214239999186248,,,,,,,4,22,female,left_right_width,2023_Aug_14_1524,exp1,2021.2.3,60.14614310501687,
,,,,,,,,,,,,,,,,3,9.5,10,10.5,0,0,0.5,0.25,0.25,1.25,10,initial,36.05,342,361,379,0,0,9,9,9,0,0,,,,,4,0,4,0,0,7,7,2,,,,,num_2,0.9146286000031978,num_2,0.25,1.6,0.15000000000000002,0.5,5.40644,18.02146,return,4.3496079000178725,,,,,,,4,22,female,left_right_width,2023_Aug_14_1524,exp1,2021.2.3,60.14614310501687,
,,,,,,,,,,,,,,,,4,9.25,9.75,10.25,10.75,0,0.5,0.4,0.1,1.6,10,initial,36.05,333,351,370,388,0,9,9,9,9,0,,,,,4,0,4,0,0,8,8,18,,,,,num_3,1.1480299001559615,num_3,0.45,1,0.05000000000000007,0.65,1.80215,23.4279,return,4.588685400085524,,,,,,,4,22,female,left_right_width,2023_Aug_14_1524,exp1,2021.2.3,60.14614310501687,
,,,,,,,,,,,,,,,,3,8.525,10,11.475,0,0,1.475,1.225,0.25,3.2,10,match,36.05,307,361,414,0,0,9,9,9,0,0,,,,,4,0,4,0,0,9,9,47,,,,,num_2,0.9677524999715388,num_2,0.45,1.6,0.20000000000000007,2.6,7.20859,93.71161,return,6.113066599937156,,,,,,,4,22,female,left_right_width,2023_Aug_14_1524,exp1,2021.2.3,60.14614310501687,
,,,,,,,,,,,,,,,,4,8.65,9.55,10.45,11.35,0,0.9,0.8,0.1,2.8000000000000003,10,initial,36.05,312,344,377,409,0,9,9,9,9,0,,,,,4,0,4,0,0,10,10,30,,,,,num_4,1.240504999877885,num_4,0.15,0.7,0.04999999999999999,1.3,1.80215,46.85581,return,3.4931893998291343,,,,,,,4,22,female,left_right_width,2023_Aug_14_1524,exp1,2021.2.3,60.14614310501687,
,,,,,,,,,,,,,,,,5,9.25,9.625,10,10.375,10.75,0.375,0.275,0.1,1.6,10,match,36.05,333,347,361,374,388,9,9,9,9,9,,,,,4,0,4,0,0,11,11,19,,,,,num_4,0.9727356000803411,num_4,0.3,1.1,0.10000000000000002,0.4,3.60429,14.41717,return,4.07041610009037,,,,,,,4,22,female,left_right_width,2023_Aug_14_1524,exp1,2021.2.3,60.14614310501687,
,,,,,,,,,,,,,,,,3,9.3,10,10.7,0,0,0.7,0.29999999999999993,0.4,1.8,10,initial,36.05,335,361,386,0,0,9,9,9,0,0,,,,,4,0,4,0,0,12,12,10,,,,,num_2,0.9264946000184864,num_2,0.35,1.6,0.39999999999999997,0.9,14.41717,32.43864,return,3.058912599924952,,,,,,,4,22,female,left_right_width,2023_Aug_14_1524,exp1,2021.2.3,60.14614310501687,
,,,,,,,,,,,,,,,,3,9.1,10,10.9,0,0,0.9,0.5,0.4,2.2,10,initial,36.05,328,361,393,0,0,9,9,9,0,0,,,,,4,0,4,0,0,13,13,16,,,,,num_2,0.8078103000298142,num_2,0.3,1.6,0.39999999999999997,1.0,14.41717,36.04293,return,3.7490699000190943,,,,,,,4,22,female,left_right_width,2023_Aug_14_1524,exp1,2021.2.3,60.14614310501687,
,,,,,,,,,,,,,,,,5,9,9.5,10,10.5,11,0.5,0.09999999999999998,0.4,2.4,10,initial,36.05,324,342,361,379,397,9,9,9,9,9,,,,,4,0,4,0,0,14,14,40,,,,,num_4,0.9188818000257015,num_4,0.1,1.1,0.39999999999999997,0.6,14.41717,21.62576,return,5.662138300016522,,,,,,,4,22,female,left_right_width,2023_Aug_14_1524,exp1,2021.2.3,60.14614310501687,
,,,,,,,,,,,,,,,,3,9.5,10,10.5,0,0,0.5,0.09999999999999998,0.4,1.4000000000000001,10,initial,36.05,342,361,379,0,0,9,9,9,0,0,,,,,4,0,4,0,0,15,15,4,,,,,num_2,0.9748740000650287,num_2,0.35,1.6,0.49999999999999994,0.7,18.02146,25.23005,return,3.5541572000365704,,,,,,,4,22,female,left_right_width,2023_Aug_14_1524,exp1,2021.2.3,60.14614310501687,
,,,,,,,,,,,,,,,,4,8.65,9.55,10.45,11.35,0,0.9,0.5,0.4,3.1,10,initial,36.05,312,344,377,409,0,9,9,9,9,0,,,,,4,0,4,0,0,16,16,34,,,,,num_4,1.0869431998580694,num_4,0.2,1.1,0.44999999999999996,0.6,16.21932,21.62576,return,3.8585196000058204,,,,,,,4,22,female,left_right_width,2023_Aug_14_1524,exp1,2021.2.3,60.14614310501687,
,,,,,,,,,,,,,,,,3,9.1,10,10.9,0,0,0.9,0.8,0.1,1.9000000000000001,10,initial,36.05,328,361,393,0,0,9,9,9,0,0,,,,,4,0,4,0,0,17,17,12,,,,,num_2,0.8045117000583559,num_2,0.25,1.6,0.05000000000000002,2.3,1.80215,82.89874,return,3.989233100088313,,,,,,,4,22,female,left_right_width,2023_Aug_14_1524,exp1,2021.2.3,60.14614310501687,
,,,,,,,,,,,,,,,,4,9.25,9.75,10.25,10.75,0,0.5,0.25,0.25,1.75,10,initial,36.05,333,351,370,388,0,9,9,9,9,0,,,,,4,0,4,0,0,18,18,20,,,,,num_3,1.5727312001399696,num_3,0.45,0.8,0.10000000000000007,1.55,3.60429,55.86654,return,7.377193900058046,,,,,,,4,22,female,left_right_width,2023_Aug_14_1524,exp1,2021.2.3,60.14614310501687,
,,,,,,,,,,,,,,,,4,9.3,9.766666666666667,10.233333333333333,10.7,0,0.4666666666666667,0.21666666666666665,0.25,1.65,10,match,36.05,335,352,369,386,0,9,9,9,9,0,,,,,4,0,4,0,0,19,19,9,,,,,num_3,1.6864831999409944,num_3,0.3,0.4,0.10000000000000002,0.55,3.60429,19.82361,return,4.770114599959925,,,,,,,4,22,female,left_right_width,2023_Aug_14_1524,exp1,2021.2.3,60.14614310501687,
,,,,,,,,,,,,,,,,3,9.1,10,10.9,0,0,0.9,0.65,0.25,2.05,10,initial,36.05,328,361,393,0,0,9,9,9,0,0,,,,,4,0,4,0,0,20,20,14,,,,,num_2,0.8902793999295682,num_2,0.4,1.6,0.10000000000000007,1.9,3.60429,68.48156,return,2.902544300071895,,,,,,,4,22,female,left_right_width,2023_Aug_14_1524,exp1,2021.2.3,60.14614310501687,
,,,,,,,,,,,,,,,,4,9.1,9.7,10.3,10.9,0,0.5999999999999999,0.3499999999999999,0.25,2.05,10,match,36.05,328,350,371,393,0,9,9,9,9,0,,,,,4,0,4,0,0,21,21,15,,,,,num_3,1.2494765999726951,num_3,0.15,0.5,0.04999999999999999,0.8,1.80215,28.83434,return,3.6907313999254256,,,,,,,4,22,female,left_right_width,2023_Aug_14_1524,exp1,2021.2.3,60.14614310501687,
,,,,,,,,,,,,,,,,4,9.1,9.7,10.3,10.9,0,0.6000000000000001,0.20000000000000004,0.4,2.2,10,match,36.05,328,350,371,393,0,9,9,9,9,0,,,,,4,0,4,0,0,22,22,17,,,,,num_4,1.154613200109452,num_4,0.1,0.3,-0.3,0.5,-10.81288,18.02146,return,6.0831238001119345,,,,,,,4,22,female,left_right_width,2023_Aug_14_1524,exp1,2021.2.3,60.14614310501687,
,,,,,,,,,,,,,,,,4,9.425,9.808333333333334,10.191666666666666,10.575,0,0.3833333333333333,0.1333333333333333,0.25,1.4,10,match,36.05,340,354,367,381,0,9,9,9,9,0,,,,,4,0,4,0,0,23,23,5,,,,,num_3,2.6427011000923812,num_3,0.35,0.4,0.2,0.55,7.20859,19.82361,return,2.9200979999732226,,,,,,,4,22,female,left_right_width,2023_Aug_14_1524,exp1,2021.2.3,60.14614310501687,
,,,,,,,,,,,,,,,,3,9.5,10,10.5,0,0,0.5,0.4,0.1,1.1,10,initial,36.05,342,361,379,0,0,9,9,9,0,0,,,,,4,0,4,0,0,24,24,0,,,,,num_2,1.002260599983856,num_2,0.35,1.6,0.10000000000000002,0.8,3.60429,28.83434,return,5.762111699907109,,,,,,,4,22,female,left_right_width,2023_Aug_14_1524,exp1,2021.2.3,60.14614310501687,
,,,,,,,,,,,,,,,,3,8.6,10,11.4,0,0,1.4,1.2999999999999998,0.1,2.9,10,match,36.05,310,361,411,0,0,9,9,9,0,0,,,,,4,0,4,0,0,25,25,43,,,,,num_2,0.8666030999738723,num_2,0.2,1.6,0.10000000000000002,2.2,3.60429,79.29444,return,4.63971669995226,,,,,,,4,22,female,left_right_width,2023_Aug_14_1524,exp1,2021.2.3,60.14614310501687,
,,,,,,,,,,,,,,,,5,8.2,9.1,10,10.9,11.8,0.9,0.8,0.1,3.7,10,initial,36.05,296,328,361,393,425,9,9,9,9,9,,,,,4,0,4,0,0,26,26,48,,,,,num_4,1.0801880999933928,num_4,0.1,1.0,-0.05,1.7,-1.80215,61.27298,return,3.40436329995282,,,,,,,4,22,female,left_right_width,2023_Aug_14_1524,exp1,2021.2.3,60.14614310501687,
,,,,,,,,,,,,,,,,4,8.95,9.65,10.35,11.05,0,0.7,0.6,0.1,2.1999999999999997,10,initial,36.05,323,348,373,398,0,9,9,9,9,0,,,,,4,0,4,0,0,27,27,24,,,,,num_4,1.0507455999031663,num_4,0.4,1.2,6.938893903907228e-17,1.3,0.0,46.85581,return,6.400295099942014,,,,,,,4,22,female,left_right_width,2023_Aug_14_1524,exp1,2021.2.3,60.14614310501687,
,,,,,,,,,,,,,,,,5,8.6,9.3,10,10.7,11.4,0.7,0.6,0.1,2.9,10,initial,36.05,310,335,361,386,411,9,9,9,9,9,,,,,4,0,4,0,0,28,28,42,,,,,num_4,1.228861799929291,num_4,0.15,1.2,-1.3877787807814457e-17,1.6,-0.0,57.66869,return,2.860981300007552,,,,,,,4,22,female,left_right_width,2023_Aug_14_1524,exp1,2021.2.3,60.14614310501687,
,,,,,,,,,,,,,,,,4,9.5,9.833333333333334,10.166666666666666,10.5,0,0.3333333333333333,0.08333333333333333,0.25,1.25,10,match,36.05,342,354,367,379,0,9,9,9,9,0,,,,,4,0,4,0,0,29,29,3,,,,,num_3,1.2148069001268595,num_3,0.15,0.4,0.15,0.3,5.40644,10.81288,return,4.269763499964029,,,,,,,4,22,female,left_right_width,2023_Aug_14_1524,exp1,2021.2.3,60.14614310501687,
,,,,,,,,,,,,,,,,4,9.3,9.766666666666667,10.233333333333333,10.7,0,0.4666666666666667,0.3666666666666667,0.1,1.5,10,match,36.05,335,352,369,386,0,9,9,9,9,0,,,,,4,0,4,0,0,30,30,7,,,,,num_3,2.8593460998963565,num_3,0.2,0.5,0.10000000000000002,0.35,3.60429,12.61502,return,3.0807123000267893,,,,,,,4,22,female,left_right_width,2023_Aug_14_1524,exp1,2021.2.3,60.14614310501687,
,,,,,,,,,,,,,,,,5,8.65,9.325,10,10.675,11.35,0.675,0.42500000000000004,0.25,2.95,10,match,36.05,312,336,361,385,409,9,9,9,9,9,,,,,4,0,4,0,0,31,31,33,,,,,num_5,1.0274390999693424,num_5,0.25,0.3,0.05000000000000002,0.55,1.80215,19.82361,return,5.929578900104389,,,,,,,4,22,female,left_right_width,2023_Aug_14_1524,exp1,2021.2.3,60.14614310501687,
,,,,,,,,,,,,,,,,5,8.65,9.325,10,10.675,11.35,0.6749999999999999,0.575,0.1,2.8,10,match,36.05,312,336,361,385,409,9,9,9,9,9,,,,,4,0,4,0,0,32,32,31,,,,,num_5,0.9039944999385625,num_5,0.4,0.7,0.05000000000000007,0.75,1.80215,27.0322,return,3.522238199831918,,,,,,,4,22,female,left_right_width,2023_Aug_14_1524,exp1,2021.2.3,60.14614310501687,
,,,,,,,,,,,,,,,,4,8.95,9.65,10.35,11.05,0,0.7,0.29999999999999993,0.4,2.5,10,initial,36.05,323,348,373,398,0,9,9,9,9,0,,,,,4,0,4,0,0,33,33,28,,,,,num_4,1.2154265998397022,num_4,0.2,0.8,0.10000000000000002,0.5,3.60429,18.02146,return,3.5823377000633627,,,,,,,4,22,female,left_right_width,2023_Aug_14_1524,exp1,2021.2.3,60.14614310501687,
,,,,,,,,,,,,,,,,3,8.2,10,11.8,0,0,1.7999999999999998,1.4,0.4,4,10,match,36.05,296,361,425,0,0,9,9,9,0,0,,,,,4,0,4,0,0,34,34,53,,,,,num_2,0.9327903999947011,num_2,0.2,1.6,0.44999999999999996,3.0,16.21932,108.12878,return,5.631265599979088,,,,,,,4,22,female,left_right_width,2023_Aug_14_1524,exp1,2021.2.3,60.14614310501687,
,,,,,,,,,,,,,,,,5,8.65,9.325,10,10.675,11.35,0.675,0.275,0.4,3.1,10,match,36.05,312,336,361,385,409,9,9,9,9,9,,,,,4,0,4,0,0,35,35,35,,,,,num_4,1.003295399947092,num_4,0.1,0.8,0.35,1.0,12.61502,36.04293,return,3.6663804000709206,,,,,,,4,22,female,left_right_width,2023_Aug_14_1524,exp1,2021.2.3,60.14614310501687,
,,,,,,,,,,,,,,,,4,9.5,9.833333333333334,10.166666666666666,10.5,0,0.33333333333333337,0.23333333333333336,0.1,1.1,10,match,36.05,342,354,367,379,0,9,9,9,9,0,,,,,4,0,4,0,0,36,36,1,,,,,num_3,1.5039713999722153,num_3,0.25,0.8,0.15000000000000002,0.7,5.40644,25.23005,return,4.850812999997288,,,,,,,4,22,female,left_right_width,2023_Aug_14_1524,exp1,2021.2.3,60.14614310501687,
,,,,,,,,,,,,,,,,3,9.3,10,10.7,0,0,0.7,0.6,0.1,1.5,10,initial,36.05,335,361,386,0,0,9,9,9,0,0,,,,,4,0,4,0,0,37,37,6,,,,,num_2,0.9094692999497056,num_2,0.25,1.6,0.05000000000000002,0.8,1.80215,28.83434,return,3.974065599963069,,,,,,,4,22,female,left_right_width,2023_Aug_14_1524,exp1,2021.2.3,60.14614310501687,
,,,,,,,,,,,,,,,,5,9.175,9.5875,10,10.4125,10.825,0.4125,0.16249999999999998,0.25,1.9,10,match,36.05,331,346,361,375,390,9,9,9,9,9,,,,,4,0,4,0,0,38,38,23,,,,,num_4,1.0655001001432538,num_4,0.35,0.7,0.15000000000000002,0.7,5.40644,25.23005,return,4.234644699841738,,,,,,,4,22,female,left_right_width,2023_Aug_14_1524,exp1,2021.2.3,60.14614310501687,
,,,,,,,,,,,,,,,,4,9.25,9.75,10.25,10.75,0,0.5,0.09999999999999998,0.4,1.9,10,initial,36.05,333,351,370,388,0,9,9,9,9,0,,,,,4,0,4,0,0,39,39,22,,,,,num_4,2.0974258999340236,num_4,0.25,0.9,0.35,0.5,12.61502,18.02146,return,4.141474100062624,,,,,,,4,22,female,left_right_width,2023_Aug_14_1524,exp1,2021.2.3,60.14614310501687,
,,,,,,,,,,,,,,,,4,9.1,9.7,10.3,10.9,0,0.6,0.5,0.1,1.9,10,match,36.05,328,350,371,393,0,9,9,9,9,0,,,,,4,0,4,0,0,40,40,13,,,,,num_3,1.2294235001318157,num_3,0.4,1.3,0.10000000000000007,0.6,3.60429,21.62576,return,4.771861899876967,,,,,,,4,22,female,left_right_width,2023_Aug_14_1524,exp1,2021.2.3,60.14614310501687,
,,,,,,,,,,,,,,,,4,8.65,9.55,10.45,11.35,0,0.9,0.65,0.25,2.95,10,initial,36.05,312,344,377,409,0,9,9,9,9,0,,,,,4,0,4,0,0,41,41,32,,,,,num_4,1.1030558000784367,num_4,0.15,0.5,0.3,1.0,10.81288,36.04293,return,3.44510760018602,,,,,,,4,22,female,left_right_width,2023_Aug_14_1524,exp1,2021.2.3,60.14614310501687,
,,,,,,,,,,,,,,,,3,9,10,11,0,0,1,0.9,0.1,2.1,10,match,36.05,324,361,397,0,0,9,9,9,0,0,,,,,4,0,4,0,0,42,42,37,,,,,num_2,0.9427199999336153,num_2,0.45,1.6,0.15000000000000008,2.1,5.40644,75.69015,return,6.456350399879739,,,,,,,4,22,female,left_right_width,2023_Aug_14_1524,exp1,2021.2.3,60.14614310501687,
,,,,,,,,,,,,,,,,5,9,9.5,10,10.5,11,0.5,0.4,0.1,2.1,10,initial,36.05,324,342,361,379,397,9,9,9,9,9,,,,,4,0,4,0,0,43,43,36,,,,,num_4,1.032375899842009,num_4,0.35,1.3,0.05000000000000002,0.8,1.80215,28.83434,return,5.825986300129443,,,,,,,4,22,female,left_right_width,2023_Aug_14_1524,exp1,2021.2.3,60.14614310501687,
,,,,,,,,,,,,,,,,3,8.2,10,11.8,0,0,1.8,1.55,0.25,3.85,10,match,36.05,296,361,425,0,0,9,9,9,0,0,,,,,4,0,4,0,0,44,44,51,,,,,num_2,1.0370857000816613,num_2,0.3,1.6,0.15000000000000002,2.0,5.40644,72.08586,return,4.099525700090453,,,,,,,4,22,female,left_right_width,2023_Aug_14_1524,exp1,2021.2.3,60.14614310501687,
,,,,,,,,,,,,,,,,5,9.25,9.625,10,10.375,10.75,0.375,0.125,0.25,1.75,10,match,36.05,333,347,361,374,388,9,9,9,9,9,,,,,4,0,4,0,0,45,45,21,,,,,num_4,1.0888904000166804,num_4,0.15,0.3,0.2,0.7,7.20859,25.23005,return,6.129837499931455,,,,,,,4,22,female,left_right_width,2023_Aug_14_1524,exp1,2021.2.3,60.14614310501687,
,,,,,,,,,,,,,,,,5,9,9.5,10,10.5,11,0.5,0.25,0.25,2.25,10,initial,36.05,324,342,361,379,397,9,9,9,9,9,,,,,4,0,4,0,0,46,46,38,,,,,num_5,1.560197299811989,num_5,0.25,0.3,0.15000000000000002,0.55,5.40644,19.82361,return,4.809321300126612,,,,,,,4,22,female,left_right_width,2023_Aug_14_1524,exp1,2021.2.3,60.14614310501687,
,,,,,,,,,,,,,,,,4,8.95,9.65,10.35,11.05,0,0.7,0.44999999999999996,0.25,2.3499999999999996,10,initial,36.05,323,348,373,398,0,9,9,9,9,0,,,,,4,0,4,0,0,47,47,26,,,,,num_4,1.2426412000786513,num_4,0.15,1.3,0.09999999999999999,0.6,3.60429,21.62576,return,5.673153199953958,,,,,,,4,22,female,left_right_width,2023_Aug_14_1524,exp1,2021.2.3,60.14614310501687,
,,,,,,,,,,,,,,,,5,8.6,9.3,10,10.7,11.4,0.7,0.29999999999999993,0.4,3.1999999999999997,10,initial,36.05,310,335,361,386,411,9,9,9,9,9,,,,,4,0,4,0,0,48,48,46,,,,,num_4,0.9134761998429894,num_4,0.25,0.8,0.35,0.6,12.61502,21.62576,return,4.077844800194725,,,,,,,4,22,female,left_right_width,2023_Aug_14_1524,exp1,2021.2.3,60.14614310501687,
,,,,,,,,,,,,,,,,4,9.3,9.766666666666667,10.233333333333333,10.7,0,0.4666666666666667,0.06666666666666665,0.4,1.8,10,match,36.05,335,352,369,386,0,9,9,9,9,0,,,,,4,0,4,0,0,49,49,11,,,,,num_3,1.7372856999281794,num_3,0.45,0.5,0.6500000000000001,0.7,23.4279,25.23005,return,9.283812700072303,,,,,,,4,22,female,left_right_width,2023_Aug_14_1524,exp1,2021.2.3,60.14614310501687,
,,,,,,,,,,,,,,,,5,8.2,9.1,10,10.9,11.8,0.9,0.5,0.4,4,10,initial,36.05,296,328,361,393,425,9,9,9,9,9,,,,,4,0,4,0,0,50,50,52,,,,,num_5,1.4518127001356333,num_5,0.25,0.9,0.39999999999999997,0.95,14.41717,34.24078,return,5.044018100015819,,,,,,,4,22,female,left_right_width,2023_Aug_14_1524,exp1,2021.2.3,60.14614310501687,
,,,,,,,,,,,,,,,,3,9,10,11,0,0,0.9999999999999999,0.5999999999999999,0.4,2.4,10,match,36.05,324,361,397,0,0,9,9,9,0,0,,,,,4,0,4,0,0,51,51,41,,,,,num_2,1.1455184000078589,num_2,0.25,1.6,0.39999999999999997,1.6,14.41717,57.66869,return,3.6668658999260515,,,,,,,4,22,female,left_right_width,2023_Aug_14_1524,exp1,2021.2.3,60.14614310501687,
,,,,,,,,,,,,,,,,5,8.95,9.475,10,10.525,11.05,0.525,0.125,0.4,2.5,10,match,36.05,323,342,361,379,398,9,9,9,9,9,,,,,4,0,4,0,0,52,52,29,,,,,num_4,1.2268075998872519,num_4,0.1,0.5,0.3,0.4,10.81288,14.41717,return,5.84940559999086,,,,,,,4,22,female,left_right_width,2023_Aug_14_1524,exp1,2021.2.3,60.14614310501687,
,,,,,,,,,,,,,,,,5,8.6,9.3,10,10.7,11.4,0.7,0.44999999999999996,0.25,3.05,10,initial,36.05,310,335,361,386,411,9,9,9,9,9,,,,,4,0,4,0,0,53,53,44,,,,,num_5,1.0791869000531733,num_5,0.3,0.6,0.2,0.7,7.20859,25.23005,return,4.445253799902275,,,,,,,4,22,female,left_right_width,2023_Aug_14_1524,exp1,2021.2.3,60.14614310501687,
,,,,,,,,,,,,,,,,,,,,,,,,,,,,,,,,,,,,,,,,,,,4,0,4,0,,,,,,,,,,,,,,,,,,,,,,2448.5533968000673,None,2448.5533968000673,None,4,22,female,left_right_width,2023_Aug_14_1524,exp1,2021.2.3,60.14614310501687,
,,,,,,,,,,,,,,,,4,8.95,9.65,10.35,11.05,0,0.7,0.44999999999999996,0.25,2.3499999999999996,10,initial,36.05,323,348,373,398,0,9,9,9,9,0,,,,,5,0,5,0,0,0,0,26,,,,,num_3,1.6461836998350918,num_3,0.15,0.4,0.15,0.75,5.40644,27.0322,return,2.2971087000332773,,,,,,,4,22,female,left_right_width,2023_Aug_14_1524,exp1,2021.2.3,60.14614310501687,
,,,,,,,,,,,,,,,,3,9,10,11,0,0,0.9999999999999999,0.5999999999999999,0.4,2.4,10,match,36.05,324,361,397,0,0,9,9,9,0,0,,,,,5,0,5,0,0,1,1,41,,,,,num_2,1.0968254001345485,num_2,0.15,1.6,0.3,1.1,10.81288,39.64722,return,4.284086900064722,,,,,,,4,22,female,left_right_width,2023_Aug_14_1524,exp1,2021.2.3,60.14614310501687,
,,,,,,,,,,,,,,,,3,9.1,10,10.9,0,0,0.9,0.8,0.1,1.9000000000000001,10,initial,36.05,328,361,393,0,0,9,9,9,0,0,,,,,5,0,5,0,0,2,2,12,,,,,num_2,0.8833127999678254,num_2,0.4,1.6,0.15000000000000008,1.3,5.40644,46.85581,return,2.97458180016838,,,,,,,4,22,female,left_right_width,2023_Aug_14_1524,exp1,2021.2.3,60.14614310501687,
,,,,,,,,,,,,,,,,3,9.1,10,10.9,0,0,0.9,0.65,0.25,2.05,10,initial,36.05,328,361,393,0,0,9,9,9,0,0,,,,,5,0,5,0,0,3,3,14,,,,,num_2,0.9937154001090676,num_2,0.3,1.6,0.15000000000000002,1.3,5.40644,46.85581,return,2.584786399966106,,,,,,,4,22,female,left_right_width,2023_Aug_14_1524,exp1,2021.2.3,60.14614310501687,
,,,,,,,,,,,,,,,,5,8.6,9.3,10,10.7,11.4,0.7,0.29999999999999993,0.4,3.1999999999999997,10,initial,36.05,310,335,361,386,411,9,9,9,9,9,,,,,5,0,5,0,0,4,4,46,,,,,num_5,1.0635174999479204,num_5,0.3,0.5,0.35,0.65,12.61502,23.4279,return,4.411008199909702,,,,,,,4,22,female,left_right_width,2023_Aug_14_1524,exp1,2021.2.3,60.14614310501687,
,,,,,,,,,,,,,,,,3,8.525,10,11.475,0,0,1.475,1.225,0.25,3.2,10,match,36.05,307,361,414,0,0,9,9,9,0,0,,,,,5,0,5,0,0,5,5,47,,,,,num_2,1.0061717999633402,num_2,0.4,1.6,0.15000000000000008,2.2,5.40644,79.29444,return,4.06564320018515,,,,,,,4,22,female,left_right_width,2023_Aug_14_1524,exp1,2021.2.3,60.14614310501687,
,,,,,,,,,,,,,,,,3,8.6,10,11.4,0,0,1.4,1.2999999999999998,0.1,2.9,10,match,36.05,310,361,411,0,0,9,9,9,0,0,,,,,5,0,5,0,0,6,6,43,,,,,num_2,1.344321200158447,num_2,0.25,1.6,0.10000000000000002,1.6,3.60429,57.66869,return,6.889857100090012,,,,,,,4,22,female,left_right_width,2023_Aug_14_1524,exp1,2021.2.3,60.14614310501687,
,,,,,,,,,,,,,,,,4,9.5,9.833333333333334,10.166666666666666,10.5,0,0.33333333333333337,0.23333333333333336,0.1,1.1,10,match,36.05,342,354,367,379,0,9,9,9,9,0,,,,,5,0,5,0,0,7,7,1,,,,,num_3,1.3461062000133097,num_3,0.25,0.5,0.10000000000000002,0.6,3.60429,21.62576,return,3.6931761000305414,,,,,,,4,22,female,left_right_width,2023_Aug_14_1524,exp1,2021.2.3,60.14614310501687,
,,,,,,,,,,,,,,,,3,8.2,10,11.8,0,0,1.7999999999999998,1.4,0.4,4,10,match,36.05,296,361,425,0,0,9,9,9,0,0,,,,,5,0,5,0,0,8,8,53,,,,,num_2,0.9159688001964241,num_2,0.45,1.6,0.25000000000000006,2.9,9.01073,104.52449,return,4.782401100033894,,,,,,,4,22,female,left_right_width,2023_Aug_14_1524,exp1,2021.2.3,60.14614310501687,
,,,,,,,,,,,,,,,,5,8.2,9.1,10,10.9,11.8,0.9,0.5,0.4,4,10,initial,36.05,296,328,361,393,425,9,9,9,9,9,,,,,5,0,5,0,0,9,9,52,,,,,num_5,0.9460662000346929,num_5,0.3,0.6,0.15000000000000002,0.8,5.40644,28.83434,return,3.3177378000691533,,,,,,,4,22,female,left_right_width,2023_Aug_14_1524,exp1,2021.2.3,60.14614310501687,
,,,,,,,,,,,,,,,,3,9,10,11,0,0,1,0.75,0.25,2.25,10,match,36.05,324,361,397,0,0,9,9,9,0,0,,,,,5,0,5,0,0,10,10,39,,,,,num_2,1.1274762998800725,num_2,0.35,1.6,0.2,2.3,7.20859,82.89874,return,4.760593000100926,,,,,,,4,22,female,left_right_width,2023_Aug_14_1524,exp1,2021.2.3,60.14614310501687,
,,,,,,,,,,,,,,,,5,8.6,9.3,10,10.7,11.4,0.7,0.44999999999999996,0.25,3.05,10,initial,36.05,310,335,361,386,411,9,9,9,9,9,,,,,5,0,5,0,0,11,11,44,,,,,num_5,1.1228669001720846,num_5,0.45,0.6,0.20000000000000007,0.75,7.20859,27.0322,return,3.9684278999920934,,,,,,,4,22,female,left_right_width,2023_Aug_14_1524,exp1,2021.2.3,60.14614310501687,
,,,,,,,,,,,,,,,,4,9.5,9.833333333333334,10.166666666666666,10.5,0,0.3333333333333333,0.08333333333333333,0.25,1.25,10,match,36.05,342,354,367,379,0,9,9,9,9,0,,,,,5,0,5,0,0,12,12,3,,,,,num_4,2.185195199912414,num_4,0.3,0.8,0.10000000000000002,0.3,3.60429,10.81288,return,3.601104300003499,,,,,,,4,22,female,left_right_width,2023_Aug_14_1524,exp1,2021.2.3,60.14614310501687,
,,,,,,,,,,,,,,,,5,8.2,9.1,10,10.9,11.8,0.9,0.8,0.1,3.7,10,initial,36.05,296,328,361,393,425,9,9,9,9,9,,,,,5,0,5,0,0,13,13,48,,,,,num_5,1.2462373001035303,num_5,0.2,0.7,0.10000000000000002,0.75,3.60429,27.0322,return,4.335376100149006,,,,,,,4,22,female,left_right_width,2023_Aug_14_1524,exp1,2021.2.3,60.14614310501687,
,,,,,,,,,,,,,,,,4,8.65,9.55,10.45,11.35,0,0.9,0.8,0.1,2.8000000000000003,10,initial,36.05,312,344,377,409,0,9,9,9,9,0,,,,,5,0,5,0,0,14,14,30,,,,,num_4,1.2365391999483109,num_4,0.1,1.2,0.1,0.9,3.60429,32.43864,return,2.497967999894172,,,,,,,4,22,female,left_right_width,2023_Aug_14_1524,exp1,2021.2.3,60.14614310501687,
,,,,,,,,,,,,,,,,3,8.2,10,11.8,0,0,1.8000000000000003,1.7000000000000002,0.1,3.7,10,match,36.05,296,361,425,0,0,9,9,9,0,0,,,,,5,0,5,0,0,15,15,49,,,,,num_2,1.6905195999424905,num_2,0.4,1.6,0.15000000000000008,2.1,5.40644,75.69015,return,3.1746620999183506,,,,,,,4,22,female,left_right_width,2023_Aug_14_1524,exp1,2021.2.3,60.14614310501687,
,,,,,,,,,,,,,,,,3,9.3,10,10.7,0,0,0.7,0.29999999999999993,0.4,1.8,10,initial,36.05,335,361,386,0,0,9,9,9,0,0,,,,,5,0,5,0,0,16,16,10,,,,,num_2,0.9373212000355124,num_2,0.4,1.6,0.35000000000000003,0.9,12.61502,32.43864,return,2.7885586998891085,,,,,,,4,22,female,left_right_width,2023_Aug_14_1524,exp1,2021.2.3,60.14614310501687,
,,,,,,,,,,,,,,,,3,9.1,10,10.9,0,0,0.9,0.5,0.4,2.2,10,initial,36.05,328,361,393,0,0,9,9,9,0,0,,,,,5,0,5,0,0,17,17,16,,,,,num_2,0.8697478999383748,num_2,0.4,1.6,0.25000000000000006,1.0,9.01073,36.04293,return,3.443459799978882,,,,,,,4,22,female,left_right_width,2023_Aug_14_1524,exp1,2021.2.3,60.14614310501687,
,,,,,,,,,,,,,,,,5,9,9.5,10,10.5,11,0.5,0.25,0.25,2.25,10,initial,36.05,324,342,361,379,397,9,9,9,9,9,,,,,5,0,5,0,0,18,18,38,,,,,num_4,1.3327626998070627,num_4,0.3,0.7,0.2,0.5,7.20859,18.02146,return,2.958567100111395,,,,,,,4,22,female,left_right_width,2023_Aug_14_1524,exp1,2021.2.3,60.14614310501687,
,,,,,,,,,,,,,,,,3,9.5,10,10.5,0,0,0.5,0.09999999999999998,0.4,1.4000000000000001,10,initial,36.05,342,361,379,0,0,9,9,9,0,0,,,,,5,0,5,0,0,19,19,4,,,,,num_2,0.9178355999756604,num_2,0.1,1.6,0.44999999999999996,0.8,16.21932,28.83434,return,5.087135100038722,,,,,,,4,22,female,left_right_width,2023_Aug_14_1524,exp1,2021.2.3,60.14614310501687,
