amount_p,posx1_p,posx2_p,posx3_p,posx4_p,posx5_p,center_to_center_p,edge_to_edge_p,w_p,stim_lengt_p,eccentricity_p,line1_p,line2_p,line3_p,line4_p,line5_p,amount,posx1,posx2,posx3,posx4,posx5,center_to_center,edge_to_edge,w,stim_length,eccentricity,trial_type,deg_to_pix_index,posx1_in_pix,posx2_in_pix,posx3_in_pix,posx4_in_pix,posx5_in_pix,line1,line2,line3,line4,line5,trials.thisRepN,trials.thisTrialN,trials.thisN,trials.thisIndex,blocks.thisRepN,blocks.thisTrialN,blocks.thisN,blocks.thisIndex,loop.thisRepN,loop.thisTrialN,loop.thisN,loop.thisIndex,key_resp_3.keys,key_resp_3.rt,key_resp_3.started,key_resp_3.stopped,key_resp.keys,key_resp.rt,response,starting_width_deg,starting_space_deg,response_width_degree,response_spacing_degree,response_width_pixel,response_spacing_pixel,next_5.keys,next_5.rt,key_resp_4.keys,key_resp_4.rt,text_3.started,text_3.stopped,text_4.started,text_4.stopped,participant,age,gender,resp_group,date,expName,psychopyVersion,frameRate,
,,,,,,,,,,,,,,,,,,,,,,,,,,,,,,,,,,,,,,,,,,,,,,,,,,,c,110.70807950012386,20.08149529993534,None,,,,,,,,,,,,,,,,,,5,22,female,up_down_width,2023_Aug_14_1622,exp1,2021.2.3,59.99822406698353,
5,8.6,9.3,10,10.7,11.4,0.7,0.29999999999999993,0.4,3.1999999999999997,10,9,9,9,9,9,,,,,,,,,,,,,,,,,,,,,,,,0,0,0,7,,,,,,,,,,,,,num_4,1.4944637999869883,num_4,0.3,0.3,0.10000000000000002,0.3,3.60429,10.81288,return,18.48110349988565,,,,,,,5,22,female,up_down_width,2023_Aug_14_1622,exp1,2021.2.3,59.99822406698353,
5,9.25,9.625,10,10.375,10.75,0.375,0.125,0.25,1.75,10,9,9,9,9,9,,,,,,,,,,,,,,,,,,,,,,,,0,1,1,6,,,,,,,,,,,,,num_6,1.6711287999060005,num_6,0.15,1.0,0.15,0.3,5.40644,10.81288,return,4.418939499882981,,,,,,,5,22,female,up_down_width,2023_Aug_14_1622,exp1,2021.2.3,59.99822406698353,
4,8.65,9.55,10.45,11.35,0,0.9,0.5,0.4,3.1,10,9,9,9,9,0,,,,,,,,,,,,,,,,,,,,,,,,0,2,2,5,,,,,,,,,,,,,num_4,1.2894957000389695,num_4,0.35,1.3,0.35,1.3,12.61502,46.85581,return,1.0564665999263525,,,,,,,5,22,female,up_down_width,2023_Aug_14_1622,exp1,2021.2.3,59.99822406698353,
3,9,10,11,0,0,1,0.9,0.1,2.1,10,9,9,9,0,0,,,,,,,,,,,,,,,,,,,,,,,,0,3,3,1,,,,,,,,,,,,,num_3,1.2171531999483705,num_3,0.45,0.8,0.10000000000000007,0.7,3.60429,25.23005,return,6.38383510010317,,,,,,,5,22,female,up_down_width,2023_Aug_14_1622,exp1,2021.2.3,59.99822406698353,
5,9,9.5,10,10.5,11,0.5,0.09999999999999998,0.4,2.4,10,9,9,9,9,9,,,,,,,,,,,,,,,,,,,,,,,,0,4,4,8,,,,,,,,,,,,,num_3,1.3252088001463562,num_3,0.4,0.9,0.45,0.75,16.21932,27.0322,return,7.924189200159162,,,,,,,5,22,female,up_down_width,2023_Aug_14_1622,exp1,2021.2.3,59.99822406698353,
3,9.5,10,10.5,0,0,0.5,0.4,0.1,1.1,10,9,9,9,0,0,,,,,,,,,,,,,,,,,,,,,,,,0,5,5,0,,,,,,,,,,,,,num_4,1.6921804000157863,num_4,0.4,1.0,0.05000000000000007,0.7,1.80215,25.23005,return,5.899332599947229,,,,,,,5,22,female,up_down_width,2023_Aug_14_1622,exp1,2021.2.3,59.99822406698353,
3,8.2,10,11.8,0,0,1.7999999999999998,1.4,0.4,4,10,9,9,9,0,0,,,,,,,,,,,,,,,,,,,,,,,,0,6,6,2,,,,,,,,,,,,,num_3,1.0007881000638008,num_3,0.45,0.6,0.35000000000000003,1.0,12.61502,36.04293,return,3.984940400114283,,,,,,,5,22,female,up_down_width,2023_Aug_14_1622,exp1,2021.2.3,59.99822406698353,
4,9.25,9.75,10.25,10.75,0,0.5,0.25,0.25,1.75,10,9,9,9,9,0,,,,,,,,,,,,,,,,,,,,,,,,0,7,7,4,,,,,,,,,,,,,num_4,0.9927278999239206,num_4,0.4,0.7,0.30000000000000004,0.7,10.81288,25.23005,return,2.808506099972874,,,,,,,5,22,female,up_down_width,2023_Aug_14_1622,exp1,2021.2.3,59.99822406698353,
4,9.5,9.833333333333334,10.166666666666666,10.5,0,0.33333333333333337,0.23333333333333336,0.1,1.1,10,9,9,9,9,0,,,,,,,,,,,,,,,,,,,,,,,,0,8,8,3,,,,,,,,,,,,,num_4,1.2535648001357913,num_4,0.2,0.7,0.10000000000000002,0.6,3.60429,21.62576,return,4.261458700057119,,,,,,,5,22,female,up_down_width,2023_Aug_14_1622,exp1,2021.2.3,59.99822406698353,
,,,,,,,,,,,,,,,,,,,,,,,,,,,,,,,,,,,,,,,,,,,,,,,,,,,,,,,,,,,,,,,,,,c,39.84483650000766,,,,,5,22,female,up_down_width,2023_Aug_14_1622,exp1,2021.2.3,59.99822406698353,
,,,,,,,,,,,,,,,,3,8.2,10,11.8,0,0,1.8,1.55,0.25,3.85,10,match,36.05,296,361,425,0,0,9,9,9,0,0,,,,,0,0,0,0,0,0,0,51,,,,,num_3,0.8639944999013096,num_3,0.1,0.5,0.15000000000000002,1.2,5.40644,43.25151,return,7.000719600124285,,,,,,,5,22,female,up_down_width,2023_Aug_14_1622,exp1,2021.2.3,59.99822406698353,
,,,,,,,,,,,,,,,,5,9.25,9.625,10,10.375,10.75,0.375,0.275,0.1,1.6,10,match,36.05,333,347,361,374,388,9,9,9,9,9,,,,,0,0,0,0,0,1,1,19,,,,,num_4,1.6490713998209685,num_4,0.35,0.8,0.10000000000000002,0.7,3.60429,25.23005,return,3.355965199880302,,,,,,,5,22,female,up_down_width,2023_Aug_14_1622,exp1,2021.2.3,59.99822406698353,
,,,,,,,,,,,,,,,,5,9.175,9.5875,10,10.4125,10.825,0.4125,0.16249999999999998,0.25,1.9,10,match,36.05,331,346,361,375,390,9,9,9,9,9,,,,,0,0,0,0,0,2,2,23,,,,,num_5,1.1627420000731945,num_5,0.1,0.9,0.3,0.6,10.81288,21.62576,return,6.777752100024372,,,,,,,5,22,female,up_down_width,2023_Aug_14_1622,exp1,2021.2.3,59.99822406698353,
,,,,,,,,,,,,,,,,3,9.5,10,10.5,0,0,0.5,0.4,0.1,1.1,10,initial,36.05,342,361,379,0,0,9,9,9,0,0,,,,,0,0,0,0,0,3,3,0,,,,,num_3,2.147275800118223,num_3,0.3,1.1,0.2,0.95,7.20859,34.24078,return,4.268170699942857,,,,,,,5,22,female,up_down_width,2023_Aug_14_1622,exp1,2021.2.3,59.99822406698353,
,,,,,,,,,,,,,,,,5,8.95,9.475,10,10.525,11.05,0.525,0.42500000000000004,0.1,2.2,10,match,36.05,323,342,361,379,398,9,9,9,9,9,,,,,0,0,0,0,0,4,4,25,,,,,num_5,0.9421533001586795,num_5,0.2,1.0,0.15000000000000002,0.75,5.40644,27.0322,return,4.982906899880618,,,,,,,5,22,female,up_down_width,2023_Aug_14_1622,exp1,2021.2.3,59.99822406698353,
,,,,,,,,,,,,,,,,4,9.5,9.833333333333334,10.166666666666666,10.5,0,0.3333333333333333,0.08333333333333333,0.25,1.25,10,match,36.05,342,354,367,379,0,9,9,9,9,0,,,,,0,0,0,0,0,5,5,3,,,,,num_3,1.9372045998461545,num_3,0.25,0.9,0.3,0.55,10.81288,19.82361,return,5.936472200090066,,,,,,,5,22,female,up_down_width,2023_Aug_14_1622,exp1,2021.2.3,59.99822406698353,
,,,,,,,,,,,,,,,,3,9.1,10,10.9,0,0,0.9,0.65,0.25,2.05,10,initial,36.05,328,361,393,0,0,9,9,9,0,0,,,,,0,0,0,0,0,6,6,14,,,,,num_3,1.1171466000378132,num_3,0.15,0.7,0.25,1.1,9.01073,39.64722,return,4.128175199963152,,,,,,,5,22,female,up_down_width,2023_Aug_14_1622,exp1,2021.2.3,59.99822406698353,
,,,,,,,,,,,,,,,,3,8.6,10,11.4,0,0,1.4,1.2999999999999998,0.1,2.9,10,match,36.05,310,361,411,0,0,9,9,9,0,0,,,,,0,0,0,0,0,7,7,43,,,,,num_3,0.7486977002117783,num_3,0.15,1.3,0.15,1.3,5.40644,46.85581,return,0.9350827999878675,,,,,,,5,22,female,up_down_width,2023_Aug_14_1622,exp1,2021.2.3,59.99822406698353,
,,,,,,,,,,,,,,,,4,8.65,9.55,10.45,11.35,0,0.9,0.5,0.4,3.1,10,initial,36.05,312,344,377,409,0,9,9,9,9,0,,,,,0,0,0,0,0,8,8,34,,,,,num_4,1.1193194999359548,num_4,0.35,0.4,0.35,0.7,12.61502,25.23005,return,6.385439399862662,,,,,,,5,22,female,up_down_width,2023_Aug_14_1622,exp1,2021.2.3,59.99822406698353,
,,,,,,,,,,,,,,,,5,8.6,9.3,10,10.7,11.4,0.7,0.6,0.1,2.9,10,initial,36.05,310,335,361,386,411,9,9,9,9,9,,,,,0,0,0,0,0,9,9,42,,,,,num_5,0.9384019998833537,num_5,0.1,1.1,0.1,0.8,3.60429,28.83434,return,4.7724303000140935,,,,,,,5,22,female,up_down_width,2023_Aug_14_1622,exp1,2021.2.3,59.99822406698353,
,,,,,,,,,,,,,,,,5,8.2,9.1,10,10.9,11.8,0.9,0.65,0.25,3.85,10,initial,36.05,296,328,361,393,425,9,9,9,9,9,,,,,0,0,0,0,0,10,10,50,,,,,num_5,0.9708821000531316,num_5,0.45,0.6,0.25000000000000006,0.9,9.01073,32.43864,return,3.9785651999991387,,,,,,,5,22,female,up_down_width,2023_Aug_14_1622,exp1,2021.2.3,59.99822406698353,
,,,,,,,,,,,,,,,,3,9.3,10,10.7,0,0,0.7,0.44999999999999996,0.25,1.65,10,initial,36.05,335,361,386,0,0,9,9,9,0,0,,,,,0,0,0,0,0,11,11,8,,,,,num_3,1.0292243000585586,num_3,0.15,0.3,0.2,0.75,7.20859,27.0322,return,6.027866599848494,,,,,,,5,22,female,up_down_width,2023_Aug_14_1622,exp1,2021.2.3,59.99822406698353,
,,,,,,,,,,,,,,,,4,9.1,9.7,10.3,10.9,0,0.6,0.5,0.1,1.9,10,match,36.05,328,350,371,393,0,9,9,9,9,0,,,,,0,0,0,0,0,12,12,13,,,,,num_4,1.0887769998516887,num_4,0.45,1.1,0.10000000000000007,0.7,3.60429,25.23005,return,4.226808799896389,,,,,,,5,22,female,up_down_width,2023_Aug_14_1622,exp1,2021.2.3,59.99822406698353,
,,,,,,,,,,,,,,,,5,8.65,9.325,10,10.675,11.35,0.675,0.275,0.4,3.1,10,match,36.05,312,336,361,385,409,9,9,9,9,9,,,,,0,0,0,0,0,13,13,35,,,,,num_4,1.2332960001658648,num_4,0.25,1.2,0.44999999999999996,0.8,16.21932,28.83434,return,4.973239499842748,,,,,,,5,22,female,up_down_width,2023_Aug_14_1622,exp1,2021.2.3,59.99822406698353,
,,,,,,,,,,,,,,,,3,8.2,10,11.8,0,0,1.8000000000000003,1.7000000000000002,0.1,3.7,10,match,36.05,296,361,425,0,0,9,9,9,0,0,,,,,0,0,0,0,0,14,14,49,,,,,num_3,0.9072933001443744,num_3,0.35,1.2,0.10000000000000002,1.6,3.60429,57.66869,return,7.551005000015721,,,,,,,5,22,female,up_down_width,2023_Aug_14_1622,exp1,2021.2.3,59.99822406698353,
,,,,,,,,,,,,,,,,5,8.6,9.3,10,10.7,11.4,0.7,0.29999999999999993,0.4,3.1999999999999997,10,initial,36.05,310,335,361,386,411,9,9,9,9,9,,,,,0,0,0,0,0,15,15,46,,,,,num_4,1.1519959999714047,num_4,0.3,0.9,0.35,0.8,12.61502,28.83434,return,3.7412811000831425,,,,,,,5,22,female,up_down_width,2023_Aug_14_1622,exp1,2021.2.3,59.99822406698353,
,,,,,,,,,,,,,,,,3,9.1,10,10.9,0,0,0.9,0.8,0.1,1.9000000000000001,10,initial,36.05,328,361,393,0,0,9,9,9,0,0,,,,,0,0,0,0,0,16,16,12,,,,,num_3,0.8919001999311149,num_3,0.1,1,0.1,1,3.60429,36.04293,return,1.393248800188303,,,,,,,5,22,female,up_down_width,2023_Aug_14_1622,exp1,2021.2.3,59.99822406698353,
,,,,,,,,,,,,,,,,3,9.1,10,10.9,0,0,0.9,0.5,0.4,2.2,10,initial,36.05,328,361,393,0,0,9,9,9,0,0,,,,,0,0,0,0,0,17,17,16,,,,,num_3,0.9359958998393267,num_3,0.3,1.2,0.35,0.9,12.61502,32.43864,return,4.143843399826437,,,,,,,5,22,female,up_down_width,2023_Aug_14_1622,exp1,2021.2.3,59.99822406698353,
,,,,,,,,,,,,,,,,4,9.3,9.766666666666667,10.233333333333333,10.7,0,0.4666666666666667,0.06666666666666665,0.4,1.8,10,match,36.05,335,352,369,386,0,9,9,9,9,0,,,,,0,0,0,0,0,18,18,11,,,,,num_4,1.2085849000141025,num_4,0.4,0.9,0.4,0.6,14.41717,21.62576,return,2.135152400005609,,,,,,,5,22,female,up_down_width,2023_Aug_14_1622,exp1,2021.2.3,59.99822406698353,
,,,,,,,,,,,,,,,,5,8.65,9.325,10,10.675,11.35,0.675,0.42500000000000004,0.25,2.95,10,match,36.05,312,336,361,385,409,9,9,9,9,9,,,,,0,0,0,0,0,19,19,33,,,,,num_5,1.5247728000395,num_5,0.3,0.7,0.3,0.6,10.81288,21.62576,return,1.5752234999090433,,,,,,,5,22,female,up_down_width,2023_Aug_14_1622,exp1,2021.2.3,59.99822406698353,
,,,,,,,,,,,,,,,,5,8.95,9.475,10,10.525,11.05,0.525,0.275,0.25,2.35,10,match,36.05,323,342,361,379,398,9,9,9,9,9,,,,,0,0,0,0,0,20,20,27,,,,,num_5,0.8840752998366952,num_5,0.4,1.3,0.30000000000000004,0.6,10.81288,21.62576,return,7.547744299983606,,,,,,,5,22,female,up_down_width,2023_Aug_14_1622,exp1,2021.2.3,59.99822406698353,
,,,,,,,,,,,,,,,,4,8.95,9.65,10.35,11.05,0,0.7,0.6,0.1,2.1999999999999997,10,initial,36.05,323,348,373,398,0,9,9,9,9,0,,,,,0,0,0,0,0,21,21,24,,,,,num_4,0.8461554001551121,num_4,0.35,1.1,0.15000000000000002,0.8,5.40644,28.83434,return,3.723374899942428,,,,,,,5,22,female,up_down_width,2023_Aug_14_1622,exp1,2021.2.3,59.99822406698353,
,,,,,,,,,,,,,,,,5,8.65,9.325,10,10.675,11.35,0.6749999999999999,0.575,0.1,2.8,10,match,36.05,312,336,361,385,409,9,9,9,9,9,,,,,0,0,0,0,0,22,22,31,,,,,num_5,0.8141755000688136,num_5,0.4,1.0,0.10000000000000007,0.8,3.60429,28.83434,return,3.982124099973589,,,,,,,5,22,female,up_down_width,2023_Aug_14_1622,exp1,2021.2.3,59.99822406698353,
,,,,,,,,,,,,,,,,4,8.95,9.65,10.35,11.05,0,0.7,0.29999999999999993,0.4,2.5,10,initial,36.05,323,348,373,398,0,9,9,9,9,0,,,,,0,0,0,0,0,23,23,28,,,,,num_4,0.7577933000866324,num_4,0.15,0.3,0.5499999999999999,0.9,19.82361,32.43864,return,5.383342099841684,,,,,,,5,22,female,up_down_width,2023_Aug_14_1622,exp1,2021.2.3,59.99822406698353,
,,,,,,,,,,,,,,,,4,8.65,9.55,10.45,11.35,0,0.9,0.65,0.25,2.95,10,initial,36.05,312,344,377,409,0,9,9,9,9,0,,,,,0,0,0,0,0,24,24,32,,,,,num_4,0.8436726999934763,num_4,0.4,0.9,0.30000000000000004,0.9,10.81288,32.43864,return,1.3111515000928193,,,,,,,5,22,female,up_down_width,2023_Aug_14_1622,exp1,2021.2.3,59.99822406698353,
,,,,,,,,,,,,,,,,4,9.25,9.75,10.25,10.75,0,0.5,0.25,0.25,1.75,10,initial,36.05,333,351,370,388,0,9,9,9,9,0,,,,,0,0,0,0,0,25,25,20,,,,,num_4,0.821247800020501,num_4,0.3,1.0,0.25,0.7,9.01073,25.23005,return,2.4820138001814485,,,,,,,5,22,female,up_down_width,2023_Aug_14_1622,exp1,2021.2.3,59.99822406698353,
,,,,,,,,,,,,,,,,5,8.2,9.1,10,10.9,11.8,0.9,0.8,0.1,3.7,10,initial,36.05,296,328,361,393,425,9,9,9,9,9,,,,,0,0,0,0,0,26,26,48,,,,,num_4,0.8085044999606907,num_4,0.1,0.6,0.15000000000000002,1.0,5.40644,36.04293,return,2.8234221001621336,,,,,,,5,22,female,up_down_width,2023_Aug_14_1622,exp1,2021.2.3,59.99822406698353,
,,,,,,,,,,,,,,,,3,8.2,10,11.8,0,0,1.7999999999999998,1.4,0.4,4,10,match,36.05,296,361,425,0,0,9,9,9,0,0,,,,,0,0,0,0,0,27,27,53,,,,,num_3,0.846568200038746,num_3,0.3,1,0.39999999999999997,1.65,14.41717,59.47083,return,4.8927163002081215,,,,,,,5,22,female,up_down_width,2023_Aug_14_1622,exp1,2021.2.3,59.99822406698353,
,,,,,,,,,,,,,,,,5,9,9.5,10,10.5,11,0.5,0.09999999999999998,0.4,2.4,10,initial,36.05,324,342,361,379,397,9,9,9,9,9,,,,,0,0,0,0,0,28,28,40,,,,,num_4,0.8464544001035392,num_4,0.25,0.8,0.39999999999999997,0.9,14.41717,32.43864,return,6.139031399972737,,,,,,,5,22,female,up_down_width,2023_Aug_14_1622,exp1,2021.2.3,59.99822406698353,
,,,,,,,,,,,,,,,,3,9.3,10,10.7,0,0,0.7,0.6,0.1,1.5,10,initial,36.05,335,361,386,0,0,9,9,9,0,0,,,,,0,0,0,0,0,29,29,6,,,,,num_3,1.0007601999677718,num_3,0.35,0.5,0.15000000000000002,0.85,5.40644,30.63649,return,6.161276299972087,,,,,,,5,22,female,up_down_width,2023_Aug_14_1622,exp1,2021.2.3,59.99822406698353,
,,,,,,,,,,,,,,,,5,8.2,9.1,10,10.9,11.8,0.9,0.5,0.4,4,10,initial,36.05,296,328,361,393,425,9,9,9,9,9,,,,,0,0,0,0,0,30,30,52,,,,,num_4,0.7736140000633895,num_4,0.1,1.2,0.44999999999999996,0.9,16.21932,32.43864,return,9.279921400127932,,,,,,,5,22,female,up_down_width,2023_Aug_14_1622,exp1,2021.2.3,59.99822406698353,
,,,,,,,,,,,,,,,,3,9.5,10,10.5,0,0,0.5,0.25,0.25,1.25,10,initial,36.05,342,361,379,0,0,9,9,9,0,0,,,,,0,0,0,0,0,31,31,2,,,,,num_3,0.8840976001229137,num_3,0.2,1.2,0.3,0.6,10.81288,21.62576,return,5.101868799887598,,,,,,,5,22,female,up_down_width,2023_Aug_14_1622,exp1,2021.2.3,59.99822406698353,
,,,,,,,,,,,,,,,,5,8.6,9.3,10,10.7,11.4,0.7,0.44999999999999996,0.25,3.05,10,initial,36.05,310,335,361,386,411,9,9,9,9,9,,,,,0,0,0,0,0,32,32,44,,,,,num_4,1.0889569998253137,num_4,0.25,1.1,0.25,0.6,9.01073,21.62576,return,3.7406376998405904,,,,,,,5,22,female,up_down_width,2023_Aug_14_1622,exp1,2021.2.3,59.99822406698353,
,,,,,,,,,,,,,,,,4,9.3,9.766666666666667,10.233333333333333,10.7,0,0.4666666666666667,0.3666666666666667,0.1,1.5,10,match,36.05,335,352,369,386,0,9,9,9,9,0,,,,,0,0,0,0,0,33,33,7,,,,,num_4,0.7908131999429315,num_4,0.1,0.3,0.1,0.7,3.60429,25.23005,return,2.1199134001508355,,,,,,,5,22,female,up_down_width,2023_Aug_14_1622,exp1,2021.2.3,59.99822406698353,
,,,,,,,,,,,,,,,,4,9.3,9.766666666666667,10.233333333333333,10.7,0,0.4666666666666667,0.21666666666666665,0.25,1.65,10,match,36.05,335,352,369,386,0,9,9,9,9,0,,,,,0,0,0,0,0,34,34,9,,,,,num_4,0.9165109000168741,num_4,0.25,0.4,0.25,0.6,9.01073,21.62576,return,3.2471094999928027,,,,,,,5,22,female,up_down_width,2023_Aug_14_1622,exp1,2021.2.3,59.99822406698353,
,,,,,,,,,,,,,,,,5,9,9.5,10,10.5,11,0.5,0.4,0.1,2.1,10,initial,36.05,324,342,361,379,397,9,9,9,9,9,,,,,0,0,0,0,0,35,35,36,,,,,num_5,0.7038815000560135,num_5,0.3,0.5,0.10000000000000002,0.6,3.60429,21.62576,return,5.646463799988851,,,,,,,5,22,female,up_down_width,2023_Aug_14_1622,exp1,2021.2.3,59.99822406698353,
,,,,,,,,,,,,,,,,4,9.425,9.808333333333334,10.191666666666666,10.575,0,0.3833333333333333,0.1333333333333333,0.25,1.4,10,match,36.05,340,354,367,381,0,9,9,9,9,0,,,,,0,0,0,0,0,36,36,5,,,,,num_4,1.1717611998319626,num_4,0.15,0.4,0.2,0.7,7.20859,25.23005,return,2.117332800058648,,,,,,,5,22,female,up_down_width,2023_Aug_14_1622,exp1,2021.2.3,59.99822406698353,
,,,,,,,,,,,,,,,,3,8.6,10,11.4,0,0,1.4,1.15,0.25,3.05,10,match,36.05,310,361,411,0,0,9,9,9,0,0,,,,,0,0,0,0,0,37,37,45,,,,,num_3,0.7640555000398308,num_3,0.3,0.6,0.3,1.1,10.81288,39.64722,return,5.437297299969941,,,,,,,5,22,female,up_down_width,2023_Aug_14_1622,exp1,2021.2.3,59.99822406698353,
,,,,,,,,,,,,,,,,4,9.25,9.75,10.25,10.75,0,0.5,0.4,0.1,1.6,10,initial,36.05,333,351,370,388,0,9,9,9,9,0,,,,,0,0,0,0,0,38,38,18,,,,,num_4,0.8163274999242276,num_4,0.1,0.5,0.1,0.7,3.60429,25.23005,return,1.5565692000091076,,,,,,,5,22,female,up_down_width,2023_Aug_14_1622,exp1,2021.2.3,59.99822406698353,
,,,,,,,,,,,,,,,,3,9,10,11,0,0,1,0.9,0.1,2.1,10,match,36.05,324,361,397,0,0,9,9,9,0,0,,,,,0,0,0,0,0,39,39,37,,,,,num_3,0.865264399908483,num_3,0.35,0.5,0.10000000000000002,0.9,3.60429,32.43864,return,4.760864800075069,,,,,,,5,22,female,up_down_width,2023_Aug_14_1622,exp1,2021.2.3,59.99822406698353,
,,,,,,,,,,,,,,,,4,9.1,9.7,10.3,10.9,0,0.6000000000000001,0.20000000000000004,0.4,2.2,10,match,36.05,328,350,371,393,0,9,9,9,9,0,,,,,0,0,0,0,0,40,40,17,,,,,num_4,0.7390460998285562,num_4,0.3,0.4,0.3,0.9,10.81288,32.43864,return,2.499498500023037,,,,,,,5,22,female,up_down_width,2023_Aug_14_1622,exp1,2021.2.3,59.99822406698353,
,,,,,,,,,,,,,,,,4,9.5,9.833333333333334,10.166666666666666,10.5,0,0.33333333333333337,0.23333333333333336,0.1,1.1,10,match,36.05,342,354,367,379,0,9,9,9,9,0,,,,,0,0,0,0,0,41,41,1,,,,,num_4,1.7259368998929858,num_4,0.25,1.3,0.15000000000000002,0.5,5.40644,18.02146,return,3.55983870010823,,,,,,,5,22,female,up_down_width,2023_Aug_14_1622,exp1,2021.2.3,59.99822406698353,
,,,,,,,,,,,,,,,,5,8.95,9.475,10,10.525,11.05,0.525,0.125,0.4,2.5,10,match,36.05,323,342,361,379,398,9,9,9,9,9,,,,,0,0,0,0,0,42,42,29,,,,,num_4,0.8094647999387234,num_4,0.25,0.7,0.49999999999999994,0.8,18.02146,28.83434,return,3.7996702999807894,,,,,,,5,22,female,up_down_width,2023_Aug_14_1622,exp1,2021.2.3,59.99822406698353,
,,,,,,,,,,,,,,,,3,9,10,11,0,0,1,0.75,0.25,2.25,10,match,36.05,324,361,397,0,0,9,9,9,0,0,,,,,0,0,0,0,0,43,43,39,,,,,num_3,0.86647820007056,num_3,0.45,0.7,0.25000000000000006,0.95,9.01073,34.24078,return,3.503923299955204,,,,,,,5,22,female,up_down_width,2023_Aug_14_1622,exp1,2021.2.3,59.99822406698353,
,,,,,,,,,,,,,,,,4,9.25,9.75,10.25,10.75,0,0.5,0.09999999999999998,0.4,1.9,10,initial,36.05,333,351,370,388,0,9,9,9,9,0,,,,,0,0,0,0,0,44,44,22,,,,,num_4,0.7077758000232279,num_4,0.45,1.2,0.4,0.6,14.41717,21.62576,return,4.950735100079328,,,,,,,5,22,female,up_down_width,2023_Aug_14_1622,exp1,2021.2.3,59.99822406698353,
,,,,,,,,,,,,,,,,3,9.5,10,10.5,0,0,0.5,0.09999999999999998,0.4,1.4000000000000001,10,initial,36.05,342,361,379,0,0,9,9,9,0,0,,,,,0,0,0,0,0,45,45,4,,,,,num_3,0.7846816000528634,num_3,0.1,1,0.49999999999999994,0.9,18.02146,32.43864,return,7.727764599956572,,,,,,,5,22,female,up_down_width,2023_Aug_14_1622,exp1,2021.2.3,59.99822406698353,
,,,,,,,,,,,,,,,,4,8.65,9.55,10.45,11.35,0,0.9,0.8,0.1,2.8000000000000003,10,initial,36.05,312,344,377,409,0,9,9,9,9,0,,,,,0,0,0,0,0,46,46,30,,,,,num_3,0.5891281999647617,num_3,0.2,0.6,0.10000000000000002,0.85,3.60429,30.63649,return,3.601957900216803,,,,,,,5,22,female,up_down_width,2023_Aug_14_1622,exp1,2021.2.3,59.99822406698353,
,,,,,,,,,,,,,,,,3,9,10,11,0,0,0.9999999999999999,0.5999999999999999,0.4,2.4,10,match,36.05,324,361,397,0,0,9,9,9,0,0,,,,,0,0,0,0,0,47,47,41,,,,,num_3,0.7953338997904211,num_3,0.15,1.1,0.44999999999999996,1.1,16.21932,39.64722,return,2.086468700086698,,,,,,,5,22,female,up_down_width,2023_Aug_14_1622,exp1,2021.2.3,59.99822406698353,
,,,,,,,,,,,,,,,,4,9.1,9.7,10.3,10.9,0,0.5999999999999999,0.3499999999999999,0.25,2.05,10,match,36.05,328,350,371,393,0,9,9,9,9,0,,,,,0,0,0,0,0,48,48,15,,,,,num_4,0.9994089000392705,num_4,0.1,0.3,0.2,0.6,7.20859,21.62576,return,1.998165600001812,,,,,,,5,22,female,up_down_width,2023_Aug_14_1622,exp1,2021.2.3,59.99822406698353,
,,,,,,,,,,,,,,,,3,9.3,10,10.7,0,0,0.7,0.29999999999999993,0.4,1.8,10,initial,36.05,335,361,386,0,0,9,9,9,0,0,,,,,0,0,0,0,0,49,49,10,,,,,num_3,0.6458121000323445,num_3,0.4,0.8,0.4,0.8,14.41717,28.83434,return,0.9070031000301242,,,,,,,5,22,female,up_down_width,2023_Aug_14_1622,exp1,2021.2.3,59.99822406698353,
,,,,,,,,,,,,,,,,5,9.25,9.625,10,10.375,10.75,0.375,0.125,0.25,1.75,10,match,36.05,333,347,361,374,388,9,9,9,9,9,,,,,0,0,0,0,0,50,50,21,,,,,num_4,2.2553634999785572,num_4,0.4,0.5,0.25000000000000006,0.6,9.01073,21.62576,return,2.5652040999848396,,,,,,,5,22,female,up_down_width,2023_Aug_14_1622,exp1,2021.2.3,59.99822406698353,
,,,,,,,,,,,,,,,,5,9,9.5,10,10.5,11,0.5,0.25,0.25,2.25,10,initial,36.05,324,342,361,379,397,9,9,9,9,9,,,,,0,0,0,0,0,51,51,38,,,,,num_5,0.7134309001266956,num_5,0.1,1.3,0.3,0.75,10.81288,27.0322,return,4.662162699969485,,,,,,,5,22,female,up_down_width,2023_Aug_14_1622,exp1,2021.2.3,59.99822406698353,
,,,,,,,,,,,,,,,,4,8.95,9.65,10.35,11.05,0,0.7,0.44999999999999996,0.25,2.3499999999999996,10,initial,36.05,323,348,373,398,0,9,9,9,9,0,,,,,0,0,0,0,0,52,52,26,,,,,num_4,0.7872534000780433,num_4,0.1,1.2,0.25,0.6,9.01073,21.62576,return,5.410221699858084,,,,,,,5,22,female,up_down_width,2023_Aug_14_1622,exp1,2021.2.3,59.99822406698353,
,,,,,,,,,,,,,,,,3,8.525,10,11.475,0,0,1.475,1.225,0.25,3.2,10,match,36.05,307,361,414,0,0,9,9,9,0,0,,,,,0,0,0,0,0,53,53,47,,,,,num_3,0.6726208999752998,num_3,0.3,0.9,0.35,0.65,12.61502,23.4279,return,3.3810197999700904,,,,,,,5,22,female,up_down_width,2023_Aug_14_1622,exp1,2021.2.3,59.99822406698353,
,,,,,,,,,,,,,,,,,,,,,,,,,,,,,,,,,,,,,,,,,,,0,0,0,0,,,,,,,,,,,,,,,,,,,,,,623.2614742999431,None,623.2614742999431,None,5,22,female,up_down_width,2023_Aug_14_1622,exp1,2021.2.3,59.99822406698353,
,,,,,,,,,,,,,,,,3,9.1,10,10.9,0,0,0.9,0.5,0.4,2.2,10,initial,36.05,328,361,393,0,0,9,9,9,0,0,,,,,1,0,1,0,0,0,0,16,,,,,num_3,0.8163976001087576,num_3,0.2,0.6,0.39999999999999997,0.65,14.41717,23.4279,return,3.4065156998112798,,,,,,,5,22,female,up_down_width,2023_Aug_14_1622,exp1,2021.2.3,59.99822406698353,
,,,,,,,,,,,,,,,,4,9.5,9.833333333333334,10.166666666666666,10.5,0,0.3333333333333333,0.08333333333333333,0.25,1.25,10,match,36.05,342,354,367,379,0,9,9,9,9,0,,,,,1,0,1,0,0,1,1,3,,,,,num_4,1.4325042001437396,num_4,0.3,0.7,0.2,0.4,7.20859,14.41717,return,3.5163902000058442,,,,,,,5,22,female,up_down_width,2023_Aug_14_1622,exp1,2021.2.3,59.99822406698353,
,,,,,,,,,,,,,,,,5,9,9.5,10,10.5,11,0.5,0.4,0.1,2.1,10,initial,36.05,324,342,361,379,397,9,9,9,9,9,,,,,1,0,1,0,0,2,2,36,,,,,num_5,0.7848879001103342,num_5,0.3,0.5,0.10000000000000002,0.5,3.60429,18.02146,return,3.901819899911061,,,,,,,5,22,female,up_down_width,2023_Aug_14_1622,exp1,2021.2.3,59.99822406698353,
,,,,,,,,,,,,,,,,3,9.3,10,10.7,0,0,0.7,0.44999999999999996,0.25,1.65,10,initial,36.05,335,361,386,0,0,9,9,9,0,0,,,,,1,0,1,0,0,3,3,8,,,,,num_3,0.7694472000002861,num_3,0.3,0.6,0.3,0.6,10.81288,21.62576,return,1.4094475999008864,,,,,,,5,22,female,up_down_width,2023_Aug_14_1622,exp1,2021.2.3,59.99822406698353,
,,,,,,,,,,,,,,,,4,9.3,9.766666666666667,10.233333333333333,10.7,0,0.4666666666666667,0.21666666666666665,0.25,1.65,10,match,36.05,335,352,369,386,0,9,9,9,9,0,,,,,1,0,1,0,0,4,4,9,,,,,num_4,0.8228571000508964,num_4,0.3,0.7,0.2,0.5,7.20859,18.02146,return,4.165358999976888,,,,,,,5,22,female,up_down_width,2023_Aug_14_1622,exp1,2021.2.3,59.99822406698353,
,,,,,,,,,,,,,,,,3,9.3,10,10.7,0,0,0.7,0.6,0.1,1.5,10,initial,36.05,335,361,386,0,0,9,9,9,0,0,,,,,1,0,1,0,0,5,5,6,,,,,num_3,0.8324168999679387,num_3,0.25,0.7,0.10000000000000002,0.5,3.60429,18.02146,return,3.420665399869904,,,,,,,5,22,female,up_down_width,2023_Aug_14_1622,exp1,2021.2.3,59.99822406698353,
,,,,,,,,,,,,,,,,5,9.25,9.625,10,10.375,10.75,0.375,0.275,0.1,1.6,10,match,36.05,333,347,361,374,388,9,9,9,9,9,,,,,1,0,1,0,0,6,6,19,,,,,num_5,0.7985179000534117,num_5,0.3,0.4,0.10000000000000002,0.35,3.60429,12.61502,return,3.279071500059217,,,,,,,5,22,female,up_down_width,2023_Aug_14_1622,exp1,2021.2.3,59.99822406698353,
,,,,,,,,,,,,,,,,4,9.25,9.75,10.25,10.75,0,0.5,0.09999999999999998,0.4,1.9,10,initial,36.05,333,351,370,388,0,9,9,9,9,0,,,,,1,0,1,0,0,7,7,22,,,,,num_3,0.9992603999562562,num_3,0.3,0.9,0.39999999999999997,0.55,14.41717,19.82361,return,6.9897580000106245,,,,,,,5,22,female,up_down_width,2023_Aug_14_1622,exp1,2021.2.3,59.99822406698353,
,,,,,,,,,,,,,,,,3,9.5,10,10.5,0,0,0.5,0.4,0.1,1.1,10,initial,36.05,342,361,379,0,0,9,9,9,0,0,,,,,1,0,1,0,0,8,8,0,,,,,num_3,0.7387633000034839,num_3,0.45,1.2,0.15000000000000008,0.55,5.40644,19.82361,return,5.007377800066024,,,,,,,5,22,female,up_down_width,2023_Aug_14_1622,exp1,2021.2.3,59.99822406698353,
,,,,,,,,,,,,,,,,3,9.3,10,10.7,0,0,0.7,0.29999999999999993,0.4,1.8,10,initial,36.05,335,361,386,0,0,9,9,9,0,0,,,,,1,0,1,0,0,9,9,10,,,,,num_3,0.9688110998831689,num_3,0.35,0.7,0.39999999999999997,0.65,14.41717,23.4279,return,2.7187919998541474,,,,,,,5,22,female,up_down_width,2023_Aug_14_1622,exp1,2021.2.3,59.99822406698353,
,,,,,,,,,,,,,,,,3,8.6,10,11.4,0,0,1.4,1.2999999999999998,0.1,2.9,10,match,36.05,310,361,411,0,0,9,9,9,0,0,,,,,1,0,1,0,0,10,10,43,,,,,num_3,0.9652071001473814,num_3,0.25,0.7,0.05000000000000002,0.7,1.80215,25.23005,return,2.7540461998432875,,,,,,,5,22,female,up_down_width,2023_Aug_14_1622,exp1,2021.2.3,59.99822406698353,
,,,,,,,,,,,,,,,,5,8.6,9.3,10,10.7,11.4,0.7,0.29999999999999993,0.4,3.1999999999999997,10,initial,36.05,310,335,361,386,411,9,9,9,9,9,,,,,1,0,1,0,0,11,11,46,,,,,num_5,0.8664931000676006,num_5,0.2,0.5,0.35,0.6,12.61502,21.62576,return,3.9793741998728365,,,,,,,5,22,female,up_down_width,2023_Aug_14_1622,exp1,2021.2.3,59.99822406698353,
,,,,,,,,,,,,,,,,4,8.95,9.65,10.35,11.05,0,0.7,0.6,0.1,2.1999999999999997,10,initial,36.05,323,348,373,398,0,9,9,9,9,0,,,,,1,0,1,0,0,12,12,24,,,,,num_4,0.9521325998939574,num_4,0.45,0.5,0.10000000000000007,0.5,3.60429,18.02146,return,3.6427703998051584,,,,,,,5,22,female,up_down_width,2023_Aug_14_1622,exp1,2021.2.3,59.99822406698353,
,,,,,,,,,,,,,,,,4,9.425,9.808333333333334,10.191666666666666,10.575,0,0.3833333333333333,0.1333333333333333,0.25,1.4,10,match,36.05,340,354,367,381,0,9,9,9,9,0,,,,,1,0,1,0,0,13,13,5,,,,,num_4,0.8404819001443684,num_4,0.1,0.5,0.3,0.6,10.81288,21.62576,return,5.428123699966818,,,,,,,5,22,female,up_down_width,2023_Aug_14_1622,exp1,2021.2.3,59.99822406698353,
,,,,,,,,,,,,,,,,3,9,10,11,0,0,1,0.9,0.1,2.1,10,match,36.05,324,361,397,0,0,9,9,9,0,0,,,,,1,0,1,0,0,14,14,37,,,,,num_3,0.7032963999081403,num_3,0.35,1.3,0.2,0.7,7.20859,25.23005,return,6.081747099990025,,,,,,,5,22,female,up_down_width,2023_Aug_14_1622,exp1,2021.2.3,59.99822406698353,
,,,,,,,,,,,,,,,,4,8.65,9.55,10.45,11.35,0,0.9,0.65,0.25,2.95,10,initial,36.05,312,344,377,409,0,9,9,9,9,0,,,,,1,0,1,0,0,15,15,32,,,,,num_4,0.798763700062409,num_4,0.35,0.5,0.15000000000000002,0.5,5.40644,18.02146,return,5.717474800068885,,,,,,,5,22,female,up_down_width,2023_Aug_14_1622,exp1,2021.2.3,59.99822406698353,
,,,,,,,,,,,,,,,,3,9.1,10,10.9,0,0,0.9,0.65,0.25,2.05,10,initial,36.05,328,361,393,0,0,9,9,9,0,0,,,,,1,0,1,0,0,16,16,14,,,,,num_3,0.850477899890393,num_3,0.4,1.2,0.25000000000000006,1.0,9.01073,36.04293,return,3.579870499903336,,,,,,,5,22,female,up_down_width,2023_Aug_14_1622,exp1,2021.2.3,59.99822406698353,
,,,,,,,,,,,,,,,,5,8.2,9.1,10,10.9,11.8,0.9,0.65,0.25,3.85,10,initial,36.05,296,328,361,393,425,9,9,9,9,9,,,,,1,0,1,0,0,17,17,50,,,,,num_5,0.8971818999852985,num_5,0.25,0.3,0.15000000000000002,0.5,5.40644,18.02146,return,3.8034111000597477,,,,,,,5,22,female,up_down_width,2023_Aug_14_1622,exp1,2021.2.3,59.99822406698353,
,,,,,,,,,,,,,,,,3,8.2,10,11.8,0,0,1.8000000000000003,1.7000000000000002,0.1,3.7,10,match,36.05,296,361,425,0,0,9,9,9,0,0,,,,,1,0,1,0,0,18,18,49,,,,,num_3,0.8781248999293894,num_3,0.2,1,0.15000000000000002,1,5.40644,36.04293,return,1.2850605000276119,,,,,,,5,22,female,up_down_width,2023_Aug_14_1622,exp1,2021.2.3,59.99822406698353,
,,,,,,,,,,,,,,,,4,9.5,9.833333333333334,10.166666666666666,10.5,0,0.33333333333333337,0.23333333333333336,0.1,1.1,10,match,36.05,342,354,367,379,0,9,9,9,9,0,,,,,1,0,1,0,0,19,19,1,,,,,num_4,0.8946040000300854,num_4,0.45,1.2,0.15000000000000008,0.5,5.40644,18.02146,return,4.135025399969891,,,,,,,5,22,female,up_down_width,2023_Aug_14_1622,exp1,2021.2.3,59.99822406698353,
,,,,,,,,,,,,,,,,4,8.95,9.65,10.35,11.05,0,0.7,0.44999999999999996,0.25,2.3499999999999996,10,initial,36.05,323,348,373,398,0,9,9,9,9,0,,,,,1,0,1,0,0,20,20,26,,,,,num_4,0.8690661999862641,num_4,0.3,1.3,0.25,0.7,9.01073,25.23005,return,4.272868599975482,,,,,,,5,22,female,up_down_width,2023_Aug_14_1622,exp1,2021.2.3,59.99822406698353,
,,,,,,,,,,,,,,,,3,8.2,10,11.8,0,0,1.8,1.55,0.25,3.85,10,match,36.05,296,361,425,0,0,9,9,9,0,0,,,,,1,0,1,0,0,21,21,51,,,,,num_3,0.814518200000748,num_3,0.25,0.9,0.25,1.3,9.01073,46.85581,return,5.10793639998883,,,,,,,5,22,female,up_down_width,2023_Aug_14_1622,exp1,2021.2.3,59.99822406698353,
,,,,,,,,,,,,,,,,4,9.1,9.7,10.3,10.9,0,0.6,0.5,0.1,1.9,10,match,36.05,328,350,371,393,0,9,9,9,9,0,,,,,1,0,1,0,0,22,22,13,,,,,num_4,0.9853258000221103,num_4,0.4,0.8,0.10000000000000007,0.6,3.60429,21.62576,return,3.754996200092137,,,,,,,5,22,female,up_down_width,2023_Aug_14_1622,exp1,2021.2.3,59.99822406698353,
,,,,,,,,,,,,,,,,3,9.5,10,10.5,0,0,0.5,0.09999999999999998,0.4,1.4000000000000001,10,initial,36.05,342,361,379,0,0,9,9,9,0,0,,,,,1,0,1,0,0,23,23,4,,,,,num_3,0.7119988999329507,num_3,0.2,1.2,0.49999999999999994,0.7,18.02146,25.23005,return,4.679390500066802,,,,,,,5,22,female,up_down_width,2023_Aug_14_1622,exp1,2021.2.3,59.99822406698353,
,,,,,,,,,,,,,,,,3,8.525,10,11.475,0,0,1.475,1.225,0.25,3.2,10,match,36.05,307,361,414,0,0,9,9,9,0,0,,,,,1,0,1,0,0,24,24,47,,,,,num_3,1.1227742999326438,num_3,0.25,0.8,0.2,0.9,7.20859,32.43864,return,3.4446951001882553,,,,,,,5,22,female,up_down_width,2023_Aug_14_1622,exp1,2021.2.3,59.99822406698353,
,,,,,,,,,,,,,,,,4,9.3,9.766666666666667,10.233333333333333,10.7,0,0.4666666666666667,0.06666666666666665,0.4,1.8,10,match,36.05,335,352,369,386,0,9,9,9,9,0,,,,,1,0,1,0,0,25,25,11,,,,,num_3,0.8496882999315858,num_3,0.25,0.3,0.49999999999999994,0.65,18.02146,23.4279,return,5.421071900054812,,,,,,,5,22,female,up_down_width,2023_Aug_14_1622,exp1,2021.2.3,59.99822406698353,
,,,,,,,,,,,,,,,,5,9,9.5,10,10.5,11,0.5,0.25,0.25,2.25,10,initial,36.05,324,342,361,379,397,9,9,9,9,9,,,,,1,0,1,0,0,26,26,38,,,,,num_4,0.9685132000595331,num_4,0.1,0.7,0.49999999999999994,0.7,18.02146,25.23005,return,2.944330000085756,,,,,,,5,22,female,up_down_width,2023_Aug_14_1622,exp1,2021.2.3,59.99822406698353,
,,,,,,,,,,,,,,,,5,8.2,9.1,10,10.9,11.8,0.9,0.8,0.1,3.7,10,initial,36.05,296,328,361,393,425,9,9,9,9,9,,,,,1,0,1,0,0,27,27,48,,,,,num_5,1.0406176999676973,num_5,0.35,1.2,0.10000000000000002,0.85,3.60429,30.63649,return,4.087746399920434,,,,,,,5,22,female,up_down_width,2023_Aug_14_1622,exp1,2021.2.3,59.99822406698353,
,,,,,,,,,,,,,,,,4,9.1,9.7,10.3,10.9,0,0.6000000000000001,0.20000000000000004,0.4,2.2,10,match,36.05,328,350,371,393,0,9,9,9,9,0,,,,,1,0,1,0,0,28,28,17,,,,,num_3,1.0299706999212503,num_3,0.3,1.2,0.49999999999999994,0.8,18.02146,28.83434,return,5.481709799962118,,,,,,,5,22,female,up_down_width,2023_Aug_14_1622,exp1,2021.2.3,59.99822406698353,
,,,,,,,,,,,,,,,,4,8.95,9.65,10.35,11.05,0,0.7,0.29999999999999993,0.4,2.5,10,initial,36.05,323,348,373,398,0,9,9,9,9,0,,,,,1,0,1,0,0,29,29,28,,,,,num_4,1.0963055999018252,num_4,0.25,1.0,0.49999999999999994,0.7,18.02146,25.23005,return,4.267322700005025,,,,,,,5,22,female,up_down_width,2023_Aug_14_1622,exp1,2021.2.3,59.99822406698353,
,,,,,,,,,,,,,,,,5,8.65,9.325,10,10.675,11.35,0.675,0.42500000000000004,0.25,2.95,10,match,36.05,312,336,361,385,409,9,9,9,9,9,,,,,1,0,1,0,0,30,30,33,,,,,num_5,0.8816975001245737,num_5,0.15,0.7,0.3,0.7,10.81288,25.23005,return,2.156710600014776,,,,,,,5,22,female,up_down_width,2023_Aug_14_1622,exp1,2021.2.3,59.99822406698353,
,,,,,,,,,,,,,,,,4,9.3,9.766666666666667,10.233333333333333,10.7,0,0.4666666666666667,0.3666666666666667,0.1,1.5,10,match,36.05,335,352,369,386,0,9,9,9,9,0,,,,,1,0,1,0,0,31,31,7,,,,,num_4,0.8260252999607474,num_4,0.35,1.1,0.10000000000000002,0.4,3.60429,14.41717,return,3.686556899920106,,,,,,,5,22,female,up_down_width,2023_Aug_14_1622,exp1,2021.2.3,59.99822406698353,
,,,,,,,,,,,,,,,,3,9,10,11,0,0,1,0.75,0.25,2.25,10,match,36.05,324,361,397,0,0,9,9,9,0,0,,,,,1,0,1,0,0,32,32,39,,,,,num_3,1.125319000100717,num_3,0.35,0.8,0.15000000000000002,0.75,5.40644,27.0322,return,3.014867100166157,,,,,,,5,22,female,up_down_width,2023_Aug_14_1622,exp1,2021.2.3,59.99822406698353,
,,,,,,,,,,,,,,,,4,9.1,9.7,10.3,10.9,0,0.5999999999999999,0.3499999999999999,0.25,2.05,10,match,36.05,328,350,371,393,0,9,9,9,9,0,,,,,1,0,1,0,0,33,33,15,,,,,num_4,0.8852719999849796,num_4,0.15,0.5,0.15,0.6,5.40644,21.62576,return,1.7597000999376178,,,,,,,5,22,female,up_down_width,2023_Aug_14_1622,exp1,2021.2.3,59.99822406698353,
,,,,,,,,,,,,,,,,3,9.5,10,10.5,0,0,0.5,0.25,0.25,1.25,10,initial,36.05,342,361,379,0,0,9,9,9,0,0,,,,,1,0,1,0,0,34,34,2,,,,,num_3,0.7683866999577731,num_3,0.25,1.1,0.3,0.8,10.81288,28.83434,return,2.9990677000023425,,,,,,,5,22,female,up_down_width,2023_Aug_14_1622,exp1,2021.2.3,59.99822406698353,
,,,,,,,,,,,,,,,,5,8.65,9.325,10,10.675,11.35,0.6749999999999999,0.575,0.1,2.8,10,match,36.05,312,336,361,385,409,9,9,9,9,9,,,,,1,0,1,0,0,35,35,31,,,,,num_5,1.1329940999858081,num_5,0.45,1.3,0.15000000000000008,0.55,5.40644,19.82361,return,5.971196800004691,,,,,,,5,22,female,up_down_width,2023_Aug_14_1622,exp1,2021.2.3,59.99822406698353,
,,,,,,,,,,,,,,,,3,8.2,10,11.8,0,0,1.7999999999999998,1.4,0.4,4,10,match,36.05,296,361,425,0,0,9,9,9,0,0,,,,,1,0,1,0,0,36,36,53,,,,,num_3,0.8700107999611646,num_3,0.35,0.6,0.39999999999999997,1.45,14.41717,52.26225,return,5.588588299928233,,,,,,,5,22,female,up_down_width,2023_Aug_14_1622,exp1,2021.2.3,59.99822406698353,
,,,,,,,,,,,,,,,,5,8.95,9.475,10,10.525,11.05,0.525,0.125,0.4,2.5,10,match,36.05,323,342,361,379,398,9,9,9,9,9,,,,,1,0,1,0,0,37,37,29,,,,,num_4,1.8351221000775695,num_4,0.4,1.0,0.45,0.7,16.21932,25.23005,return,3.258587999967858,,,,,,,5,22,female,up_down_width,2023_Aug_14_1622,exp1,2021.2.3,59.99822406698353,
,,,,,,,,,,,,,,,,5,9.25,9.625,10,10.375,10.75,0.375,0.125,0.25,1.75,10,match,36.05,333,347,361,374,388,9,9,9,9,9,,,,,1,0,1,0,0,38,38,21,,,,,num_3,1.3615497001446784,num_3,0.2,1.2,0.39999999999999997,0.5,14.41717,18.02146,return,5.027001100126654,,,,,,,5,22,female,up_down_width,2023_Aug_14_1622,exp1,2021.2.3,59.99822406698353,
,,,,,,,,,,,,,,,,5,8.65,9.325,10,10.675,11.35,0.675,0.275,0.4,3.1,10,match,36.05,312,336,361,385,409,9,9,9,9,9,,,,,1,0,1,0,0,39,39,35,,,,,num_4,0.7606718000024557,num_4,0.25,0.4,0.35,0.6,12.61502,21.62576,return,2.0247213998809457,,,,,,,5,22,female,up_down_width,2023_Aug_14_1622,exp1,2021.2.3,59.99822406698353,
,,,,,,,,,,,,,,,,5,8.2,9.1,10,10.9,11.8,0.9,0.5,0.4,4,10,initial,36.05,296,328,361,393,425,9,9,9,9,9,,,,,1,0,1,0,0,40,40,52,,,,,num_5,1.0327422998379916,num_5,0.2,1.2,0.39999999999999997,0.85,14.41717,30.63649,return,3.289072599960491,,,,,,,5,22,female,up_down_width,2023_Aug_14_1622,exp1,2021.2.3,59.99822406698353,
,,,,,,,,,,,,,,,,3,9.1,10,10.9,0,0,0.9,0.8,0.1,1.9000000000000001,10,initial,36.05,328,361,393,0,0,9,9,9,0,0,,,,,1,0,1,0,0,41,41,12,,,,,num_3,1.2136844000779092,num_3,0.2,1.3,0.10000000000000002,1.2,3.60429,43.25151,return,2.5749337000306696,,,,,,,5,22,female,up_down_width,2023_Aug_14_1622,exp1,2021.2.3,59.99822406698353,
,,,,,,,,,,,,,,,,5,8.95,9.475,10,10.525,11.05,0.525,0.42500000000000004,0.1,2.2,10,match,36.05,323,342,361,379,398,9,9,9,9,9,,,,,1,0,1,0,0,42,42,25,,,,,num_4,0.8024997999891639,num_4,0.2,1.3,0.2,0.9,7.20859,32.43864,return,2.816251700045541,,,,,,,5,22,female,up_down_width,2023_Aug_14_1622,exp1,2021.2.3,59.99822406698353,
,,,,,,,,,,,,,,,,5,8.95,9.475,10,10.525,11.05,0.525,0.275,0.25,2.35,10,match,36.05,323,342,361,379,398,9,9,9,9,9,,,,,1,0,1,0,0,43,43,27,,,,,num_4,0.7428093000780791,num_4,0.4,0.9,0.35000000000000003,0.8,12.61502,28.83434,return,2.0871997999493033,,,,,,,5,22,female,up_down_width,2023_Aug_14_1622,exp1,2021.2.3,59.99822406698353,
,,,,,,,,,,,,,,,,5,9.175,9.5875,10,10.4125,10.825,0.4125,0.16249999999999998,0.25,1.9,10,match,36.05,331,346,361,375,390,9,9,9,9,9,,,,,1,0,1,0,0,44,44,23,,,,,num_4,1.1375897999387234,num_4,0.3,1.1,0.3,0.8,10.81288,28.83434,return,1.6482969999779016,,,,,,,5,22,female,up_down_width,2023_Aug_14_1622,exp1,2021.2.3,59.99822406698353,
,,,,,,,,,,,,,,,,5,9,9.5,10,10.5,11,0.5,0.09999999999999998,0.4,2.4,10,initial,36.05,324,342,361,379,397,9,9,9,9,9,,,,,1,0,1,0,0,45,45,40,,,,,num_4,0.9520877001341432,num_4,0.15,0.3,0.3,0.6,10.81288,21.62576,return,4.1760013999883085,,,,,,,5,22,female,up_down_width,2023_Aug_14_1622,exp1,2021.2.3,59.99822406698353,
,,,,,,,,,,,,,,,,5,8.6,9.3,10,10.7,11.4,0.7,0.6,0.1,2.9,10,initial,36.05,310,335,361,386,411,9,9,9,9,9,,,,,1,0,1,0,0,46,46,42,,,,,num_5,0.8100209000986069,num_5,0.4,0.9,0.10000000000000007,0.75,3.60429,27.0322,return,3.6012263000011444,,,,,,,5,22,female,up_down_width,2023_Aug_14_1622,exp1,2021.2.3,59.99822406698353,
,,,,,,,,,,,,,,,,3,8.6,10,11.4,0,0,1.4,1.15,0.25,3.05,10,match,36.05,310,361,411,0,0,9,9,9,0,0,,,,,1,0,1,0,0,47,47,45,,,,,num_3,0.8693103000987321,num_3,0.1,0.7,0.15000000000000002,0.7,5.40644,25.23005,return,1.283729099901393,,,,,,,5,22,female,up_down_width,2023_Aug_14_1622,exp1,2021.2.3,59.99822406698353,
,,,,,,,,,,,,,,,,5,8.6,9.3,10,10.7,11.4,0.7,0.44999999999999996,0.25,3.05,10,initial,36.05,310,335,361,386,411,9,9,9,9,9,,,,,1,0,1,0,0,48,48,44,,,,,num_5,0.736136700026691,num_5,0.45,0.9,0.20000000000000007,0.9,7.20859,32.43864,return,2.6094887999352068,,,,,,,5,22,female,up_down_width,2023_Aug_14_1622,exp1,2021.2.3,59.99822406698353,
,,,,,,,,,,,,,,,,4,9.25,9.75,10.25,10.75,0,0.5,0.25,0.25,1.75,10,initial,36.05,333,351,370,388,0,9,9,9,9,0,,,,,1,0,1,0,0,49,49,20,,,,,num_4,0.8705879999324679,num_4,0.4,0.6,0.15000000000000008,0.6,5.40644,21.62576,return,1.6469151999335736,,,,,,,5,22,female,up_down_width,2023_Aug_14_1622,exp1,2021.2.3,59.99822406698353,
,,,,,,,,,,,,,,,,4,8.65,9.55,10.45,11.35,0,0.9,0.8,0.1,2.8000000000000003,10,initial,36.05,312,344,377,409,0,9,9,9,9,0,,,,,1,0,1,0,0,50,50,30,,,,,num_3,1.0892626999411732,num_3,0.3,0.9,0.15000000000000002,0.85,5.40644,30.63649,return,2.4028462001588196,,,,,,,5,22,female,up_down_width,2023_Aug_14_1622,exp1,2021.2.3,59.99822406698353,
,,,,,,,,,,,,,,,,4,8.65,9.55,10.45,11.35,0,0.9,0.5,0.4,3.1,10,initial,36.05,312,344,377,409,0,9,9,9,9,0,,,,,1,0,1,0,0,51,51,34,,,,,num_4,0.893540499964729,num_4,0.3,0.3,0.15000000000000002,0.4,5.40644,14.41717,return,3.7767964999657124,,,,,,,5,22,female,up_down_width,2023_Aug_14_1622,exp1,2021.2.3,59.99822406698353,
,,,,,,,,,,,,,,,,4,9.25,9.75,10.25,10.75,0,0.5,0.4,0.1,1.6,10,initial,36.05,333,351,370,388,0,9,9,9,9,0,,,,,1,0,1,0,0,52,52,18,,,,,num_4,0.7467402999754995,num_4,0.2,0.7,0.05000000000000002,0.6,1.80215,21.62576,return,1.8524889999534935,,,,,,,5,22,female,up_down_width,2023_Aug_14_1622,exp1,2021.2.3,59.99822406698353,
,,,,,,,,,,,,,,,,3,9,10,11,0,0,0.9999999999999999,0.5999999999999999,0.4,2.4,10,match,36.05,324,361,397,0,0,9,9,9,0,0,,,,,1,0,1,0,0,53,53,41,,,,,num_3,1.5865853999275714,num_3,0.3,1,0.44999999999999996,0.95,16.21932,34.24078,return,2.7529611999634653,,,,,,,5,22,female,up_down_width,2023_Aug_14_1622,exp1,2021.2.3,59.99822406698353,
,,,,,,,,,,,,,,,,,,,,,,,,,,,,,,,,,,,,,,,,,,,1,0,1,0,,,,,,,,,,,,,,,,,,,,,,975.4902333999053,None,975.4902333999053,None,5,22,female,up_down_width,2023_Aug_14_1622,exp1,2021.2.3,59.99822406698353,
,,,,,,,,,,,,,,,,3,8.2,10,11.8,0,0,1.7999999999999998,1.4,0.4,4,10,match,36.05,296,361,425,0,0,9,9,9,0,0,,,,,2,0,2,0,0,0,0,53,,,,,num_3,0.7688146999571472,num_3,0.15,0.5,0.25,0.75,9.01073,27.0322,return,2.4129846999421716,,,,,,,5,22,female,up_down_width,2023_Aug_14_1622,exp1,2021.2.3,59.99822406698353,
,,,,,,,,,,,,,,,,4,9.1,9.7,10.3,10.9,0,0.5999999999999999,0.3499999999999999,0.25,2.05,10,match,36.05,328,350,371,393,0,9,9,9,9,0,,,,,2,0,2,0,0,1,1,15,,,,,num_3,1.4588597000110894,num_3,0.35,1,0.25,0.95,9.01073,34.24078,return,1.8294937000609934,,,,,,,5,22,female,up_down_width,2023_Aug_14_1622,exp1,2021.2.3,59.99822406698353,
,,,,,,,,,,,,,,,,5,8.6,9.3,10,10.7,11.4,0.7,0.29999999999999993,0.4,3.1999999999999997,10,initial,36.05,310,335,361,386,411,9,9,9,9,9,,,,,2,0,2,0,0,2,2,46,,,,,num_4,0.9919162001460791,num_4,0.25,0.3,0.25,0.6,9.01073,21.62576,return,3.3828478001523763,,,,,,,5,22,female,up_down_width,2023_Aug_14_1622,exp1,2021.2.3,59.99822406698353,
,,,,,,,,,,,,,,,,3,9.5,10,10.5,0,0,0.5,0.4,0.1,1.1,10,initial,36.05,342,361,379,0,0,9,9,9,0,0,,,,,2,0,2,0,0,3,3,0,,,,,num_3,0.813740000128746,num_3,0.1,1,0.1,0.45,3.60429,16.21932,return,3.1325711999088526,,,,,,,5,22,female,up_down_width,2023_Aug_14_1622,exp1,2021.2.3,59.99822406698353,
,,,,,,,,,,,,,,,,3,8.6,10,11.4,0,0,1.4,1.15,0.25,3.05,10,match,36.05,310,361,411,0,0,9,9,9,0,0,,,,,2,0,2,0,0,4,4,45,,,,,num_3,0.772142699919641,num_3,0.4,1.1,0.25000000000000006,1.1,9.01073,39.64722,return,3.563213499961421,,,,,,,5,22,female,up_down_width,2023_Aug_14_1622,exp1,2021.2.3,59.99822406698353,
,,,,,,,,,,,,,,,,3,9.1,10,10.9,0,0,0.9,0.5,0.4,2.2,10,initial,36.05,328,361,393,0,0,9,9,9,0,0,,,,,2,0,2,0,0,5,5,16,,,,,num_3,0.7511913999915123,num_3,0.1,0.4,0.35,0.6,12.61502,21.62576,return,4.0495768000837415,,,,,,,5,22,female,up_down_width,2023_Aug_14_1622,exp1,2021.2.3,59.99822406698353,
,,,,,,,,,,,,,,,,4,9.3,9.766666666666667,10.233333333333333,10.7,0,0.4666666666666667,0.06666666666666665,0.4,1.8,10,match,36.05,335,352,369,386,0,9,9,9,9,0,,,,,2,0,2,0,0,6,6,11,,,,,num_4,0.9185180999338627,num_4,0.45,1.2,0.4,0.7,14.41717,25.23005,return,3.008544399868697,,,,,,,5,22,female,up_down_width,2023_Aug_14_1622,exp1,2021.2.3,59.99822406698353,
,,,,,,,,,,,,,,,,3,9.3,10,10.7,0,0,0.7,0.6,0.1,1.5,10,initial,36.05,335,361,386,0,0,9,9,9,0,0,,,,,2,0,2,0,0,7,7,6,,,,,num_3,0.9017556000035256,num_3,0.35,1.1,0.10000000000000002,0.7,3.60429,25.23005,return,3.9674089001491666,,,,,,,5,22,female,up_down_width,2023_Aug_14_1622,exp1,2021.2.3,59.99822406698353,
,,,,,,,,,,,,,,,,5,8.65,9.325,10,10.675,11.35,0.675,0.275,0.4,3.1,10,match,36.05,312,336,361,385,409,9,9,9,9,9,,,,,2,0,2,0,0,8,8,35,,,,,num_4,1.352184700081125,num_4,0.35,1.3,0.3,0.6,10.81288,21.62576,return,3.4402765999548137,,,,,,,5,22,female,up_down_width,2023_Aug_14_1622,exp1,2021.2.3,59.99822406698353,
,,,,,,,,,,,,,,,,5,8.95,9.475,10,10.525,11.05,0.525,0.42500000000000004,0.1,2.2,10,match,36.05,323,342,361,379,398,9,9,9,9,9,,,,,2,0,2,0,0,9,9,25,,,,,num_5,0.7588579000439495,num_5,0.45,1.2,0.15000000000000008,0.6,5.40644,21.62576,return,4.998268200084567,,,,,,,5,22,female,up_down_width,2023_Aug_14_1622,exp1,2021.2.3,59.99822406698353,
,,,,,,,,,,,,,,,,4,9.425,9.808333333333334,10.191666666666666,10.575,0,0.3833333333333333,0.1333333333333333,0.25,1.4,10,match,36.05,340,354,367,381,0,9,9,9,9,0,,,,,2,0,2,0,0,10,10,5,,,,,num_5,0.7640446000732481,num_5,0.4,0.8,0.30000000000000004,0.65,10.81288,23.4279,return,2.3323505001608282,,,,,,,5,22,female,up_down_width,2023_Aug_14_1622,exp1,2021.2.3,59.99822406698353,
,,,,,,,,,,,,,,,,5,9,9.5,10,10.5,11,0.5,0.4,0.1,2.1,10,initial,36.05,324,342,361,379,397,9,9,9,9,9,,,,,2,0,2,0,0,11,11,36,,,,,num_5,0.780104500008747,num_5,0.45,0.7,0.10000000000000007,0.5,3.60429,18.02146,return,4.875954299932346,,,,,,,5,22,female,up_down_width,2023_Aug_14_1622,exp1,2021.2.3,59.99822406698353,
,,,,,,,,,,,,,,,,4,9.25,9.75,10.25,10.75,0,0.5,0.09999999999999998,0.4,1.9,10,initial,36.05,333,351,370,388,0,9,9,9,9,0,,,,,2,0,2,0,0,12,12,22,,,,,num_4,0.8954243999905884,num_4,0.45,1.3,0.35000000000000003,0.6,12.61502,21.62576,return,2.889996899990365,,,,,,,5,22,female,up_down_width,2023_Aug_14_1622,exp1,2021.2.3,59.99822406698353,
,,,,,,,,,,,,,,,,3,8.2,10,11.8,0,0,1.8,1.55,0.25,3.85,10,match,36.05,296,361,425,0,0,9,9,9,0,0,,,,,2,0,2,0,0,13,13,51,,,,,num_3,0.7174762000795454,num_3,0.35,0.5,0.25,1.0,9.01073,36.04293,return,4.011816800106317,,,,,,,5,22,female,up_down_width,2023_Aug_14_1622,exp1,2021.2.3,59.99822406698353,
,,,,,,,,,,,,,,,,4,9.5,9.833333333333334,10.166666666666666,10.5,0,0.33333333333333337,0.23333333333333336,0.1,1.1,10,match,36.05,342,354,367,379,0,9,9,9,9,0,,,,,2,0,2,0,0,14,14,1,,,,,num_5,0.8220756000373513,num_5,0.45,0.6,0.15000000000000008,0.4,5.40644,14.41717,return,3.3964305000845343,,,,,,,5,22,female,up_down_width,2023_Aug_14_1622,exp1,2021.2.3,59.99822406698353,
,,,,,,,,,,,,,,,,3,9.5,10,10.5,0,0,0.5,0.09999999999999998,0.4,1.4000000000000001,10,initial,36.05,342,361,379,0,0,9,9,9,0,0,,,,,2,0,2,0,0,15,15,4,,,,,num_3,0.7447444000281394,num_3,0.2,0.9,0.35,0.7,12.61502,25.23005,return,4.026188400108367,,,,,,,5,22,female,up_down_width,2023_Aug_14_1622,exp1,2021.2.3,59.99822406698353,
,,,,,,,,,,,,,,,,4,8.95,9.65,10.35,11.05,0,0.7,0.44999999999999996,0.25,2.3499999999999996,10,initial,36.05,323,348,373,398,0,9,9,9,9,0,,,,,2,0,2,0,0,16,16,26,,,,,num_4,0.8170404999982566,num_4,0.25,0.9,0.25,0.8,9.01073,28.83434,return,1.5671910000965,,,,,,,5,22,female,up_down_width,2023_Aug_14_1622,exp1,2021.2.3,59.99822406698353,
,,,,,,,,,,,,,,,,3,9,10,11,0,0,1,0.9,0.1,2.1,10,match,36.05,324,361,397,0,0,9,9,9,0,0,,,,,2,0,2,0,0,17,17,37,,,,,num_3,0.7142953998409212,num_3,0.35,0.5,0.2,0.6,7.20859,21.62576,return,4.216530899982899,,,,,,,5,22,female,up_down_width,2023_Aug_14_1622,exp1,2021.2.3,59.99822406698353,
,,,,,,,,,,,,,,,,5,8.6,9.3,10,10.7,11.4,0.7,0.6,0.1,2.9,10,initial,36.05,310,335,361,386,411,9,9,9,9,9,,,,,2,0,2,0,0,18,18,42,,,,,num_4,0.8079219001810998,num_4,0.25,0.5,0.15000000000000002,0.8,5.40644,28.83434,return,1.9583738998044282,,,,,,,5,22,female,up_down_width,2023_Aug_14_1622,exp1,2021.2.3,59.99822406698353,
,,,,,,,,,,,,,,,,3,8.525,10,11.475,0,0,1.475,1.225,0.25,3.2,10,match,36.05,307,361,414,0,0,9,9,9,0,0,,,,,2,0,2,0,0,19,19,47,,,,,num_3,0.744764800183475,num_3,0.25,0.5,0.2,0.9,7.20859,32.43864,return,2.658842199947685,,,,,,,5,22,female,up_down_width,2023_Aug_14_1622,exp1,2021.2.3,59.99822406698353,
,,,,,,,,,,,,,,,,3,9.3,10,10.7,0,0,0.7,0.44999999999999996,0.25,1.65,10,initial,36.05,335,361,386,0,0,9,9,9,0,0,,,,,2,0,2,0,0,20,20,8,,,,,num_3,0.9524651002138853,num_3,0.35,0.7,0.2,1.05,7.20859,37.84507,return,3.2803861000575125,,,,,,,5,22,female,up_down_width,2023_Aug_14_1622,exp1,2021.2.3,59.99822406698353,
,,,,,,,,,,,,,,,,4,8.95,9.65,10.35,11.05,0,0.7,0.6,0.1,2.1999999999999997,10,initial,36.05,323,348,373,398,0,9,9,9,9,0,,,,,2,0,2,0,0,21,21,24,,,,,num_4,0.7521844001021236,num_4,0.4,1.3,0.15000000000000008,0.8,5.40644,28.83434,return,3.3106539000291377,,,,,,,5,22,female,up_down_width,2023_Aug_14_1622,exp1,2021.2.3,59.99822406698353,
,,,,,,,,,,,,,,,,5,8.65,9.325,10,10.675,11.35,0.6749999999999999,0.575,0.1,2.8,10,match,36.05,312,336,361,385,409,9,9,9,9,9,,,,,2,0,2,0,0,22,22,31,,,,,num_5,0.7933445000089705,num_5,0.2,1.0,0.10000000000000002,0.8,3.60429,28.83434,return,2.488050599815324,,,,,,,5,22,female,up_down_width,2023_Aug_14_1622,exp1,2021.2.3,59.99822406698353,
,,,,,,,,,,,,,,,,4,8.65,9.55,10.45,11.35,0,0.9,0.8,0.1,2.8000000000000003,10,initial,36.05,312,344,377,409,0,9,9,9,9,0,,,,,2,0,2,0,0,23,23,30,,,,,num_5,0.9395526999142021,num_5,0.2,0.9,0.15000000000000002,0.75,5.40644,27.0322,return,4.646416499977931,,,,,,,5,22,female,up_down_width,2023_Aug_14_1622,exp1,2021.2.3,59.99822406698353,
,,,,,,,,,,,,,,,,3,9,10,11,0,0,1,0.75,0.25,2.25,10,match,36.05,324,361,397,0,0,9,9,9,0,0,,,,,2,0,2,0,0,24,24,39,,,,,num_3,0.8274890999309719,num_3,0.15,1.2,0.15,0.85,5.40644,30.63649,return,2.8086061000358313,,,,,,,5,22,female,up_down_width,2023_Aug_14_1622,exp1,2021.2.3,59.99822406698353,
,,,,,,,,,,,,,,,,4,8.65,9.55,10.45,11.35,0,0.9,0.65,0.25,2.95,10,initial,36.05,312,344,377,409,0,9,9,9,9,0,,,,,2,0,2,0,0,25,25,32,,,,,num_4,1.09291599993594,num_4,0.4,0.7,0.15000000000000008,0.6,5.40644,21.62576,return,2.4998435000889003,,,,,,,5,22,female,up_down_width,2023_Aug_14_1622,exp1,2021.2.3,59.99822406698353,
,,,,,,,,,,,,,,,,5,8.6,9.3,10,10.7,11.4,0.7,0.44999999999999996,0.25,3.05,10,initial,36.05,310,335,361,386,411,9,9,9,9,9,,,,,2,0,2,0,0,26,26,44,,,,,num_5,0.7600153000093997,num_5,0.3,0.5,0.15000000000000002,0.5,5.40644,18.02146,return,1.2089923999737948,,,,,,,5,22,female,up_down_width,2023_Aug_14_1622,exp1,2021.2.3,59.99822406698353,
,,,,,,,,,,,,,,,,4,9.3,9.766666666666667,10.233333333333333,10.7,0,0.4666666666666667,0.21666666666666665,0.25,1.65,10,match,36.05,335,352,369,386,0,9,9,9,9,0,,,,,2,0,2,0,0,27,27,9,,,,,num_4,0.8324029000941664,num_4,0.45,0.7,0.20000000000000007,0.4,7.20859,14.41717,return,2.402213599998504,,,,,,,5,22,female,up_down_width,2023_Aug_14_1622,exp1,2021.2.3,59.99822406698353,
,,,,,,,,,,,,,,,,4,9.3,9.766666666666667,10.233333333333333,10.7,0,0.4666666666666667,0.3666666666666667,0.1,1.5,10,match,36.05,335,352,369,386,0,9,9,9,9,0,,,,,2,0,2,0,0,28,28,7,,,,,num_4,0.869410099927336,num_4,0.25,0.8,0.10000000000000002,0.4,3.60429,14.41717,return,2.6732858999166638,,,,,,,5,22,female,up_down_width,2023_Aug_14_1622,exp1,2021.2.3,59.99822406698353,
,,,,,,,,,,,,,,,,5,9.175,9.5875,10,10.4125,10.825,0.4125,0.16249999999999998,0.25,1.9,10,match,36.05,331,346,361,375,390,9,9,9,9,9,,,,,2,0,2,0,0,29,29,23,,,,,num_5,1.0047106000129133,num_5,0.25,0.9,0.2,0.45,7.20859,16.21932,return,3.7813138000201434,,,,,,,5,22,female,up_down_width,2023_Aug_14_1622,exp1,2021.2.3,59.99822406698353,
,,,,,,,,,,,,,,,,3,8.2,10,11.8,0,0,1.8000000000000003,1.7000000000000002,0.1,3.7,10,match,36.05,296,361,425,0,0,9,9,9,0,0,,,,,2,0,2,0,0,30,30,49,,,,,num_3,0.8726962998043746,num_3,0.15,1,0.09999999999999999,1.6,3.60429,57.66869,return,3.316715900087729,,,,,,,5,22,female,up_down_width,2023_Aug_14_1622,exp1,2021.2.3,59.99822406698353,
,,,,,,,,,,,,,,,,5,8.2,9.1,10,10.9,11.8,0.9,0.65,0.25,3.85,10,initial,36.05,296,328,361,393,425,9,9,9,9,9,,,,,2,0,2,0,0,31,31,50,,,,,num_4,1.040230300044641,num_4,0.25,1.3,0.3,1.2,10.81288,43.25151,return,2.2004670999012887,,,,,,,5,22,female,up_down_width,2023_Aug_14_1622,exp1,2021.2.3,59.99822406698353,
,,,,,,,,,,,,,,,,5,8.95,9.475,10,10.525,11.05,0.525,0.125,0.4,2.5,10,match,36.05,323,342,361,379,398,9,9,9,9,9,,,,,2,0,2,0,0,32,32,29,,,,,num_5,1.2147733999881893,num_5,0.15,1.0,0.44999999999999996,0.75,16.21932,27.0322,return,3.252070200163871,,,,,,,5,22,female,up_down_width,2023_Aug_14_1622,exp1,2021.2.3,59.99822406698353,
,,,,,,,,,,,,,,,,5,8.2,9.1,10,10.9,11.8,0.9,0.8,0.1,3.7,10,initial,36.05,296,328,361,393,425,9,9,9,9,9,,,,,2,0,2,0,0,33,33,48,,,,,num_5,0.6896911999210715,num_5,0.45,1.0,0.10000000000000007,1.0,3.60429,36.04293,return,2.8854923001490533,,,,,,,5,22,female,up_down_width,2023_Aug_14_1622,exp1,2021.2.3,59.99822406698353,
,,,,,,,,,,,,,,,,5,9.25,9.625,10,10.375,10.75,0.375,0.125,0.25,1.75,10,match,36.05,333,347,361,374,388,9,9,9,9,9,,,,,2,0,2,0,0,34,34,21,,,,,num_4,0.9428061000071466,num_4,0.3,0.9,0.39999999999999997,0.6,14.41717,21.62576,return,2.598885599989444,,,,,,,5,22,female,up_down_width,2023_Aug_14_1622,exp1,2021.2.3,59.99822406698353,
,,,,,,,,,,,,,,,,5,9,9.5,10,10.5,11,0.5,0.09999999999999998,0.4,2.4,10,initial,36.05,324,342,361,379,397,9,9,9,9,9,,,,,2,0,2,0,0,35,35,40,,,,,num_5,0.8886257000267506,num_5,0.25,1.1,0.3,0.45,10.81288,16.21932,return,5.715342200128362,,,,,,,5,22,female,up_down_width,2023_Aug_14_1622,exp1,2021.2.3,59.99822406698353,
,,,,,,,,,,,,,,,,3,9.1,10,10.9,0,0,0.9,0.8,0.1,1.9000000000000001,10,initial,36.05,328,361,393,0,0,9,9,9,0,0,,,,,2,0,2,0,0,36,36,12,,,,,num_3,0.8018492998089641,num_3,0.3,0.5,0.10000000000000002,1.3,3.60429,46.85581,return,5.5279922999907285,,,,,,,5,22,female,up_down_width,2023_Aug_14_1622,exp1,2021.2.3,59.99822406698353,
,,,,,,,,,,,,,,,,4,9.1,9.7,10.3,10.9,0,0.6000000000000001,0.20000000000000004,0.4,2.2,10,match,36.05,328,350,371,393,0,9,9,9,9,0,,,,,2,0,2,0,0,37,37,17,,,,,num_3,0.8763198999222368,num_3,0.35,0.7,0.39999999999999997,0.85,14.41717,30.63649,return,2.177000100025907,,,,,,,5,22,female,up_down_width,2023_Aug_14_1622,exp1,2021.2.3,59.99822406698353,
,,,,,,,,,,,,,,,,3,8.6,10,11.4,0,0,1.4,1.2999999999999998,0.1,2.9,10,match,36.05,310,361,411,0,0,9,9,9,0,0,,,,,2,0,2,0,0,38,38,43,,,,,num_3,0.7307330998592079,num_3,0.25,1,0.15000000000000002,1.1,5.40644,39.64722,return,1.8510383998509496,,,,,,,5,22,female,up_down_width,2023_Aug_14_1622,exp1,2021.2.3,59.99822406698353,
,,,,,,,,,,,,,,,,3,9,10,11,0,0,0.9999999999999999,0.5999999999999999,0.4,2.4,10,match,36.05,324,361,397,0,0,9,9,9,0,0,,,,,2,0,2,0,0,39,39,41,,,,,num_3,0.7868565998505801,num_3,0.15,0.7,0.39999999999999997,1.05,14.41717,37.84507,return,2.474990100134164,,,,,,,5,22,female,up_down_width,2023_Aug_14_1622,exp1,2021.2.3,59.99822406698353,
,,,,,,,,,,,,,,,,5,8.65,9.325,10,10.675,11.35,0.675,0.42500000000000004,0.25,2.95,10,match,36.05,312,336,361,385,409,9,9,9,9,9,,,,,2,0,2,0,0,40,40,33,,,,,num_4,0.8130244000349194,num_4,0.4,1.3,0.20000000000000007,0.9,7.20859,32.43864,return,3.4843518000561744,,,,,,,5,22,female,up_down_width,2023_Aug_14_1622,exp1,2021.2.3,59.99822406698353,
,,,,,,,,,,,,,,,,5,8.95,9.475,10,10.525,11.05,0.525,0.275,0.25,2.35,10,match,36.05,323,342,361,379,398,9,9,9,9,9,,,,,2,0,2,0,0,41,41,27,,,,,num_5,0.8003366000484675,num_5,0.45,0.7,0.15000000000000008,0.65,5.40644,23.4279,return,2.7819097999017686,,,,,,,5,22,female,up_down_width,2023_Aug_14_1622,exp1,2021.2.3,59.99822406698353,
,,,,,,,,,,,,,,,,4,9.1,9.7,10.3,10.9,0,0.6,0.5,0.1,1.9,10,match,36.05,328,350,371,393,0,9,9,9,9,0,,,,,2,0,2,0,0,42,42,13,,,,,num_4,0.9354185000993311,num_4,0.45,0.5,0.10000000000000007,0.5,3.60429,18.02146,return,2.1863454999402165,,,,,,,5,22,female,up_down_width,2023_Aug_14_1622,exp1,2021.2.3,59.99822406698353,
,,,,,,,,,,,,,,,,4,9.5,9.833333333333334,10.166666666666666,10.5,0,0.3333333333333333,0.08333333333333333,0.25,1.25,10,match,36.05,342,354,367,379,0,9,9,9,9,0,,,,,2,0,2,0,0,43,43,3,,,,,num_4,0.800806200131774,num_4,0.1,0.3,0.3,0.6,10.81288,21.62576,return,3.326280100038275,,,,,,,5,22,female,up_down_width,2023_Aug_14_1622,exp1,2021.2.3,59.99822406698353,
,,,,,,,,,,,,,,,,5,8.2,9.1,10,10.9,11.8,0.9,0.5,0.4,4,10,initial,36.05,296,328,361,393,425,9,9,9,9,9,,,,,2,0,2,0,0,44,44,52,,,,,num_4,0.9324884999077767,num_4,0.45,1.1,0.35000000000000003,0.7,12.61502,25.23005,return,3.901520899962634,,,,,,,5,22,female,up_down_width,2023_Aug_14_1622,exp1,2021.2.3,59.99822406698353,
,,,,,,,,,,,,,,,,5,9.25,9.625,10,10.375,10.75,0.375,0.275,0.1,1.6,10,match,36.05,333,347,361,374,388,9,9,9,9,9,,,,,2,0,2,0,0,45,45,19,,,,,num_4,0.8038680001627654,num_4,0.3,1.2,0.2,0.5,7.20859,18.02146,return,2.5618324000388384,,,,,,,5,22,female,up_down_width,2023_Aug_14_1622,exp1,2021.2.3,59.99822406698353,
,,,,,,,,,,,,,,,,4,8.95,9.65,10.35,11.05,0,0.7,0.29999999999999993,0.4,2.5,10,initial,36.05,323,348,373,398,0,9,9,9,9,0,,,,,2,0,2,0,0,46,46,28,,,,,num_5,0.9413106001447886,num_5,0.3,0.4,0.2,0.5,7.20859,18.02146,return,2.7848914999049157,,,,,,,5,22,female,up_down_width,2023_Aug_14_1622,exp1,2021.2.3,59.99822406698353,
,,,,,,,,,,,,,,,,3,9.1,10,10.9,0,0,0.9,0.65,0.25,2.05,10,initial,36.05,328,361,393,0,0,9,9,9,0,0,,,,,2,0,2,0,0,47,47,14,,,,,num_4,1.970952299889177,num_4,0.1,0.4,0.15000000000000002,0.6,5.40644,21.62576,return,2.2249655998311937,,,,,,,5,22,female,up_down_width,2023_Aug_14_1622,exp1,2021.2.3,59.99822406698353,
,,,,,,,,,,,,,,,,4,9.25,9.75,10.25,10.75,0,0.5,0.4,0.1,1.6,10,initial,36.05,333,351,370,388,0,9,9,9,9,0,,,,,2,0,2,0,0,48,48,18,,,,,num_4,0.8833199001383036,num_4,0.25,0.9,0.15000000000000002,0.6,5.40644,21.62576,return,1.9843477001413703,,,,,,,5,22,female,up_down_width,2023_Aug_14_1622,exp1,2021.2.3,59.99822406698353,
,,,,,,,,,,,,,,,,3,9.3,10,10.7,0,0,0.7,0.29999999999999993,0.4,1.8,10,initial,36.05,335,361,386,0,0,9,9,9,0,0,,,,,2,0,2,0,0,49,49,10,,,,,num_3,0.800721799954772,num_3,0.15,1.3,0.3,0.85,10.81288,30.63649,return,4.3516527998726815,,,,,,,5,22,female,up_down_width,2023_Aug_14_1622,exp1,2021.2.3,59.99822406698353,
,,,,,,,,,,,,,,,,3,9.5,10,10.5,0,0,0.5,0.25,0.25,1.25,10,initial,36.05,342,361,379,0,0,9,9,9,0,0,,,,,2,0,2,0,0,50,50,2,,,,,num_3,0.7709677000530064,num_3,0.3,0.7,0.25,0.55,9.01073,19.82361,return,2.6902884000446647,,,,,,,5,22,female,up_down_width,2023_Aug_14_1622,exp1,2021.2.3,59.99822406698353,
,,,,,,,,,,,,,,,,5,9,9.5,10,10.5,11,0.5,0.25,0.25,2.25,10,initial,36.05,324,342,361,379,397,9,9,9,9,9,,,,,2,0,2,0,0,51,51,38,,,,,num_5,1.0320192000363022,num_5,0.3,0.6,0.2,0.4,7.20859,14.41717,return,1.8808644998352975,,,,,,,5,22,female,up_down_width,2023_Aug_14_1622,exp1,2021.2.3,59.99822406698353,
,,,,,,,,,,,,,,,,4,8.65,9.55,10.45,11.35,0,0.9,0.5,0.4,3.1,10,initial,36.05,312,344,377,409,0,9,9,9,9,0,,,,,2,0,2,0,0,52,52,34,,,,,num_4,0.8441906000953168,num_4,0.15,0.6,0.35,0.6,12.61502,21.62576,return,1.8937518000602722,,,,,,,5,22,female,up_down_width,2023_Aug_14_1622,exp1,2021.2.3,59.99822406698353,
,,,,,,,,,,,,,,,,4,9.25,9.75,10.25,10.75,0,0.5,0.25,0.25,1.75,10,initial,36.05,333,351,370,388,0,9,9,9,9,0,,,,,2,0,2,0,0,53,53,20,,,,,num_4,0.6854727999307215,num_4,0.15,1.2,0.3,0.5,10.81288,18.02146,return,4.719029899919406,,,,,,,5,22,female,up_down_width,2023_Aug_14_1622,exp1,2021.2.3,59.99822406698353,
,,,,,,,,,,,,,,,,,,,,,,,,,,,,,,,,,,,,,,,,,,,2,0,2,0,,,,,,,,,,,,,,,,,,,,,,1344.2732661999762,None,1344.2732661999762,None,5,22,female,up_down_width,2023_Aug_14_1622,exp1,2021.2.3,59.99822406698353,
,,,,,,,,,,,,,,,,5,8.2,9.1,10,10.9,11.8,0.9,0.65,0.25,3.85,10,initial,36.05,296,328,361,393,425,9,9,9,9,9,,,,,3,0,3,0,0,0,0,50,,,,,num_4,1.6299664000980556,num_4,0.1,0.4,0.2,0.5,7.20859,18.02146,return,3.3128648998681456,,,,,,,5,22,female,up_down_width,2023_Aug_14_1622,exp1,2021.2.3,59.99822406698353,
,,,,,,,,,,,,,,,,4,9.25,9.75,10.25,10.75,0,0.5,0.09999999999999998,0.4,1.9,10,initial,36.05,333,351,370,388,0,9,9,9,9,0,,,,,3,0,3,0,0,1,1,22,,,,,num_4,0.7360751999076456,num_4,0.35,0.6,0.35,0.5,12.61502,18.02146,return,1.5690390998497605,,,,,,,5,22,female,up_down_width,2023_Aug_14_1622,exp1,2021.2.3,59.99822406698353,
,,,,,,,,,,,,,,,,4,9.25,9.75,10.25,10.75,0,0.5,0.4,0.1,1.6,10,initial,36.05,333,351,370,388,0,9,9,9,9,0,,,,,3,0,3,0,0,2,2,18,,,,,num_4,0.7450083000585437,num_4,0.15,0.9,0.15,0.6,5.40644,21.62576,return,3.470230899984017,,,,,,,5,22,female,up_down_width,2023_Aug_14_1622,exp1,2021.2.3,59.99822406698353,
,,,,,,,,,,,,,,,,4,9.3,9.766666666666667,10.233333333333333,10.7,0,0.4666666666666667,0.3666666666666667,0.1,1.5,10,match,36.05,335,352,369,386,0,9,9,9,9,0,,,,,3,0,3,0,0,3,3,7,,,,,num_3,1.106833300087601,num_3,0.2,0.4,0.15000000000000002,0.55,5.40644,19.82361,return,3.2688325999770314,,,,,,,5,22,female,up_down_width,2023_Aug_14_1622,exp1,2021.2.3,59.99822406698353,
,,,,,,,,,,,,,,,,3,9.5,10,10.5,0,0,0.5,0.25,0.25,1.25,10,initial,36.05,342,361,379,0,0,9,9,9,0,0,,,,,3,0,3,0,0,4,4,2,,,,,num_3,1.675220200093463,num_3,0.3,0.8,0.35,0.55,12.61502,19.82361,return,2.5826675000134856,,,,,,,5,22,female,up_down_width,2023_Aug_14_1622,exp1,2021.2.3,59.99822406698353,
,,,,,,,,,,,,,,,,4,9.3,9.766666666666667,10.233333333333333,10.7,0,0.4666666666666667,0.06666666666666665,0.4,1.8,10,match,36.05,335,352,369,386,0,9,9,9,9,0,,,,,3,0,3,0,0,5,5,11,,,,,num_4,0.7647496999707073,num_4,0.35,1.2,0.3,0.4,10.81288,14.41717,return,3.5801140000112355,,,,,,,5,22,female,up_down_width,2023_Aug_14_1622,exp1,2021.2.3,59.99822406698353,
,,,,,,,,,,,,,,,,5,9,9.5,10,10.5,11,0.5,0.09999999999999998,0.4,2.4,10,initial,36.05,324,342,361,379,397,9,9,9,9,9,,,,,3,0,3,0,0,6,6,40,,,,,num_5,0.8628546998370439,num_5,0.1,0.7,0.39999999999999997,0.5,14.41717,18.02146,return,5.020035400055349,,,,,,,5,22,female,up_down_width,2023_Aug_14_1622,exp1,2021.2.3,59.99822406698353,
,,,,,,,,,,,,,,,,3,8.2,10,11.8,0,0,1.8000000000000003,1.7000000000000002,0.1,3.7,10,match,36.05,296,361,425,0,0,9,9,9,0,0,,,,,3,0,3,0,0,7,7,49,,,,,num_3,0.7457932000979781,num_3,0.45,1.1,0.10000000000000007,1.4,3.60429,50.4601,return,4.620573200052604,,,,,,,5,22,female,up_down_width,2023_Aug_14_1622,exp1,2021.2.3,59.99822406698353,
,,,,,,,,,,,,,,,,3,8.6,10,11.4,0,0,1.4,1.2999999999999998,0.1,2.9,10,match,36.05,310,361,411,0,0,9,9,9,0,0,,,,,3,0,3,0,0,8,8,43,,,,,num_3,0.9950937000103295,num_3,0.2,0.5,0.05000000000000002,1.3,1.80215,46.85581,return,5.481212800135836,,,,,,,5,22,female,up_down_width,2023_Aug_14_1622,exp1,2021.2.3,59.99822406698353,
,,,,,,,,,,,,,,,,3,9.3,10,10.7,0,0,0.7,0.29999999999999993,0.4,1.8,10,initial,36.05,335,361,386,0,0,9,9,9,0,0,,,,,3,0,3,0,0,9,9,10,,,,,num_3,0.7115140999667346,num_3,0.2,1,0.5499999999999999,1,19.82361,36.04293,return,2.3240348000545055,,,,,,,5,22,female,up_down_width,2023_Aug_14_1622,exp1,2021.2.3,59.99822406698353,
,,,,,,,,,,,,,,,,5,8.95,9.475,10,10.525,11.05,0.525,0.275,0.25,2.35,10,match,36.05,323,342,361,379,398,9,9,9,9,9,,,,,3,0,3,0,0,10,10,27,,,,,num_4,0.8355499999597669,num_4,0.3,1.3,0.2,0.8,7.20859,28.83434,return,2.0144272001925856,,,,,,,5,22,female,up_down_width,2023_Aug_14_1622,exp1,2021.2.3,59.99822406698353,
,,,,,,,,,,,,,,,,3,9.3,10,10.7,0,0,0.7,0.6,0.1,1.5,10,initial,36.05,335,361,386,0,0,9,9,9,0,0,,,,,3,0,3,0,0,11,11,6,,,,,num_3,0.776069600135088,num_3,0.25,1.2,0.15000000000000002,1.0,5.40644,36.04293,return,1.932352000148967,,,,,,,5,22,female,up_down_width,2023_Aug_14_1622,exp1,2021.2.3,59.99822406698353,
,,,,,,,,,,,,,,,,4,8.65,9.55,10.45,11.35,0,0.9,0.8,0.1,2.8000000000000003,10,initial,36.05,312,344,377,409,0,9,9,9,9,0,,,,,3,0,3,0,0,12,12,30,,,,,num_4,0.7872274999972433,num_4,0.2,0.8,0.10000000000000002,0.7,3.60429,25.23005,return,1.4895438998937607,,,,,,,5,22,female,up_down_width,2023_Aug_14_1622,exp1,2021.2.3,59.99822406698353,
,,,,,,,,,,,,,,,,3,9,10,11,0,0,0.9999999999999999,0.5999999999999999,0.4,2.4,10,match,36.05,324,361,397,0,0,9,9,9,0,0,,,,,3,0,3,0,0,13,13,41,,,,,num_3,0.7753039000090212,num_3,0.25,1.3,0.49999999999999994,1.3,18.02146,46.85581,return,1.418280699988827,,,,,,,5,22,female,up_down_width,2023_Aug_14_1622,exp1,2021.2.3,59.99822406698353,
,,,,,,,,,,,,,,,,4,9.1,9.7,10.3,10.9,0,0.6000000000000001,0.20000000000000004,0.4,2.2,10,match,36.05,328,350,371,393,0,9,9,9,9,0,,,,,3,0,3,0,0,14,14,17,,,,,num_4,1.1434082000050694,num_4,0.3,0.8,0.35,0.7,12.61502,25.23005,return,2.5680530997924507,,,,,,,5,22,female,up_down_width,2023_Aug_14_1622,exp1,2021.2.3,59.99822406698353,
,,,,,,,,,,,,,,,,5,8.2,9.1,10,10.9,11.8,0.9,0.8,0.1,3.7,10,initial,36.05,296,328,361,393,425,9,9,9,9,9,,,,,3,0,3,0,0,15,15,48,,,,,num_5,1.3645103999879211,num_5,0.3,1.2,0.05000000000000002,0.9,1.80215,32.43864,return,3.153239300008863,,,,,,,5,22,female,up_down_width,2023_Aug_14_1622,exp1,2021.2.3,59.99822406698353,
,,,,,,,,,,,,,,,,5,8.95,9.475,10,10.525,11.05,0.525,0.125,0.4,2.5,10,match,36.05,323,342,361,379,398,9,9,9,9,9,,,,,3,0,3,0,0,16,16,29,,,,,num_5,0.7857804999221116,num_5,0.35,1.0,0.35,0.65,12.61502,23.4279,return,2.120854099979624,,,,,,,5,22,female,up_down_width,2023_Aug_14_1622,exp1,2021.2.3,59.99822406698353,
,,,,,,,,,,,,,,,,5,9,9.5,10,10.5,11,0.5,0.25,0.25,2.25,10,initial,36.05,324,342,361,379,397,9,9,9,9,9,,,,,3,0,3,0,0,17,17,38,,,,,num_6,0.9732082998380065,num_6,0.4,1.1,0.30000000000000004,0.5,10.81288,18.02146,return,3.5409045999404043,,,,,,,5,22,female,up_down_width,2023_Aug_14_1622,exp1,2021.2.3,59.99822406698353,
,,,,,,,,,,,,,,,,3,8.2,10,11.8,0,0,1.8,1.55,0.25,3.85,10,match,36.05,296,361,425,0,0,9,9,9,0,0,,,,,3,0,3,0,0,18,18,51,,,,,num_3,0.8580932000186294,num_3,0.2,0.4,0.2,1.4,7.20859,50.4601,return,5.01489120000042,,,,,,,5,22,female,up_down_width,2023_Aug_14_1622,exp1,2021.2.3,59.99822406698353,
,,,,,,,,,,,,,,,,5,9.175,9.5875,10,10.4125,10.825,0.4125,0.16249999999999998,0.25,1.9,10,match,36.05,331,346,361,375,390,9,9,9,9,9,,,,,3,0,3,0,0,19,19,23,,,,,num_4,0.8790269999299198,num_4,0.45,0.8,0.30000000000000004,0.5,10.81288,18.02146,return,1.7831969000399113,,,,,,,5,22,female,up_down_width,2023_Aug_14_1622,exp1,2021.2.3,59.99822406698353,
,,,,,,,,,,,,,,,,4,9.1,9.7,10.3,10.9,0,0.5999999999999999,0.3499999999999999,0.25,2.05,10,match,36.05,328,350,371,393,0,9,9,9,9,0,,,,,3,0,3,0,0,20,20,15,,,,,num_5,0.8288612000178546,num_5,0.25,0.7,0.2,0.65,7.20859,23.4279,return,2.2680873000063,,,,,,,5,22,female,up_down_width,2023_Aug_14_1622,exp1,2021.2.3,59.99822406698353,
,,,,,,,,,,,,,,,,3,9.1,10,10.9,0,0,0.9,0.65,0.25,2.05,10,initial,36.05,328,361,393,0,0,9,9,9,0,0,,,,,3,0,3,0,0,21,21,14,,,,,num_3,0.8188199999276549,num_3,0.4,1.1,0.25000000000000006,0.85,9.01073,30.63649,return,3.292744099861011,,,,,,,5,22,female,up_down_width,2023_Aug_14_1622,exp1,2021.2.3,59.99822406698353,
,,,,,,,,,,,,,,,,3,9.5,10,10.5,0,0,0.5,0.4,0.1,1.1,10,initial,36.05,342,361,379,0,0,9,9,9,0,0,,,,,3,0,3,0,0,22,22,0,,,,,num_3,0.9419296998530626,num_3,0.1,1.3,0.1,0.5,3.60429,18.02146,return,4.570138700073585,,,,,,,5,22,female,up_down_width,2023_Aug_14_1622,exp1,2021.2.3,59.99822406698353,
,,,,,,,,,,,,,,,,4,9.3,9.766666666666667,10.233333333333333,10.7,0,0.4666666666666667,0.21666666666666665,0.25,1.65,10,match,36.05,335,352,369,386,0,9,9,9,9,0,,,,,3,0,3,0,0,23,23,9,,,,,num_3,0.8075083000585437,num_3,0.35,0.9,0.25,0.7,9.01073,25.23005,return,2.1485290999989957,,,,,,,5,22,female,up_down_width,2023_Aug_14_1622,exp1,2021.2.3,59.99822406698353,
,,,,,,,,,,,,,,,,3,8.2,10,11.8,0,0,1.7999999999999998,1.4,0.4,4,10,match,36.05,296,361,425,0,0,9,9,9,0,0,,,,,3,0,3,0,0,24,24,53,,,,,num_3,0.8980933998245746,num_3,0.2,0.8,0.35,1.05,12.61502,37.84507,return,5.337042800150812,,,,,,,5,22,female,up_down_width,2023_Aug_14_1622,exp1,2021.2.3,59.99822406698353,
,,,,,,,,,,,,,,,,4,8.95,9.65,10.35,11.05,0,0.7,0.29999999999999993,0.4,2.5,10,initial,36.05,323,348,373,398,0,9,9,9,9,0,,,,,3,0,3,0,0,25,25,28,,,,,num_3,1.233360999962315,num_3,0.15,0.7,0.3,0.85,10.81288,30.63649,return,2.0470904000103474,,,,,,,5,22,female,up_down_width,2023_Aug_14_1622,exp1,2021.2.3,59.99822406698353,
,,,,,,,,,,,,,,,,4,9.5,9.833333333333334,10.166666666666666,10.5,0,0.3333333333333333,0.08333333333333333,0.25,1.25,10,match,36.05,342,354,367,379,0,9,9,9,9,0,,,,,3,0,3,0,0,26,26,3,,,,,num_4,0.9229007000103593,num_4,0.1,0.4,0.2,0.4,7.20859,14.41717,return,3.6997193000279367,,,,,,,5,22,female,up_down_width,2023_Aug_14_1622,exp1,2021.2.3,59.99822406698353,
,,,,,,,,,,,,,,,,5,8.65,9.325,10,10.675,11.35,0.675,0.275,0.4,3.1,10,match,36.05,312,336,361,385,409,9,9,9,9,9,,,,,3,0,3,0,0,27,27,35,,,,,num_4,0.8569753000047058,num_4,0.35,0.9,0.39999999999999997,0.7,14.41717,25.23005,return,2.111427800031379,,,,,,,5,22,female,up_down_width,2023_Aug_14_1622,exp1,2021.2.3,59.99822406698353,
,,,,,,,,,,,,,,,,4,8.95,9.65,10.35,11.05,0,0.7,0.44999999999999996,0.25,2.3499999999999996,10,initial,36.05,323,348,373,398,0,9,9,9,9,0,,,,,3,0,3,0,0,28,28,26,,,,,num_5,0.7827077999245375,num_5,0.35,1.1,0.25,0.75,9.01073,27.0322,return,2.492964600212872,,,,,,,5,22,female,up_down_width,2023_Aug_14_1622,exp1,2021.2.3,59.99822406698353,
,,,,,,,,,,,,,,,,5,8.95,9.475,10,10.525,11.05,0.525,0.42500000000000004,0.1,2.2,10,match,36.05,323,342,361,379,398,9,9,9,9,9,,,,,3,0,3,0,0,29,29,25,,,,,num_5,1.2459984999150038,num_5,0.15,1.0,0.09999999999999999,0.55,3.60429,19.82361,return,3.5480023000855,,,,,,,5,22,female,up_down_width,2023_Aug_14_1622,exp1,2021.2.3,59.99822406698353,
,,,,,,,,,,,,,,,,5,9.25,9.625,10,10.375,10.75,0.375,0.275,0.1,1.6,10,match,36.05,333,347,361,374,388,9,9,9,9,9,,,,,3,0,3,0,0,30,30,19,,,,,num_5,1.0011809000279754,num_5,0.25,1.3,0.10000000000000002,0.6,3.60429,21.62576,return,5.209677000064403,,,,,,,5,22,female,up_down_width,2023_Aug_14_1622,exp1,2021.2.3,59.99822406698353,
,,,,,,,,,,,,,,,,3,9.3,10,10.7,0,0,0.7,0.44999999999999996,0.25,1.65,10,initial,36.05,335,361,386,0,0,9,9,9,0,0,,,,,3,0,3,0,0,31,31,8,,,,,num_3,0.7270784000866115,num_3,0.3,1.1,0.25,0.95,9.01073,34.24078,return,4.04835609998554,,,,,,,5,22,female,up_down_width,2023_Aug_14_1622,exp1,2021.2.3,59.99822406698353,
,,,,,,,,,,,,,,,,4,9.1,9.7,10.3,10.9,0,0.6,0.5,0.1,1.9,10,match,36.05,328,350,371,393,0,9,9,9,9,0,,,,,3,0,3,0,0,32,32,13,,,,,num_4,0.8641401999630034,num_4,0.2,1.2,0.10000000000000002,0.7,3.60429,25.23005,return,2.6531881999690086,,,,,,,5,22,female,up_down_width,2023_Aug_14_1622,exp1,2021.2.3,59.99822406698353,
,,,,,,,,,,,,,,,,5,8.6,9.3,10,10.7,11.4,0.7,0.6,0.1,2.9,10,initial,36.05,310,335,361,386,411,9,9,9,9,9,,,,,3,0,3,0,0,33,33,42,,,,,num_5,0.76154619990848,num_5,0.45,0.8,0.10000000000000007,0.6,3.60429,21.62576,return,3.3551900000311434,,,,,,,5,22,female,up_down_width,2023_Aug_14_1622,exp1,2021.2.3,59.99822406698353,
,,,,,,,,,,,,,,,,4,9.5,9.833333333333334,10.166666666666666,10.5,0,0.33333333333333337,0.23333333333333336,0.1,1.1,10,match,36.05,342,354,367,379,0,9,9,9,9,0,,,,,3,0,3,0,0,34,34,1,,,,,num_4,0.8066567999776453,num_4,0.4,1.1,0.10000000000000007,0.6,3.60429,21.62576,return,2.581564800115302,,,,,,,5,22,female,up_down_width,2023_Aug_14_1622,exp1,2021.2.3,59.99822406698353,
,,,,,,,,,,,,,,,,4,9.425,9.808333333333334,10.191666666666666,10.575,0,0.3833333333333333,0.1333333333333333,0.25,1.4,10,match,36.05,340,354,367,381,0,9,9,9,9,0,,,,,3,0,3,0,0,35,35,5,,,,,num_4,0.7662049001082778,num_4,0.35,1.1,0.3,0.5,10.81288,18.02146,return,6.190080400090665,,,,,,,5,22,female,up_down_width,2023_Aug_14_1622,exp1,2021.2.3,59.99822406698353,
,,,,,,,,,,,,,,,,5,8.6,9.3,10,10.7,11.4,0.7,0.44999999999999996,0.25,3.05,10,initial,36.05,310,335,361,386,411,9,9,9,9,9,,,,,3,0,3,0,0,36,36,44,,,,,num_4,0.782221500063315,num_4,0.45,0.9,0.20000000000000007,0.7,7.20859,25.23005,return,3.720022900030017,,,,,,,5,22,female,up_down_width,2023_Aug_14_1622,exp1,2021.2.3,59.99822406698353,
,,,,,,,,,,,,,,,,3,9.5,10,10.5,0,0,0.5,0.09999999999999998,0.4,1.4000000000000001,10,initial,36.05,342,361,379,0,0,9,9,9,0,0,,,,,3,0,3,0,0,37,37,4,,,,,num_3,0.8588305001612753,num_3,0.1,0.9,0.39999999999999997,0.55,14.41717,19.82361,return,6.358222900191322,,,,,,,5,22,female,up_down_width,2023_Aug_14_1622,exp1,2021.2.3,59.99822406698353,
,,,,,,,,,,,,,,,,3,8.525,10,11.475,0,0,1.475,1.225,0.25,3.2,10,match,36.05,307,361,414,0,0,9,9,9,0,0,,,,,3,0,3,0,0,38,38,47,,,,,num_3,0.7451025999616832,num_3,0.4,0.6,0.30000000000000004,1.2,10.81288,43.25151,return,5.885634100064635,,,,,,,5,22,female,up_down_width,2023_Aug_14_1622,exp1,2021.2.3,59.99822406698353,
,,,,,,,,,,,,,,,,5,8.65,9.325,10,10.675,11.35,0.675,0.42500000000000004,0.25,2.95,10,match,36.05,312,336,361,385,409,9,9,9,9,9,,,,,3,0,3,0,0,39,39,33,,,,,num_4,0.8658370999619365,num_4,0.45,0.5,0.15000000000000008,0.9,5.40644,32.43864,return,2.607020099880174,,,,,,,5,22,female,up_down_width,2023_Aug_14_1622,exp1,2021.2.3,59.99822406698353,
,,,,,,,,,,,,,,,,4,8.65,9.55,10.45,11.35,0,0.9,0.65,0.25,2.95,10,initial,36.05,312,344,377,409,0,9,9,9,9,0,,,,,3,0,3,0,0,40,40,32,,,,,num_4,0.8444856000132859,num_4,0.3,0.3,0.15000000000000002,0.5,5.40644,18.02146,return,3.5461347999516875,,,,,,,5,22,female,up_down_width,2023_Aug_14_1622,exp1,2021.2.3,59.99822406698353,
,,,,,,,,,,,,,,,,3,9,10,11,0,0,1,0.9,0.1,2.1,10,match,36.05,324,361,397,0,0,9,9,9,0,0,,,,,3,0,3,0,0,41,41,37,,,,,num_3,0.8948164999019355,num_3,0.15,0.7,0.09999999999999999,0.95,3.60429,34.24078,return,2.0889566000550985,,,,,,,5,22,female,up_down_width,2023_Aug_14_1622,exp1,2021.2.3,59.99822406698353,
,,,,,,,,,,,,,,,,3,9,10,11,0,0,1,0.75,0.25,2.25,10,match,36.05,324,361,397,0,0,9,9,9,0,0,,,,,3,0,3,0,0,42,42,39,,,,,num_3,0.7825804001186043,num_3,0.25,0.4,0.15000000000000002,0.85,5.40644,30.63649,return,3.438289000187069,,,,,,,5,22,female,up_down_width,2023_Aug_14_1622,exp1,2021.2.3,59.99822406698353,
,,,,,,,,,,,,,,,,4,9.25,9.75,10.25,10.75,0,0.5,0.25,0.25,1.75,10,initial,36.05,333,351,370,388,0,9,9,9,9,0,,,,,3,0,3,0,0,43,43,20,,,,,num_4,0.9493474001064897,num_4,0.25,1.0,0.15000000000000002,0.7,5.40644,25.23005,return,3.3261473001912236,,,,,,,5,22,female,up_down_width,2023_Aug_14_1622,exp1,2021.2.3,59.99822406698353,
,,,,,,,,,,,,,,,,5,9,9.5,10,10.5,11,0.5,0.4,0.1,2.1,10,initial,36.05,324,342,361,379,397,9,9,9,9,9,,,,,3,0,3,0,0,44,44,36,,,,,num_6,1.1961638000793755,num_6,0.35,0.4,0.10000000000000002,0.5,3.60429,18.02146,return,3.1961052000988275,,,,,,,5,22,female,up_down_width,2023_Aug_14_1622,exp1,2021.2.3,59.99822406698353,
,,,,,,,,,,,,,,,,3,8.6,10,11.4,0,0,1.4,1.15,0.25,3.05,10,match,36.05,310,361,411,0,0,9,9,9,0,0,,,,,3,0,3,0,0,45,45,45,,,,,num_3,0.8303452001418918,num_3,0.15,1.3,0.2,1.35,7.20859,48.65795,return,2.4920264000538737,,,,,,,5,22,female,up_down_width,2023_Aug_14_1622,exp1,2021.2.3,59.99822406698353,
,,,,,,,,,,,,,,,,3,9.1,10,10.9,0,0,0.9,0.8,0.1,1.9000000000000001,10,initial,36.05,328,361,393,0,0,9,9,9,0,0,,,,,3,0,3,0,0,46,46,12,,,,,num_3,0.8366765999235213,num_3,0.1,0.9,0.05,1.2,1.80215,43.25151,return,3.0898769998457283,,,,,,,5,22,female,up_down_width,2023_Aug_14_1622,exp1,2021.2.3,59.99822406698353,
,,,,,,,,,,,,,,,,5,8.2,9.1,10,10.9,11.8,0.9,0.5,0.4,4,10,initial,36.05,296,328,361,393,425,9,9,9,9,9,,,,,3,0,3,0,0,47,47,52,,,,,num_5,0.7986757999751717,num_5,0.25,0.6,0.35,1.05,12.61502,37.84507,return,2.896805100142956,,,,,,,5,22,female,up_down_width,2023_Aug_14_1622,exp1,2021.2.3,59.99822406698353,
,,,,,,,,,,,,,,,,5,9.25,9.625,10,10.375,10.75,0.375,0.125,0.25,1.75,10,match,36.05,333,347,361,374,388,9,9,9,9,9,,,,,3,0,3,0,0,48,48,21,,,,,num_4,0.790658799931407,num_4,0.3,0.9,0.3,0.6,10.81288,21.62576,return,1.5721324000041932,,,,,,,5,22,female,up_down_width,2023_Aug_14_1622,exp1,2021.2.3,59.99822406698353,
,,,,,,,,,,,,,,,,4,8.65,9.55,10.45,11.35,0,0.9,0.5,0.4,3.1,10,initial,36.05,312,344,377,409,0,9,9,9,9,0,,,,,3,0,3,0,0,49,49,34,,,,,num_5,0.8795107000041753,num_5,0.2,1.3,0.3,0.9,10.81288,32.43864,return,3.770948600023985,,,,,,,5,22,female,up_down_width,2023_Aug_14_1622,exp1,2021.2.3,59.99822406698353,
,,,,,,,,,,,,,,,,3,9.1,10,10.9,0,0,0.9,0.5,0.4,2.2,10,initial,36.05,328,361,393,0,0,9,9,9,0,0,,,,,3,0,3,0,0,50,50,16,,,,,num_3,0.7408753000199795,num_3,0.15,0.3,0.3,0.75,10.81288,27.0322,return,3.7432998998556286,,,,,,,5,22,female,up_down_width,2023_Aug_14_1622,exp1,2021.2.3,59.99822406698353,
,,,,,,,,,,,,,,,,5,8.6,9.3,10,10.7,11.4,0.7,0.29999999999999993,0.4,3.1999999999999997,10,initial,36.05,310,335,361,386,411,9,9,9,9,9,,,,,3,0,3,0,0,51,51,46,,,,,num_5,0.7699097997974604,num_5,0.45,0.7,0.35000000000000003,0.7,12.61502,25.23005,return,1.3940707000438124,,,,,,,5,22,female,up_down_width,2023_Aug_14_1622,exp1,2021.2.3,59.99822406698353,
,,,,,,,,,,,,,,,,5,8.65,9.325,10,10.675,11.35,0.6749999999999999,0.575,0.1,2.8,10,match,36.05,312,336,361,385,409,9,9,9,9,9,,,,,3,0,3,0,0,52,52,31,,,,,num_5,0.8988814000040293,num_5,0.4,0.9,0.10000000000000007,0.6,3.60429,21.62576,return,3.947260200046003,,,,,,,5,22,female,up_down_width,2023_Aug_14_1622,exp1,2021.2.3,59.99822406698353,
,,,,,,,,,,,,,,,,4,8.95,9.65,10.35,11.05,0,0.7,0.6,0.1,2.1999999999999997,10,initial,36.05,323,348,373,398,0,9,9,9,9,0,,,,,3,0,3,0,0,53,53,24,,,,,num_4,1.3214837999548763,num_4,0.2,1.3,0.10000000000000002,0.5,3.60429,18.02146,return,3.583046599989757,,,,,,,5,22,female,up_down_width,2023_Aug_14_1622,exp1,2021.2.3,59.99822406698353,
,,,,,,,,,,,,,,,,,,,,,,,,,,,,,,,,,,,,,,,,,,,3,0,3,0,,,,,,,,,,,,,,,,,,,,,,1700.6730104000308,None,1700.6730104000308,None,5,22,female,up_down_width,2023_Aug_14_1622,exp1,2021.2.3,59.99822406698353,
,,,,,,,,,,,,,,,,5,8.95,9.475,10,10.525,11.05,0.525,0.275,0.25,2.35,10,match,36.05,323,342,361,379,398,9,9,9,9,9,,,,,4,0,4,0,0,0,0,27,,,,,num_4,1.1446442999877036,num_4,0.15,0.5,0.2,0.4,7.20859,14.41717,return,3.0325603000819683,,,,,,,5,22,female,up_down_width,2023_Aug_14_1622,exp1,2021.2.3,59.99822406698353,
,,,,,,,,,,,,,,,,5,8.6,9.3,10,10.7,11.4,0.7,0.6,0.1,2.9,10,initial,36.05,310,335,361,386,411,9,9,9,9,9,,,,,4,0,4,0,0,1,1,42,,,,,num_5,0.740314400056377,num_5,0.15,1.0,0.15,0.7,5.40644,25.23005,return,2.4283547999802977,,,,,,,5,22,female,up_down_width,2023_Aug_14_1622,exp1,2021.2.3,59.99822406698353,
,,,,,,,,,,,,,,,,5,8.95,9.475,10,10.525,11.05,0.525,0.125,0.4,2.5,10,match,36.05,323,342,361,379,398,9,9,9,9,9,,,,,4,0,4,0,0,2,2,29,,,,,num_4,0.7947984000202268,num_4,0.35,0.9,0.35,0.5,12.61502,18.02146,return,1.4977247000206262,,,,,,,5,22,female,up_down_width,2023_Aug_14_1622,exp1,2021.2.3,59.99822406698353,
,,,,,,,,,,,,,,,,5,8.95,9.475,10,10.525,11.05,0.525,0.42500000000000004,0.1,2.2,10,match,36.05,323,342,361,379,398,9,9,9,9,9,,,,,4,0,4,0,0,3,3,25,,,,,num_5,0.8863331000320613,num_5,0.25,0.6,0.15000000000000002,0.5,5.40644,18.02146,return,2.3473833999596536,,,,,,,5,22,female,up_down_width,2023_Aug_14_1622,exp1,2021.2.3,59.99822406698353,
,,,,,,,,,,,,,,,,5,9,9.5,10,10.5,11,0.5,0.4,0.1,2.1,10,initial,36.05,324,342,361,379,397,9,9,9,9,9,,,,,4,0,4,0,0,4,4,36,,,,,num_5,0.9553469000384212,num_5,0.15,0.8,0.09999999999999999,0.5,3.60429,18.02146,return,2.791799300117418,,,,,,,5,22,female,up_down_width,2023_Aug_14_1622,exp1,2021.2.3,59.99822406698353,
,,,,,,,,,,,,,,,,3,8.2,10,11.8,0,0,1.7999999999999998,1.4,0.4,4,10,match,36.05,296,361,425,0,0,9,9,9,0,0,,,,,4,0,4,0,0,5,5,53,,,,,num_3,0.8053007998969406,num_3,0.15,0.4,0.39999999999999997,0.85,14.41717,30.63649,return,4.167197099886835,,,,,,,5,22,female,up_down_width,2023_Aug_14_1622,exp1,2021.2.3,59.99822406698353,
,,,,,,,,,,,,,,,,4,9.1,9.7,10.3,10.9,0,0.6000000000000001,0.20000000000000004,0.4,2.2,10,match,36.05,328,350,371,393,0,9,9,9,9,0,,,,,4,0,4,0,0,6,6,17,,,,,num_4,0.9963112999685109,num_4,0.2,1.2,0.35,0.6,12.61502,21.62576,return,4.057727899868041,,,,,,,5,22,female,up_down_width,2023_Aug_14_1622,exp1,2021.2.3,59.99822406698353,
,,,,,,,,,,,,,,,,3,8.6,10,11.4,0,0,1.4,1.2999999999999998,0.1,2.9,10,match,36.05,310,361,411,0,0,9,9,9,0,0,,,,,4,0,4,0,0,7,7,43,,,,,num_3,0.7511968000326306,num_3,0.2,1,0.10000000000000002,1.1,3.60429,39.64722,return,2.975744499824941,,,,,,,5,22,female,up_down_width,2023_Aug_14_1622,exp1,2021.2.3,59.99822406698353,
,,,,,,,,,,,,,,,,4,8.65,9.55,10.45,11.35,0,0.9,0.8,0.1,2.8000000000000003,10,initial,36.05,312,344,377,409,0,9,9,9,9,0,,,,,4,0,4,0,0,8,8,30,,,,,num_3,2.0820078998804092,num_3,0.15,0.7,0.15,1.05,5.40644,37.84507,return,2.193443899974227,,,,,,,5,22,female,up_down_width,2023_Aug_14_1622,exp1,2021.2.3,59.99822406698353,
,,,,,,,,,,,,,,,,3,9,10,11,0,0,0.9999999999999999,0.5999999999999999,0.4,2.4,10,match,36.05,324,361,397,0,0,9,9,9,0,0,,,,,4,0,4,0,0,9,9,41,,,,,num_3,0.6808197000063956,num_3,0.15,1.2,0.35,1.2,12.61502,43.25151,return,1.6595419000368565,,,,,,,5,22,female,up_down_width,2023_Aug_14_1622,exp1,2021.2.3,59.99822406698353,
,,,,,,,,,,,,,,,,3,8.2,10,11.8,0,0,1.8,1.55,0.25,3.85,10,match,36.05,296,361,425,0,0,9,9,9,0,0,,,,,4,0,4,0,0,10,10,51,,,,,num_3,0.7807624000124633,num_3,0.25,1.2,0.2,1.95,7.20859,70.28371,return,3.2452336999122053,,,,,,,5,22,female,up_down_width,2023_Aug_14_1622,exp1,2021.2.3,59.99822406698353,
,,,,,,,,,,,,,,,,3,9.1,10,10.9,0,0,0.9,0.8,0.1,1.9000000000000001,10,initial,36.05,328,361,393,0,0,9,9,9,0,0,,,,,4,0,4,0,0,11,11,12,,,,,num_3,0.8812177998479456,num_3,0.15,0.4,0.04999999999999999,1.15,1.80215,41.44937,return,4.404792599845678,,,,,,,5,22,female,up_down_width,2023_Aug_14_1622,exp1,2021.2.3,59.99822406698353,
,,,,,,,,,,,,,,,,4,8.95,9.65,10.35,11.05,0,0.7,0.29999999999999993,0.4,2.5,10,initial,36.05,323,348,373,398,0,9,9,9,9,0,,,,,4,0,4,0,0,12,12,28,,,,,num_3,0.7409908999688923,num_3,0.35,1,0.6,1.45,21.62576,52.26225,return,5.117870500078425,,,,,,,5,22,female,up_down_width,2023_Aug_14_1622,exp1,2021.2.3,59.99822406698353,
,,,,,,,,,,,,,,,,4,9.25,9.75,10.25,10.75,0,0.5,0.25,0.25,1.75,10,initial,36.05,333,351,370,388,0,9,9,9,9,0,,,,,4,0,4,0,0,13,13,20,,,,,num_4,0.9756635001394898,num_4,0.1,0.9,0.35,0.7,12.61502,25.23005,return,2.743203999940306,,,,,,,5,22,female,up_down_width,2023_Aug_14_1622,exp1,2021.2.3,59.99822406698353,
,,,,,,,,,,,,,,,,4,9.5,9.833333333333334,10.166666666666666,10.5,0,0.33333333333333337,0.23333333333333336,0.1,1.1,10,match,36.05,342,354,367,379,0,9,9,9,9,0,,,,,4,0,4,0,0,14,14,1,,,,,num_4,0.9821194999385625,num_4,0.3,0.7,0.15000000000000002,0.4,5.40644,14.41717,return,2.612843600101769,,,,,,,5,22,female,up_down_width,2023_Aug_14_1622,exp1,2021.2.3,59.99822406698353,
,,,,,,,,,,,,,,,,4,9.1,9.7,10.3,10.9,0,0.5999999999999999,0.3499999999999999,0.25,2.05,10,match,36.05,328,350,371,393,0,9,9,9,9,0,,,,,4,0,4,0,0,15,15,15,,,,,num_4,0.9853267001453787,num_4,0.1,1.3,0.2,0.4,7.20859,14.41717,return,3.9031684999354184,,,,,,,5,22,female,up_down_width,2023_Aug_14_1622,exp1,2021.2.3,59.99822406698353,
,,,,,,,,,,,,,,,,3,9.1,10,10.9,0,0,0.9,0.5,0.4,2.2,10,initial,36.05,328,361,393,0,0,9,9,9,0,0,,,,,4,0,4,0,0,16,16,16,,,,,num_3,0.8233674000948668,num_3,0.1,0.8,0.44999999999999996,1.15,16.21932,41.44937,return,3.3798720999620855,,,,,,,5,22,female,up_down_width,2023_Aug_14_1622,exp1,2021.2.3,59.99822406698353,
,,,,,,,,,,,,,,,,4,8.65,9.55,10.45,11.35,0,0.9,0.5,0.4,3.1,10,initial,36.05,312,344,377,409,0,9,9,9,9,0,,,,,4,0,4,0,0,17,17,34,,,,,num_4,0.9160191998817027,num_4,0.2,0.7,0.35,0.8,12.61502,28.83434,return,5.05513109988533,,,,,,,5,22,female,up_down_width,2023_Aug_14_1622,exp1,2021.2.3,59.99822406698353,
,,,,,,,,,,,,,,,,4,9.425,9.808333333333334,10.191666666666666,10.575,0,0.3833333333333333,0.1333333333333333,0.25,1.4,10,match,36.05,340,354,367,381,0,9,9,9,9,0,,,,,4,0,4,0,0,18,18,5,,,,,num_4,0.9776961000170559,num_4,0.3,1.0,0.2,0.4,7.20859,14.41717,return,5.64957829983905,,,,,,,5,22,female,up_down_width,2023_Aug_14_1622,exp1,2021.2.3,59.99822406698353,
,,,,,,,,,,,,,,,,5,9.175,9.5875,10,10.4125,10.825,0.4125,0.16249999999999998,0.25,1.9,10,match,36.05,331,346,361,375,390,9,9,9,9,9,,,,,4,0,4,0,0,19,19,23,,,,,num_5,0.819797300035134,num_5,0.3,1.2,0.25,0.5,9.01073,18.02146,return,4.368897599866614,,,,,,,5,22,female,up_down_width,2023_Aug_14_1622,exp1,2021.2.3,59.99822406698353,
,,,,,,,,,,,,,,,,5,8.6,9.3,10,10.7,11.4,0.7,0.29999999999999993,0.4,3.1999999999999997,10,initial,36.05,310,335,361,386,411,9,9,9,9,9,,,,,4,0,4,0,0,20,20,46,,,,,num_6,0.9322486000601202,num_6,0.15,0.9,0.25,0.4,9.01073,14.41717,return,3.5817445998545736,,,,,,,5,22,female,up_down_width,2023_Aug_14_1622,exp1,2021.2.3,59.99822406698353,
,,,,,,,,,,,,,,,,3,9.3,10,10.7,0,0,0.7,0.44999999999999996,0.25,1.65,10,initial,36.05,335,361,386,0,0,9,9,9,0,0,,,,,4,0,4,0,0,21,21,8,,,,,num_3,0.9015191001817584,num_3,0.25,0.6,0.25,0.6,9.01073,21.62576,return,0.892784700030461,,,,,,,5,22,female,up_down_width,2023_Aug_14_1622,exp1,2021.2.3,59.99822406698353,
,,,,,,,,,,,,,,,,5,8.6,9.3,10,10.7,11.4,0.7,0.44999999999999996,0.25,3.05,10,initial,36.05,310,335,361,386,411,9,9,9,9,9,,,,,4,0,4,0,0,22,22,44,,,,,num_4,0.7975557001773268,num_4,0.3,0.4,0.25,0.7,9.01073,25.23005,return,2.7958338998723775,,,,,,,5,22,female,up_down_width,2023_Aug_14_1622,exp1,2021.2.3,59.99822406698353,
,,,,,,,,,,,,,,,,3,9.3,10,10.7,0,0,0.7,0.29999999999999993,0.4,1.8,10,initial,36.05,335,361,386,0,0,9,9,9,0,0,,,,,4,0,4,0,0,23,23,10,,,,,num_3,0.8776664999313653,num_3,0.35,0.6,0.44999999999999996,0.75,16.21932,27.0322,return,1.7846232999581844,,,,,,,5,22,female,up_down_width,2023_Aug_14_1622,exp1,2021.2.3,59.99822406698353,
,,,,,,,,,,,,,,,,5,9,9.5,10,10.5,11,0.5,0.25,0.25,2.25,10,initial,36.05,324,342,361,379,397,9,9,9,9,9,,,,,4,0,4,0,0,24,24,38,,,,,num_4,0.8259839999955148,num_4,0.15,0.3,0.2,0.5,7.20859,18.02146,return,1.702325299847871,,,,,,,5,22,female,up_down_width,2023_Aug_14_1622,exp1,2021.2.3,59.99822406698353,
,,,,,,,,,,,,,,,,5,8.2,9.1,10,10.9,11.8,0.9,0.5,0.4,4,10,initial,36.05,296,328,361,393,425,9,9,9,9,9,,,,,4,0,4,0,0,25,25,52,,,,,num_5,0.7635073999408633,num_5,0.15,0.5,0.3,0.85,10.81288,30.63649,return,2.492431699996814,,,,,,,5,22,female,up_down_width,2023_Aug_14_1622,exp1,2021.2.3,59.99822406698353,
,,,,,,,,,,,,,,,,3,9.1,10,10.9,0,0,0.9,0.65,0.25,2.05,10,initial,36.05,328,361,393,0,0,9,9,9,0,0,,,,,4,0,4,0,0,26,26,14,,,,,num_3,0.7693269997835159,num_3,0.3,1.1,0.3,1.1,10.81288,39.64722,return,2.240111199906096,,,,,,,5,22,female,up_down_width,2023_Aug_14_1622,exp1,2021.2.3,59.99822406698353,
,,,,,,,,,,,,,,,,3,9.5,10,10.5,0,0,0.5,0.09999999999999998,0.4,1.4000000000000001,10,initial,36.05,342,361,379,0,0,9,9,9,0,0,,,,,4,0,4,0,0,27,27,4,,,,,num_3,0.8386148000136018,num_3,0.3,1.2,0.49999999999999994,0.85,18.02146,30.63649,return,3.898663500091061,,,,,,,5,22,female,up_down_width,2023_Aug_14_1622,exp1,2021.2.3,59.99822406698353,
,,,,,,,,,,,,,,,,5,8.2,9.1,10,10.9,11.8,0.9,0.65,0.25,3.85,10,initial,36.05,296,328,361,393,425,9,9,9,9,9,,,,,4,0,4,0,0,28,28,50,,,,,num_5,0.8466717000119388,num_5,0.25,1.2,0.3,0.85,10.81288,30.63649,return,2.889729900052771,,,,,,,5,22,female,up_down_width,2023_Aug_14_1622,exp1,2021.2.3,59.99822406698353,
,,,,,,,,,,,,,,,,4,8.65,9.55,10.45,11.35,0,0.9,0.65,0.25,2.95,10,initial,36.05,312,344,377,409,0,9,9,9,9,0,,,,,4,0,4,0,0,29,29,32,,,,,num_5,1.0129909000825137,num_5,0.4,0.8,0.15000000000000008,0.65,5.40644,23.4279,return,2.6828648999799043,,,,,,,5,22,female,up_down_width,2023_Aug_14_1622,exp1,2021.2.3,59.99822406698353,
,,,,,,,,,,,,,,,,4,8.95,9.65,10.35,11.05,0,0.7,0.44999999999999996,0.25,2.3499999999999996,10,initial,36.05,323,348,373,398,0,9,9,9,9,0,,,,,4,0,4,0,0,30,30,26,,,,,num_4,0.7870684000663459,num_4,0.1,1.3,0.2,0.6,7.20859,21.62576,return,2.8921773000620306,,,,,,,5,22,female,up_down_width,2023_Aug_14_1622,exp1,2021.2.3,59.99822406698353,
,,,,,,,,,,,,,,,,4,9.25,9.75,10.25,10.75,0,0.5,0.4,0.1,1.6,10,initial,36.05,333,351,370,388,0,9,9,9,9,0,,,,,4,0,4,0,0,31,31,18,,,,,num_4,0.9457678999751806,num_4,0.35,1.3,0.2,0.4,7.20859,14.41717,return,3.601584200048819,,,,,,,5,22,female,up_down_width,2023_Aug_14_1622,exp1,2021.2.3,59.99822406698353,
,,,,,,,,,,,,,,,,3,9.3,10,10.7,0,0,0.7,0.6,0.1,1.5,10,initial,36.05,335,361,386,0,0,9,9,9,0,0,,,,,4,0,4,0,0,32,32,6,,,,,num_4,0.8622499001212418,num_4,0.35,0.6,0.10000000000000002,0.5,3.60429,18.02146,return,2.935542199993506,,,,,,,5,22,female,up_down_width,2023_Aug_14_1622,exp1,2021.2.3,59.99822406698353,
,,,,,,,,,,,,,,,,4,9.5,9.833333333333334,10.166666666666666,10.5,0,0.3333333333333333,0.08333333333333333,0.25,1.25,10,match,36.05,342,354,367,379,0,9,9,9,9,0,,,,,4,0,4,0,0,33,33,3,,,,,num_3,0.8241187001112849,num_3,0.45,0.5,0.25000000000000006,0.5,9.01073,18.02146,return,3.2214886001311243,,,,,,,5,22,female,up_down_width,2023_Aug_14_1622,exp1,2021.2.3,59.99822406698353,
,,,,,,,,,,,,,,,,5,9.25,9.625,10,10.375,10.75,0.375,0.275,0.1,1.6,10,match,36.05,333,347,361,374,388,9,9,9,9,9,,,,,4,0,4,0,0,34,34,19,,,,,num_5,0.9816129999235272,num_5,0.2,1.1,0.15000000000000002,0.3,5.40644,10.81288,return,5.0052150001283735,,,,,,,5,22,female,up_down_width,2023_Aug_14_1622,exp1,2021.2.3,59.99822406698353,
,,,,,,,,,,,,,,,,3,9,10,11,0,0,1,0.9,0.1,2.1,10,match,36.05,324,361,397,0,0,9,9,9,0,0,,,,,4,0,4,0,0,35,35,37,,,,,num_3,0.7573987999930978,num_3,0.25,0.6,0.10000000000000002,1.2,3.60429,43.25151,return,4.683911399915814,,,,,,,5,22,female,up_down_width,2023_Aug_14_1622,exp1,2021.2.3,59.99822406698353,
,,,,,,,,,,,,,,,,5,8.65,9.325,10,10.675,11.35,0.675,0.42500000000000004,0.25,2.95,10,match,36.05,312,336,361,385,409,9,9,9,9,9,,,,,4,0,4,0,0,36,36,33,,,,,num_5,0.7857529998291284,num_5,0.1,0.9,0.2,0.9,7.20859,32.43864,return,1.772053400054574,,,,,,,5,22,female,up_down_width,2023_Aug_14_1622,exp1,2021.2.3,59.99822406698353,
,,,,,,,,,,,,,,,,4,9.3,9.766666666666667,10.233333333333333,10.7,0,0.4666666666666667,0.06666666666666665,0.4,1.8,10,match,36.05,335,352,369,386,0,9,9,9,9,0,,,,,4,0,4,0,0,37,37,11,,,,,num_4,0.8289098001550883,num_4,0.35,0.4,0.39999999999999997,0.5,14.41717,18.02146,return,2.3052964000962675,,,,,,,5,22,female,up_down_width,2023_Aug_14_1622,exp1,2021.2.3,59.99822406698353,
,,,,,,,,,,,,,,,,3,8.6,10,11.4,0,0,1.4,1.15,0.25,3.05,10,match,36.05,310,361,411,0,0,9,9,9,0,0,,,,,4,0,4,0,0,38,38,45,,,,,num_4,0.8212260999716818,num_4,0.25,1.2,0.25,1.2,9.01073,43.25151,return,1.7273629999253899,,,,,,,5,22,female,up_down_width,2023_Aug_14_1622,exp1,2021.2.3,59.99822406698353,
,,,,,,,,,,,,,,,,5,9,9.5,10,10.5,11,0.5,0.09999999999999998,0.4,2.4,10,initial,36.05,324,342,361,379,397,9,9,9,9,9,,,,,4,0,4,0,0,39,39,40,,,,,num_4,0.9382297000847757,num_4,0.35,1.1,0.35,0.5,12.61502,18.02146,return,4.432330199982971,,,,,,,5,22,female,up_down_width,2023_Aug_14_1622,exp1,2021.2.3,59.99822406698353,
,,,,,,,,,,,,,,,,3,9.5,10,10.5,0,0,0.5,0.4,0.1,1.1,10,initial,36.05,342,361,379,0,0,9,9,9,0,0,,,,,4,0,4,0,0,40,40,0,,,,,num_3,0.7845285998191684,num_3,0.3,1.2,0.10000000000000002,0.6,3.60429,21.62576,return,4.655643199803308,,,,,,,5,22,female,up_down_width,2023_Aug_14_1622,exp1,2021.2.3,59.99822406698353,
,,,,,,,,,,,,,,,,5,9.25,9.625,10,10.375,10.75,0.375,0.125,0.25,1.75,10,match,36.05,333,347,361,374,388,9,9,9,9,9,,,,,4,0,4,0,0,41,41,21,,,,,num_4,0.8408185001462698,num_4,0.3,1.2,0.25,0.4,9.01073,14.41717,return,3.2978764998260885,,,,,,,5,22,female,up_down_width,2023_Aug_14_1622,exp1,2021.2.3,59.99822406698353,
,,,,,,,,,,,,,,,,3,9.5,10,10.5,0,0,0.5,0.25,0.25,1.25,10,initial,36.05,342,361,379,0,0,9,9,9,0,0,,,,,4,0,4,0,0,42,42,2,,,,,num_3,0.7088548999745399,num_3,0.1,0.3,0.25,0.45,9.01073,16.21932,return,2.5513918998185545,,,,,,,5,22,female,up_down_width,2023_Aug_14_1622,exp1,2021.2.3,59.99822406698353,
,,,,,,,,,,,,,,,,4,9.25,9.75,10.25,10.75,0,0.5,0.09999999999999998,0.4,1.9,10,initial,36.05,333,351,370,388,0,9,9,9,9,0,,,,,4,0,4,0,0,43,43,22,,,,,num_4,0.8143975001294166,num_4,0.35,1.3,0.3,0.4,10.81288,14.41717,return,4.283659300068393,,,,,,,5,22,female,up_down_width,2023_Aug_14_1622,exp1,2021.2.3,59.99822406698353,
,,,,,,,,,,,,,,,,5,8.65,9.325,10,10.675,11.35,0.6749999999999999,0.575,0.1,2.8,10,match,36.05,312,336,361,385,409,9,9,9,9,9,,,,,4,0,4,0,0,44,44,31,,,,,num_5,1.0595736000686884,num_5,0.35,0.8,0.10000000000000002,0.65,3.60429,23.4279,return,3.775211200118065,,,,,,,5,22,female,up_down_width,2023_Aug_14_1622,exp1,2021.2.3,59.99822406698353,
,,,,,,,,,,,,,,,,4,9.3,9.766666666666667,10.233333333333333,10.7,0,0.4666666666666667,0.21666666666666665,0.25,1.65,10,match,36.05,335,352,369,386,0,9,9,9,9,0,,,,,4,0,4,0,0,45,45,9,,,,,num_4,0.8528030999004841,num_4,0.15,0.4,0.2,0.5,7.20859,18.02146,return,2.959913899889216,,,,,,,5,22,female,up_down_width,2023_Aug_14_1622,exp1,2021.2.3,59.99822406698353,
,,,,,,,,,,,,,,,,3,8.2,10,11.8,0,0,1.8000000000000003,1.7000000000000002,0.1,3.7,10,match,36.05,296,361,425,0,0,9,9,9,0,0,,,,,4,0,4,0,0,46,46,49,,,,,num_3,0.8031844000797719,num_3,0.15,0.6,0.09999999999999999,0.85,3.60429,30.63649,return,1.972384599968791,,,,,,,5,22,female,up_down_width,2023_Aug_14_1622,exp1,2021.2.3,59.99822406698353,
,,,,,,,,,,,,,,,,4,9.1,9.7,10.3,10.9,0,0.6,0.5,0.1,1.9,10,match,36.05,328,350,371,393,0,9,9,9,9,0,,,,,4,0,4,0,0,47,47,13,,,,,num_4,0.9481724000070244,num_4,0.1,0.8,0.1,0.7,3.60429,25.23005,return,1.5191854999866337,,,,,,,5,22,female,up_down_width,2023_Aug_14_1622,exp1,2021.2.3,59.99822406698353,
,,,,,,,,,,,,,,,,4,9.3,9.766666666666667,10.233333333333333,10.7,0,0.4666666666666667,0.3666666666666667,0.1,1.5,10,match,36.05,335,352,369,386,0,9,9,9,9,0,,,,,4,0,4,0,0,48,48,7,,,,,num_4,0.7596715001855046,num_4,0.2,1.3,0.10000000000000002,0.8,3.60429,28.83434,return,3.040401600068435,,,,,,,5,22,female,up_down_width,2023_Aug_14_1622,exp1,2021.2.3,59.99822406698353,
,,,,,,,,,,,,,,,,5,8.2,9.1,10,10.9,11.8,0.9,0.8,0.1,3.7,10,initial,36.05,296,328,361,393,425,9,9,9,9,9,,,,,4,0,4,0,0,49,49,48,,,,,num_5,0.7195351999253035,num_5,0.1,0.3,0.1,0.55,3.60429,19.82361,return,1.6979012000374496,,,,,,,5,22,female,up_down_width,2023_Aug_14_1622,exp1,2021.2.3,59.99822406698353,
,,,,,,,,,,,,,,,,5,8.65,9.325,10,10.675,11.35,0.675,0.275,0.4,3.1,10,match,36.05,312,336,361,385,409,9,9,9,9,9,,,,,4,0,4,0,0,50,50,35,,,,,num_5,0.7746125999838114,num_5,0.25,0.8,0.44999999999999996,0.85,16.21932,30.63649,return,2.333254400175065,,,,,,,5,22,female,up_down_width,2023_Aug_14_1622,exp1,2021.2.3,59.99822406698353,
,,,,,,,,,,,,,,,,3,9,10,11,0,0,1,0.75,0.25,2.25,10,match,36.05,324,361,397,0,0,9,9,9,0,0,,,,,4,0,4,0,0,51,51,39,,,,,num_3,0.7039278000593185,num_3,0.4,1.1,0.20000000000000007,1.0,7.20859,36.04293,return,3.1540008999872953,,,,,,,5,22,female,up_down_width,2023_Aug_14_1622,exp1,2021.2.3,59.99822406698353,
,,,,,,,,,,,,,,,,3,8.525,10,11.475,0,0,1.475,1.225,0.25,3.2,10,match,36.05,307,361,414,0,0,9,9,9,0,0,,,,,4,0,4,0,0,52,52,47,,,,,num_3,0.7694931000005454,num_3,0.25,1.3,0.2,1.75,7.20859,63.07512,return,4.796313599916175,,,,,,,5,22,female,up_down_width,2023_Aug_14_1622,exp1,2021.2.3,59.99822406698353,
,,,,,,,,,,,,,,,,4,8.95,9.65,10.35,11.05,0,0.7,0.6,0.1,2.1999999999999997,10,initial,36.05,323,348,373,398,0,9,9,9,9,0,,,,,4,0,4,0,0,53,53,24,,,,,num_4,0.9109191000461578,num_4,0.1,1.3,0.1,0.8,3.60429,28.83434,return,2.024841899983585,,,,,,,5,22,female,up_down_width,2023_Aug_14_1622,exp1,2021.2.3,59.99822406698353,
,,,,,,,,,,,,,,,,,,,,,,,,,,,,,,,,,,,,,,,,,,,4,0,4,0,,,,,,,,,,,,,,,,,,,,,,2072.986873500049,None,2072.986873500049,None,5,22,female,up_down_width,2023_Aug_14_1622,exp1,2021.2.3,59.99822406698353,
,,,,,,,,,,,,,,,,3,9,10,11,0,0,0.9999999999999999,0.5999999999999999,0.4,2.4,10,match,36.05,324,361,397,0,0,9,9,9,0,0,,,,,5,0,5,0,0,0,0,41,,,,,num_3,0.9521451999899,num_3,0.15,0.4,0.3,0.6,10.81288,21.62576,return,2.1922229998745024,,,,,,,5,22,female,up_down_width,2023_Aug_14_1622,exp1,2021.2.3,59.99822406698353,
,,,,,,,,,,,,,,,,3,9.3,10,10.7,0,0,0.7,0.44999999999999996,0.25,1.65,10,initial,36.05,335,361,386,0,0,9,9,9,0,0,,,,,5,0,5,0,0,1,1,8,,,,,num_3,0.9060947000980377,num_3,0.25,1.3,0.49999999999999994,1.0,18.02146,36.04293,return,3.2644659001380205,,,,,,,5,22,female,up_down_width,2023_Aug_14_1622,exp1,2021.2.3,59.99822406698353,
,,,,,,,,,,,,,,,,5,9.25,9.625,10,10.375,10.75,0.375,0.125,0.25,1.75,10,match,36.05,333,347,361,374,388,9,9,9,9,9,,,,,5,0,5,0,0,2,2,21,,,,,num_4,0.7865273000206798,num_4,0.3,0.8,0.3,0.5,10.81288,18.02146,return,2.6792780000250787,,,,,,,5,22,female,up_down_width,2023_Aug_14_1622,exp1,2021.2.3,59.99822406698353,
,,,,,,,,,,,,,,,,4,8.95,9.65,10.35,11.05,0,0.7,0.29999999999999993,0.4,2.5,10,initial,36.05,323,348,373,398,0,9,9,9,9,0,,,,,5,0,5,0,0,3,3,28,,,,,num_4,0.7234143000096083,num_4,0.2,0.9,0.44999999999999996,0.6,16.21932,21.62576,return,2.2765033000614494,,,,,,,5,22,female,up_down_width,2023_Aug_14_1622,exp1,2021.2.3,59.99822406698353,
,,,,,,,,,,,,,,,,3,9,10,11,0,0,1,0.9,0.1,2.1,10,match,36.05,324,361,397,0,0,9,9,9,0,0,,,,,5,0,5,0,0,4,4,37,,,,,num_3,1.0666039001662284,num_3,0.2,0.7,0.10000000000000002,0.75,3.60429,27.0322,return,3.968370599905029,,,,,,,5,22,female,up_down_width,2023_Aug_14_1622,exp1,2021.2.3,59.99822406698353,
,,,,,,,,,,,,,,,,3,8.2,10,11.8,0,0,1.8000000000000003,1.7000000000000002,0.1,3.7,10,match,36.05,296,361,425,0,0,9,9,9,0,0,,,,,5,0,5,0,0,5,5,49,,,,,num_3,0.7236520999576896,num_3,0.3,1,0.10000000000000002,1,3.60429,36.04293,return,2.406988099915907,,,,,,,5,22,female,up_down_width,2023_Aug_14_1622,exp1,2021.2.3,59.99822406698353,
,,,,,,,,,,,,,,,,5,9.175,9.5875,10,10.4125,10.825,0.4125,0.16249999999999998,0.25,1.9,10,match,36.05,331,346,361,375,390,9,9,9,9,9,,,,,5,0,5,0,0,6,6,23,,,,,num_4,0.9657636000774801,num_4,0.15,0.8,0.25,0.5,9.01073,18.02146,return,2.9117528998758644,,,,,,,5,22,female,up_down_width,2023_Aug_14_1622,exp1,2021.2.3,59.99822406698353,
,,,,,,,,,,,,,,,,3,9.3,10,10.7,0,0,0.7,0.29999999999999993,0.4,1.8,10,initial,36.05,335,361,386,0,0,9,9,9,0,0,,,,,5,0,5,0,0,7,7,10,,,,,num_3,0.6567495001945645,num_3,0.35,0.7,0.35,0.7,12.61502,25.23005,return,1.3173939001280814,,,,,,,5,22,female,up_down_width,2023_Aug_14_1622,exp1,2021.2.3,59.99822406698353,
,,,,,,,,,,,,,,,,3,9.5,10,10.5,0,0,0.5,0.4,0.1,1.1,10,initial,36.05,342,361,379,0,0,9,9,9,0,0,,,,,5,0,5,0,0,8,8,0,,,,,num_3,0.6794342000503093,num_3,0.2,1.2,0.10000000000000002,0.65,3.60429,23.4279,return,3.308934399858117,,,,,,,5,22,female,up_down_width,2023_Aug_14_1622,exp1,2021.2.3,59.99822406698353,
,,,,,,,,,,,,,,,,4,9.1,9.7,10.3,10.9,0,0.6000000000000001,0.20000000000000004,0.4,2.2,10,match,36.05,328,350,371,393,0,9,9,9,9,0,,,,,5,0,5,0,0,9,9,17,,,,,num_3,0.6397490999661386,num_3,0.35,1.1,0.44999999999999996,0.65,16.21932,23.4279,return,3.493783700047061,,,,,,,5,22,female,up_down_width,2023_Aug_14_1622,exp1,2021.2.3,59.99822406698353,
,,,,,,,,,,,,,,,,5,8.2,9.1,10,10.9,11.8,0.9,0.5,0.4,4,10,initial,36.05,296,328,361,393,425,9,9,9,9,9,,,,,5,0,5,0,0,10,10,52,,,,,num_5,0.7213194000069052,num_5,0.35,1.0,0.39999999999999997,0.75,14.41717,27.0322,return,2.7393622000236064,,,,,,,5,22,female,up_down_width,2023_Aug_14_1622,exp1,2021.2.3,59.99822406698353,
,,,,,,,,,,,,,,,,3,8.6,10,11.4,0,0,1.4,1.15,0.25,3.05,10,match,36.05,310,361,411,0,0,9,9,9,0,0,,,,,5,0,5,0,0,11,11,45,,,,,num_3,0.7420063000172377,num_3,0.2,0.6,0.3,1.25,10.81288,45.05366,return,4.053861499996856,,,,,,,5,22,female,up_down_width,2023_Aug_14_1622,exp1,2021.2.3,59.99822406698353,
,,,,,,,,,,,,,,,,4,9.25,9.75,10.25,10.75,0,0.5,0.4,0.1,1.6,10,initial,36.05,333,351,370,388,0,9,9,9,9,0,,,,,5,0,5,0,0,12,12,18,,,,,num_3,0.7312660999596119,num_3,0.3,1,0.10000000000000002,0.55,3.60429,19.82361,return,4.311920600011945,,,,,,,5,22,female,up_down_width,2023_Aug_14_1622,exp1,2021.2.3,59.99822406698353,
,,,,,,,,,,,,,,,,4,8.95,9.65,10.35,11.05,0,0.7,0.6,0.1,2.1999999999999997,10,initial,36.05,323,348,373,398,0,9,9,9,9,0,,,,,5,0,5,0,0,13,13,24,,,,,num_4,0.9165936999488622,num_4,0.45,0.6,0.10000000000000007,0.5,3.60429,18.02146,return,2.6505662000272423,,,,,,,5,22,female,up_down_width,2023_Aug_14_1622,exp1,2021.2.3,59.99822406698353,
,,,,,,,,,,,,,,,,5,8.95,9.475,10,10.525,11.05,0.525,0.42500000000000004,0.1,2.2,10,match,36.05,323,342,361,379,398,9,9,9,9,9,,,,,5,0,5,0,0,14,14,25,,,,,num_5,0.6832886999472976,num_5,0.25,0.5,0.10000000000000002,0.5,3.60429,18.02146,return,2.289361100178212,,,,,,,5,22,female,up_down_width,2023_Aug_14_1622,exp1,2021.2.3,59.99822406698353,
,,,,,,,,,,,,,,,,5,8.65,9.325,10,10.675,11.35,0.675,0.275,0.4,3.1,10,match,36.05,312,336,361,385,409,9,9,9,9,9,,,,,5,0,5,0,0,15,15,35,,,,,num_5,0.7207514999900013,num_5,0.35,0.4,0.3,0.5,10.81288,18.02146,return,2.7999953001271933,,,,,,,5,22,female,up_down_width,2023_Aug_14_1622,exp1,2021.2.3,59.99822406698353,
,,,,,,,,,,,,,,,,4,9.3,9.766666666666667,10.233333333333333,10.7,0,0.4666666666666667,0.3666666666666667,0.1,1.5,10,match,36.05,335,352,369,386,0,9,9,9,9,0,,,,,5,0,5,0,0,16,16,7,,,,,num_4,0.8952132998965681,num_4,0.25,1.1,0.15000000000000002,0.6,5.40644,21.62576,return,3.0067972000688314,,,,,,,5,22,female,up_down_width,2023_Aug_14_1622,exp1,2021.2.3,59.99822406698353,
,,,,,,,,,,,,,,,,3,8.2,10,11.8,0,0,1.7999999999999998,1.4,0.4,4,10,match,36.05,296,361,425,0,0,9,9,9,0,0,,,,,5,0,5,0,0,17,17,53,,,,,num_3,0.8215202998835593,num_3,0.2,1.1,0.39999999999999997,1.35,14.41717,48.65795,return,5.341783599928021,,,,,,,5,22,female,up_down_width,2023_Aug_14_1622,exp1,2021.2.3,59.99822406698353,
,,,,,,,,,,,,,,,,5,9.25,9.625,10,10.375,10.75,0.375,0.275,0.1,1.6,10,match,36.05,333,347,361,374,388,9,9,9,9,9,,,,,5,0,5,0,0,18,18,19,,,,,num_4,1.0311141000129282,num_4,0.4,0.8,0.20000000000000007,0.6,7.20859,21.62576,return,4.300939100096002,,,,,,,5,22,female,up_down_width,2023_Aug_14_1622,exp1,2021.2.3,59.99822406698353,
,,,,,,,,,,,,,,,,5,8.2,9.1,10,10.9,11.8,0.9,0.8,0.1,3.7,10,initial,36.05,296,328,361,393,425,9,9,9,9,9,,,,,5,0,5,0,0,19,19,48,,,,,num_4,0.845673399977386,num_4,0.15,1.1,0.15,1.1,5.40644,39.64722,return,1.0950998000334948,,,,,,,5,22,female,up_down_width,2023_Aug_14_1622,exp1,2021.2.3,59.99822406698353,
,,,,,,,,,,,,,,,,5,8.2,9.1,10,10.9,11.8,0.9,0.65,0.25,3.85,10,initial,36.05,296,328,361,393,425,9,9,9,9,9,,,,,5,0,5,0,0,20,20,50,,,,,num_5,0.807776500005275,num_5,0.35,1.1,0.15000000000000002,0.85,5.40644,30.63649,return,3.051628899993375,,,,,,,5,22,female,up_down_width,2023_Aug_14_1622,exp1,2021.2.3,59.99822406698353,
,,,,,,,,,,,,,,,,4,9.425,9.808333333333334,10.191666666666666,10.575,0,0.3833333333333333,0.1333333333333333,0.25,1.4,10,match,36.05,340,354,367,381,0,9,9,9,9,0,,,,,5,0,5,0,0,21,21,5,,,,,num_4,0.8374671000055969,num_4,0.25,0.9,0.2,0.3,7.20859,10.81288,return,2.5723379999399185,,,,,,,5,22,female,up_down_width,2023_Aug_14_1622,exp1,2021.2.3,59.99822406698353,
,,,,,,,,,,,,,,,,3,8.525,10,11.475,0,0,1.475,1.225,0.25,3.2,10,match,36.05,307,361,414,0,0,9,9,9,0,0,,,,,5,0,5,0,0,22,22,47,,,,,num_3,0.856591499876231,num_3,0.45,0.7,0.30000000000000004,0.9,10.81288,32.43864,return,2.470131400041282,,,,,,,5,22,female,up_down_width,2023_Aug_14_1622,exp1,2021.2.3,59.99822406698353,
,,,,,,,,,,,,,,,,4,9.25,9.75,10.25,10.75,0,0.5,0.25,0.25,1.75,10,initial,36.05,333,351,370,388,0,9,9,9,9,0,,,,,5,0,5,0,0,23,23,20,,,,,num_4,0.8213748000562191,num_4,0.35,0.5,0.2,0.7,7.20859,25.23005,return,1.6333347000181675,,,,,,,5,22,female,up_down_width,2023_Aug_14_1622,exp1,2021.2.3,59.99822406698353,
,,,,,,,,,,,,,,,,5,8.65,9.325,10,10.675,11.35,0.675,0.42500000000000004,0.25,2.95,10,match,36.05,312,336,361,385,409,9,9,9,9,9,,,,,5,0,5,0,0,24,24,33,,,,,num_4,0.7344906001817435,num_4,0.25,0.4,0.25,0.6,9.01073,21.62576,return,1.8554359001573175,,,,,,,5,22,female,up_down_width,2023_Aug_14_1622,exp1,2021.2.3,59.99822406698353,
