amount_p,posx1_p,posx2_p,posx3_p,posx4_p,posx5_p,center_to_center_p,edge_to_edge_p,w_p,stim_lengt_p,eccentricity_p,line1_p,line2_p,line3_p,line4_p,line5_p,amount,posx1,posx2,posx3,posx4,posx5,center_to_center,edge_to_edge,w,stim_length,eccentricity,trial_type,deg_to_pix_index,posx1_in_pix,posx2_in_pix,posx3_in_pix,posx4_in_pix,posx5_in_pix,line1,line2,line3,line4,line5,trials.thisRepN,trials.thisTrialN,trials.thisN,trials.thisIndex,blocks.thisRepN,blocks.thisTrialN,blocks.thisN,blocks.thisIndex,loop.thisRepN,loop.thisTrialN,loop.thisN,loop.thisIndex,key_resp_3.keys,key_resp_3.rt,key_resp_3.started,key_resp_3.stopped,key_resp.keys,key_resp.rt,response,starting_width_deg,starting_space_deg,response_width_degree,response_spacing_degree,response_width_pixel,response_spacing_pixel,next_5.keys,next_5.rt,key_resp_4.keys,key_resp_4.rt,text_3.started,text_3.stopped,text_4.started,text_4.stopped,participant,age,gender,resp_group,date,expName,psychopyVersion,frameRate,
,,,,,,,,,,,,,,,,,,,,,,,,,,,,,,,,,,,,,,,,,,,,,,,,,,,c,93.63110499992035,82.10390330012888,None,,,,,,,,,,,,,,,,,,6,21,female,left_right_width,2023_Aug_15_1306,exp1,2021.2.3,60.13015779263358,
4,9.25,9.75,10.25,10.75,0,0.5,0.25,0.25,1.75,10,9,9,9,9,0,,,,,,,,,,,,,,,,,,,,,,,,0,0,0,4,,,,,,,,,,,,,num_3,1.8941285000182688,num_3,0.35,1.1,0.15000000000000002,0.6,5.40644,21.62576,return,19.769494499778375,,,,,,,6,21,female,left_right_width,2023_Aug_15_1306,exp1,2021.2.3,60.13015779263358,
5,9,9.5,10,10.5,11,0.5,0.09999999999999998,0.4,2.4,10,9,9,9,9,9,,,,,,,,,,,,,,,,,,,,,,,,0,1,1,8,,,,,,,,,,,,,num_3,3.3183557000011206,num_3,0.45,0.6,0.45,0.6,16.21932,21.62576,return,13.29516139999032,,,,,,,6,21,female,left_right_width,2023_Aug_15_1306,exp1,2021.2.3,60.13015779263358,
4,9.5,9.833333333333334,10.166666666666666,10.5,0,0.33333333333333337,0.23333333333333336,0.1,1.1,10,9,9,9,9,0,,,,,,,,,,,,,,,,,,,,,,,,0,2,2,3,,,,,,,,,,,,,num_3,1.1774154000449926,num_3,0.35,1.2,0.10000000000000002,1.1,3.60429,39.64722,return,15.593562599970028,,,,,,,6,21,female,left_right_width,2023_Aug_15_1306,exp1,2021.2.3,60.13015779263358,
4,8.65,9.55,10.45,11.35,0,0.9,0.5,0.4,3.1,10,9,9,9,9,0,,,,,,,,,,,,,,,,,,,,,,,,0,3,3,5,,,,,,,,,,,,,num_3,5.905413500033319,num_3,0.15,1,0.44999999999999996,1,16.21932,36.04293,return,4.979534100042656,,,,,,,6,21,female,left_right_width,2023_Aug_15_1306,exp1,2021.2.3,60.13015779263358,
3,9,10,11,0,0,1,0.9,0.1,2.1,10,9,9,9,0,0,,,,,,,,,,,,,,,,,,,,,,,,0,4,4,1,,,,,,,,,,,,,num_3,1.7534062000922859,num_3,0.35,1.3,0.05000000000000002,1.05,1.80215,37.84507,return,5.7122906998265535,,,,,,,6,21,female,left_right_width,2023_Aug_15_1306,exp1,2021.2.3,60.13015779263358,
3,9.5,10,10.5,0,0,0.5,0.4,0.1,1.1,10,9,9,9,0,0,,,,,,,,,,,,,,,,,,,,,,,,0,5,5,0,,,,,,,,,,,,,num_3,1.365801899926737,num_3,0.4,1.1,0.05000000000000007,0.9,1.80215,32.43864,return,5.276445799972862,,,,,,,6,21,female,left_right_width,2023_Aug_15_1306,exp1,2021.2.3,60.13015779263358,
3,8.2,10,11.8,0,0,1.7999999999999998,1.4,0.4,4,10,9,9,9,0,0,,,,,,,,,,,,,,,,,,,,,,,,0,6,6,2,,,,,,,,,,,,,num_3,2.0176699000876397,num_3,0.45,1.1,0.45,1.1,16.21932,39.64722,return,1.3931128999684006,,,,,,,6,21,female,left_right_width,2023_Aug_15_1306,exp1,2021.2.3,60.13015779263358,
5,9.25,9.625,10,10.375,10.75,0.375,0.125,0.25,1.75,10,9,9,9,9,9,,,,,,,,,,,,,,,,,,,,,,,,0,7,7,6,,,,,,,,,,,,,num_3,1.7913478000555187,num_3,0.4,0.9,0.25000000000000006,0.9,9.01073,32.43864,return,3.364573100116104,,,,,,,6,21,female,left_right_width,2023_Aug_15_1306,exp1,2021.2.3,60.13015779263358,
5,8.6,9.3,10,10.7,11.4,0.7,0.29999999999999993,0.4,3.1999999999999997,10,9,9,9,9,9,,,,,,,,,,,,,,,,,,,,,,,,0,8,8,7,,,,,,,,,,,,,num_3,1.0246629000175744,num_3,0.1,0.3,0.35,0.45,12.61502,16.21932,return,7.892996300011873,,,,,,,6,21,female,left_right_width,2023_Aug_15_1306,exp1,2021.2.3,60.13015779263358,
,,,,,,,,,,,,,,,,,,,,,,,,,,,,,,,,,,,,,,,,,,,,,,,,,,,,,,,,,,,,,,,,,,c,17.1128011001274,,,,,6,21,female,left_right_width,2023_Aug_15_1306,exp1,2021.2.3,60.13015779263358,
,,,,,,,,,,,,,,,,3,9,10,11,0,0,1,0.75,0.25,2.25,10,match,36.05,324,361,397,0,0,9,9,9,0,0,,,,,0,0,0,0,0,0,0,39,,,,,num_3,0.9781112000346184,num_3,0.35,0.9,0.2,0.9,7.20859,32.43864,return,3.4474384000059217,,,,,,,6,21,female,left_right_width,2023_Aug_15_1306,exp1,2021.2.3,60.13015779263358,
,,,,,,,,,,,,,,,,3,8.2,10,11.8,0,0,1.8,1.55,0.25,3.85,10,match,36.05,296,361,425,0,0,9,9,9,0,0,,,,,0,0,0,0,0,1,1,51,,,,,num_3,4.392714499961585,num_3,0.45,0.7,0.15000000000000008,0.85,5.40644,30.63649,return,6.357958700042218,,,,,,,6,21,female,left_right_width,2023_Aug_15_1306,exp1,2021.2.3,60.13015779263358,
,,,,,,,,,,,,,,,,5,9.25,9.625,10,10.375,10.75,0.375,0.275,0.1,1.6,10,match,36.05,333,347,361,374,388,9,9,9,9,9,,,,,0,0,0,0,0,2,2,19,,,,,num_3,1.1738781000021845,num_3,0.35,1.3,0.15000000000000002,1.3,5.40644,46.85581,return,2.9475879999808967,,,,,,,6,21,female,left_right_width,2023_Aug_15_1306,exp1,2021.2.3,60.13015779263358,
,,,,,,,,,,,,,,,,3,9.1,10,10.9,0,0,0.9,0.8,0.1,1.9000000000000001,10,initial,36.05,328,361,393,0,0,9,9,9,0,0,,,,,0,0,0,0,0,3,3,12,,,,,num_3,0.9465939998626709,num_3,0.15,0.8,0.15,0.8,5.40644,28.83434,return,0.9708620000164956,,,,,,,6,21,female,left_right_width,2023_Aug_15_1306,exp1,2021.2.3,60.13015779263358,
,,,,,,,,,,,,,,,,3,8.2,10,11.8,0,0,1.7999999999999998,1.4,0.4,4,10,match,36.05,296,361,425,0,0,9,9,9,0,0,,,,,0,0,0,0,0,4,4,53,,,,,num_2,1.3080247999168932,num_2,0.4,1.6,0.25000000000000006,1.6,9.01073,57.66869,return,1.94053990021348,,,,,,,6,21,female,left_right_width,2023_Aug_15_1306,exp1,2021.2.3,60.13015779263358,
,,,,,,,,,,,,,,,,3,9.3,10,10.7,0,0,0.7,0.29999999999999993,0.4,1.8,10,initial,36.05,335,361,386,0,0,9,9,9,0,0,,,,,0,0,0,0,0,5,5,10,,,,,num_3,1.1351352999918163,num_3,0.25,1.3,0.39999999999999997,1.3,14.41717,46.85581,return,1.7770329997874796,,,,,,,6,21,female,left_right_width,2023_Aug_15_1306,exp1,2021.2.3,60.13015779263358,
,,,,,,,,,,,,,,,,4,9.25,9.75,10.25,10.75,0,0.5,0.4,0.1,1.6,10,initial,36.05,333,351,370,388,0,9,9,9,9,0,,,,,0,0,0,0,0,6,6,18,,,,,num_3,1.106031500035897,num_3,0.45,0.6,0.10000000000000007,0.6,3.60429,21.62576,return,3.5554091001395136,,,,,,,6,21,female,left_right_width,2023_Aug_15_1306,exp1,2021.2.3,60.13015779263358,
,,,,,,,,,,,,,,,,5,8.95,9.475,10,10.525,11.05,0.525,0.42500000000000004,0.1,2.2,10,match,36.05,323,342,361,379,398,9,9,9,9,9,,,,,0,0,0,0,0,7,7,25,,,,,num_3,0.9588168000336736,num_3,0.2,0.9,0.15000000000000002,0.9,5.40644,32.43864,return,1.4315253000240773,,,,,,,6,21,female,left_right_width,2023_Aug_15_1306,exp1,2021.2.3,60.13015779263358,
,,,,,,,,,,,,,,,,3,9,10,11,0,0,0.9999999999999999,0.5999999999999999,0.4,2.4,10,match,36.05,324,361,397,0,0,9,9,9,0,0,,,,,0,0,0,0,0,8,8,41,,,,,num_3,0.870643800124526,num_3,0.15,0.6,0.3,0.6,10.81288,21.62576,return,1.7276663999073207,,,,,,,6,21,female,left_right_width,2023_Aug_15_1306,exp1,2021.2.3,60.13015779263358,
,,,,,,,,,,,,,,,,4,9.3,9.766666666666667,10.233333333333333,10.7,0,0.4666666666666667,0.06666666666666665,0.4,1.8,10,match,36.05,335,352,369,386,0,9,9,9,9,0,,,,,0,0,0,0,0,9,9,11,,,,,num_3,0.9760173000395298,num_3,0.2,0.5,0.39999999999999997,0.5,14.41717,18.02146,return,2.3101912999991328,,,,,,,6,21,female,left_right_width,2023_Aug_15_1306,exp1,2021.2.3,60.13015779263358,
,,,,,,,,,,,,,,,,4,8.65,9.55,10.45,11.35,0,0.9,0.8,0.1,2.8000000000000003,10,initial,36.05,312,344,377,409,0,9,9,9,9,0,,,,,0,0,0,0,0,10,10,30,,,,,num_3,0.8178508998826146,num_3,0.35,1.2,0.15000000000000002,1.2,5.40644,43.25151,return,2.7659861999563873,,,,,,,6,21,female,left_right_width,2023_Aug_15_1306,exp1,2021.2.3,60.13015779263358,
,,,,,,,,,,,,,,,,3,8.6,10,11.4,0,0,1.4,1.2999999999999998,0.1,2.9,10,match,36.05,310,361,411,0,0,9,9,9,0,0,,,,,0,0,0,0,0,11,11,43,,,,,num_3,0.9585357001051307,num_3,0.3,1.1,0.15000000000000002,1.1,5.40644,39.64722,return,1.6553446999751031,,,,,,,6,21,female,left_right_width,2023_Aug_15_1306,exp1,2021.2.3,60.13015779263358,
,,,,,,,,,,,,,,,,3,9.3,10,10.7,0,0,0.7,0.6,0.1,1.5,10,initial,36.05,335,361,386,0,0,9,9,9,0,0,,,,,0,0,0,0,0,12,12,6,,,,,num_3,0.9254197999835014,num_3,0.2,0.5,0.05000000000000002,0.5,1.80215,18.02146,return,5.206133099971339,,,,,,,6,21,female,left_right_width,2023_Aug_15_1306,exp1,2021.2.3,60.13015779263358,
,,,,,,,,,,,,,,,,4,9.425,9.808333333333334,10.191666666666666,10.575,0,0.3833333333333333,0.1333333333333333,0.25,1.4,10,match,36.05,340,354,367,381,0,9,9,9,9,0,,,,,0,0,0,0,0,13,13,5,,,,,num_3,0.7594870999455452,num_3,0.15,0.3,0.2,0.35,7.20859,12.61502,return,5.750697099836543,,,,,,,6,21,female,left_right_width,2023_Aug_15_1306,exp1,2021.2.3,60.13015779263358,
,,,,,,,,,,,,,,,,5,8.65,9.325,10,10.675,11.35,0.675,0.275,0.4,3.1,10,match,36.05,312,336,361,385,409,9,9,9,9,9,,,,,0,0,0,0,0,14,14,35,,,,,num_4,1.6569359998684376,num_4,0.35,0.9,0.3,0.7,10.81288,25.23005,return,5.525882699992508,,,,,,,6,21,female,left_right_width,2023_Aug_15_1306,exp1,2021.2.3,60.13015779263358,
,,,,,,,,,,,,,,,,4,9.3,9.766666666666667,10.233333333333333,10.7,0,0.4666666666666667,0.3666666666666667,0.1,1.5,10,match,36.05,335,352,369,386,0,9,9,9,9,0,,,,,0,0,0,0,0,15,15,7,,,,,num_3,2.7364564000163227,num_3,0.25,0.4,0.2,0.5,7.20859,18.02146,return,2.849764799932018,,,,,,,6,21,female,left_right_width,2023_Aug_15_1306,exp1,2021.2.3,60.13015779263358,
,,,,,,,,,,,,,,,,4,8.95,9.65,10.35,11.05,0,0.7,0.6,0.1,2.1999999999999997,10,initial,36.05,323,348,373,398,0,9,9,9,9,0,,,,,0,0,0,0,0,16,16,24,,,,,num_3,0.9093571999110281,num_3,0.25,1.2,0.15000000000000002,0.9,5.40644,32.43864,return,3.8148228998761624,,,,,,,6,21,female,left_right_width,2023_Aug_15_1306,exp1,2021.2.3,60.13015779263358,
,,,,,,,,,,,,,,,,5,8.6,9.3,10,10.7,11.4,0.7,0.44999999999999996,0.25,3.05,10,initial,36.05,310,335,361,386,411,9,9,9,9,9,,,,,0,0,0,0,0,17,17,44,,,,,num_4,1.0906040000263602,num_4,0.1,1.1,0.15000000000000002,0.8,5.40644,28.83434,return,7.3991862998809665,,,,,,,6,21,female,left_right_width,2023_Aug_15_1306,exp1,2021.2.3,60.13015779263358,
,,,,,,,,,,,,,,,,4,9.25,9.75,10.25,10.75,0,0.5,0.09999999999999998,0.4,1.9,10,initial,36.05,333,351,370,388,0,9,9,9,9,0,,,,,0,0,0,0,0,18,18,22,,,,,num_3,2.34006329998374,num_3,0.15,1.1,0.7000000000000001,1.0,25.23005,36.04293,return,5.731642700033262,,,,,,,6,21,female,left_right_width,2023_Aug_15_1306,exp1,2021.2.3,60.13015779263358,
,,,,,,,,,,,,,,,,5,9,9.5,10,10.5,11,0.5,0.09999999999999998,0.4,2.4,10,initial,36.05,324,342,361,379,397,9,9,9,9,9,,,,,0,0,0,0,0,19,19,40,,,,,num_3,1.3088179000187665,num_3,0.35,0.9,0.7000000000000001,0.8,25.23005,28.83434,return,5.045569499954581,,,,,,,6,21,female,left_right_width,2023_Aug_15_1306,exp1,2021.2.3,60.13015779263358,
,,,,,,,,,,,,,,,,5,8.65,9.325,10,10.675,11.35,0.6749999999999999,0.575,0.1,2.8,10,match,36.05,312,336,361,385,409,9,9,9,9,9,,,,,0,0,0,0,0,20,20,31,,,,,num_3,0.8861241000704467,num_3,0.4,0.9,0.10000000000000007,0.85,3.60429,30.63649,return,4.080390200018883,,,,,,,6,21,female,left_right_width,2023_Aug_15_1306,exp1,2021.2.3,60.13015779263358,
,,,,,,,,,,,,,,,,3,8.6,10,11.4,0,0,1.4,1.15,0.25,3.05,10,match,36.05,310,361,411,0,0,9,9,9,0,0,,,,,0,0,0,0,0,21,21,45,,,,,num_3,1.686475400114432,num_3,0.2,0.7,0.10000000000000002,0.7,3.60429,25.23005,return,2.336299299960956,,,,,,,6,21,female,left_right_width,2023_Aug_15_1306,exp1,2021.2.3,60.13015779263358,
,,,,,,,,,,,,,,,,4,8.65,9.55,10.45,11.35,0,0.9,0.5,0.4,3.1,10,initial,36.05,312,344,377,409,0,9,9,9,9,0,,,,,0,0,0,0,0,22,22,34,,,,,num_3,0.865250599803403,num_3,0.2,0.5,0.3,0.5,10.81288,18.02146,return,5.307955399854109,,,,,,,6,21,female,left_right_width,2023_Aug_15_1306,exp1,2021.2.3,60.13015779263358,
,,,,,,,,,,,,,,,,4,8.65,9.55,10.45,11.35,0,0.9,0.65,0.25,2.95,10,initial,36.05,312,344,377,409,0,9,9,9,9,0,,,,,0,0,0,0,0,23,23,32,,,,,num_4,1.0260903001762927,num_4,0.3,0.6,0.35,0.6,12.61502,21.62576,return,0.9668767000548542,,,,,,,6,21,female,left_right_width,2023_Aug_15_1306,exp1,2021.2.3,60.13015779263358,
,,,,,,,,,,,,,,,,3,9.5,10,10.5,0,0,0.5,0.4,0.1,1.1,10,initial,36.05,342,361,379,0,0,9,9,9,0,0,,,,,0,0,0,0,0,24,24,0,,,,,num_2,1.1600615999195725,num_2,0.3,1.6,0.2,0.5,7.20859,18.02146,return,5.4651611999142915,,,,,,,6,21,female,left_right_width,2023_Aug_15_1306,exp1,2021.2.3,60.13015779263358,
,,,,,,,,,,,,,,,,4,9.1,9.7,10.3,10.9,0,0.5999999999999999,0.3499999999999999,0.25,2.05,10,match,36.05,328,350,371,393,0,9,9,9,9,0,,,,,0,0,0,0,0,25,25,15,,,,,num_4,1.038711099885404,num_4,0.3,0.5,0.3,0.5,10.81288,18.02146,return,1.2355432000476867,,,,,,,6,21,female,left_right_width,2023_Aug_15_1306,exp1,2021.2.3,60.13015779263358,
,,,,,,,,,,,,,,,,5,8.6,9.3,10,10.7,11.4,0.7,0.29999999999999993,0.4,3.1999999999999997,10,initial,36.05,310,335,361,386,411,9,9,9,9,9,,,,,0,0,0,0,0,26,26,46,,,,,num_4,1.1234191998373717,num_4,0.25,1.1,0.39999999999999997,0.7,14.41717,25.23005,return,4.308647600002587,,,,,,,6,21,female,left_right_width,2023_Aug_15_1306,exp1,2021.2.3,60.13015779263358,
,,,,,,,,,,,,,,,,4,9.5,9.833333333333334,10.166666666666666,10.5,0,0.3333333333333333,0.08333333333333333,0.25,1.25,10,match,36.05,342,354,367,379,0,9,9,9,9,0,,,,,0,0,0,0,0,27,27,3,,,,,num_3,1.7819930999539793,num_3,0.35,1.2,0.35,0.5,12.61502,18.02146,return,5.16493589989841,,,,,,,6,21,female,left_right_width,2023_Aug_15_1306,exp1,2021.2.3,60.13015779263358,
,,,,,,,,,,,,,,,,5,8.95,9.475,10,10.525,11.05,0.525,0.125,0.4,2.5,10,match,36.05,323,342,361,379,398,9,9,9,9,9,,,,,0,0,0,0,0,28,28,29,,,,,num_4,0.9453924999106675,num_4,0.2,0.7,0.25,0.4,9.01073,14.41717,return,8.570555899990723,,,,,,,6,21,female,left_right_width,2023_Aug_15_1306,exp1,2021.2.3,60.13015779263358,
,,,,,,,,,,,,,,,,4,9.25,9.75,10.25,10.75,0,0.5,0.25,0.25,1.75,10,initial,36.05,333,351,370,388,0,9,9,9,9,0,,,,,0,0,0,0,0,29,29,20,,,,,num_4,1.0767624999862164,num_4,0.4,0.8,0.4,0.5,14.41717,18.02146,return,2.070579299936071,,,,,,,6,21,female,left_right_width,2023_Aug_15_1306,exp1,2021.2.3,60.13015779263358,
,,,,,,,,,,,,,,,,4,8.95,9.65,10.35,11.05,0,0.7,0.44999999999999996,0.25,2.3499999999999996,10,initial,36.05,323,348,373,398,0,9,9,9,9,0,,,,,0,0,0,0,0,30,30,26,,,,,num_4,0.8499602000229061,num_4,0.15,1.2,0.3,0.5,10.81288,18.02146,return,5.183651800034568,,,,,,,6,21,female,left_right_width,2023_Aug_15_1306,exp1,2021.2.3,60.13015779263358,
,,,,,,,,,,,,,,,,5,8.2,9.1,10,10.9,11.8,0.9,0.5,0.4,4,10,initial,36.05,296,328,361,393,425,9,9,9,9,9,,,,,0,0,0,0,0,31,31,52,,,,,num_5,1.238716100109741,num_5,0.45,1.0,0.4,0.65,14.41717,23.4279,return,3.1578757998067886,,,,,,,6,21,female,left_right_width,2023_Aug_15_1306,exp1,2021.2.3,60.13015779263358,
,,,,,,,,,,,,,,,,4,9.1,9.7,10.3,10.9,0,0.6,0.5,0.1,1.9,10,match,36.05,328,350,371,393,0,9,9,9,9,0,,,,,0,0,0,0,0,32,32,13,,,,,num_4,1.2860958001110703,num_4,0.1,0.3,0.1,0.6,3.60429,21.62576,return,2.3667806000448763,,,,,,,6,21,female,left_right_width,2023_Aug_15_1306,exp1,2021.2.3,60.13015779263358,
,,,,,,,,,,,,,,,,5,8.6,9.3,10,10.7,11.4,0.7,0.6,0.1,2.9,10,initial,36.05,310,335,361,386,411,9,9,9,9,9,,,,,0,0,0,0,0,33,33,42,,,,,num_4,0.8052435000427067,num_4,0.3,1.3,0.05000000000000002,1.2,1.80215,43.25151,return,5.075361700030044,,,,,,,6,21,female,left_right_width,2023_Aug_15_1306,exp1,2021.2.3,60.13015779263358,
,,,,,,,,,,,,,,,,3,9,10,11,0,0,1,0.9,0.1,2.1,10,match,36.05,324,361,397,0,0,9,9,9,0,0,,,,,0,0,0,0,0,34,34,37,,,,,num_3,1.3072873000055552,num_3,0.45,0.9,0.20000000000000007,0.95,7.20859,34.24078,return,5.55805839993991,,,,,,,6,21,female,left_right_width,2023_Aug_15_1306,exp1,2021.2.3,60.13015779263358,
,,,,,,,,,,,,,,,,4,8.95,9.65,10.35,11.05,0,0.7,0.29999999999999993,0.4,2.5,10,initial,36.05,323,348,373,398,0,9,9,9,9,0,,,,,0,0,0,0,0,35,35,28,,,,,num_3,0.9677635000552982,num_3,0.1,0.4,0.25,0.55,9.01073,19.82361,return,6.3348055998794734,,,,,,,6,21,female,left_right_width,2023_Aug_15_1306,exp1,2021.2.3,60.13015779263358,
,,,,,,,,,,,,,,,,4,9.1,9.7,10.3,10.9,0,0.6000000000000001,0.20000000000000004,0.4,2.2,10,match,36.05,328,350,371,393,0,9,9,9,9,0,,,,,0,0,0,0,0,36,36,17,,,,,num_4,0.9862213002052158,num_4,0.35,0.4,0.15000000000000002,0.6,5.40644,21.62576,return,7.762049600016326,,,,,,,6,21,female,left_right_width,2023_Aug_15_1306,exp1,2021.2.3,60.13015779263358,
,,,,,,,,,,,,,,,,4,9.5,9.833333333333334,10.166666666666666,10.5,0,0.33333333333333337,0.23333333333333336,0.1,1.1,10,match,36.05,342,354,367,379,0,9,9,9,9,0,,,,,0,0,0,0,0,37,37,1,,,,,num_3,1.585171699989587,num_3,0.45,0.5,0.30000000000000004,0.85,10.81288,30.63649,return,7.584999800194055,,,,,,,6,21,female,left_right_width,2023_Aug_15_1306,exp1,2021.2.3,60.13015779263358,
,,,,,,,,,,,,,,,,5,8.95,9.475,10,10.525,11.05,0.525,0.275,0.25,2.35,10,match,36.05,323,342,361,379,398,9,9,9,9,9,,,,,0,0,0,0,0,38,38,27,,,,,num_4,1.2569909000303596,num_4,0.1,1.0,0.49999999999999994,0.9,18.02146,32.43864,return,3.5719093999359757,,,,,,,6,21,female,left_right_width,2023_Aug_15_1306,exp1,2021.2.3,60.13015779263358,
,,,,,,,,,,,,,,,,5,9.175,9.5875,10,10.4125,10.825,0.4125,0.16249999999999998,0.25,1.9,10,match,36.05,331,346,361,375,390,9,9,9,9,9,,,,,0,0,0,0,0,39,39,23,,,,,num_5,1.1009154000785202,num_5,0.25,0.9,0.3,0.55,10.81288,19.82361,return,6.19092860003002,,,,,,,6,21,female,left_right_width,2023_Aug_15_1306,exp1,2021.2.3,60.13015779263358,
,,,,,,,,,,,,,,,,3,9.1,10,10.9,0,0,0.9,0.65,0.25,2.05,10,initial,36.05,328,361,393,0,0,9,9,9,0,0,,,,,0,0,0,0,0,40,40,14,,,,,num_3,1.0287321999203414,num_3,0.25,0.8,0.25,0.8,9.01073,28.83434,return,1.0323099999222904,,,,,,,6,21,female,left_right_width,2023_Aug_15_1306,exp1,2021.2.3,60.13015779263358,
,,,,,,,,,,,,,,,,5,9,9.5,10,10.5,11,0.5,0.25,0.25,2.25,10,initial,36.05,324,342,361,379,397,9,9,9,9,9,,,,,0,0,0,0,0,41,41,38,,,,,num_5,1.0260791000910103,num_5,0.2,0.7,0.2,0.7,7.20859,25.23005,return,0.9815366000402719,,,,,,,6,21,female,left_right_width,2023_Aug_15_1306,exp1,2021.2.3,60.13015779263358,
,,,,,,,,,,,,,,,,3,9.5,10,10.5,0,0,0.5,0.25,0.25,1.25,10,initial,36.05,342,361,379,0,0,9,9,9,0,0,,,,,0,0,0,0,0,42,42,2,,,,,num_3,0.8651477000676095,num_3,0.45,1.1,0.20000000000000007,1.1,7.20859,39.64722,return,2.41267709992826,,,,,,,6,21,female,left_right_width,2023_Aug_15_1306,exp1,2021.2.3,60.13015779263358,
,,,,,,,,,,,,,,,,5,8.2,9.1,10,10.9,11.8,0.9,0.8,0.1,3.7,10,initial,36.05,296,328,361,393,425,9,9,9,9,9,,,,,0,0,0,0,0,43,43,48,,,,,num_4,1.3602189000230283,num_4,0.3,0.4,0.15000000000000002,0.3,5.40644,10.81288,return,4.936058500083163,,,,,,,6,21,female,left_right_width,2023_Aug_15_1306,exp1,2021.2.3,60.13015779263358,
,,,,,,,,,,,,,,,,4,9.3,9.766666666666667,10.233333333333333,10.7,0,0.4666666666666667,0.21666666666666665,0.25,1.65,10,match,36.05,335,352,369,386,0,9,9,9,9,0,,,,,0,0,0,0,0,44,44,9,,,,,num_3,1.3564367999788374,num_3,0.15,0.9,0.35,0.85,12.61502,30.63649,return,2.0067914999090135,,,,,,,6,21,female,left_right_width,2023_Aug_15_1306,exp1,2021.2.3,60.13015779263358,
,,,,,,,,,,,,,,,,5,9.25,9.625,10,10.375,10.75,0.375,0.125,0.25,1.75,10,match,36.05,333,347,361,374,388,9,9,9,9,9,,,,,0,0,0,0,0,45,45,21,,,,,num_4,1.0726534998975694,num_4,0.1,0.7,0.39999999999999997,0.6,14.41717,21.62576,return,3.3304152998607606,,,,,,,6,21,female,left_right_width,2023_Aug_15_1306,exp1,2021.2.3,60.13015779263358,
,,,,,,,,,,,,,,,,3,8.2,10,11.8,0,0,1.8000000000000003,1.7000000000000002,0.1,3.7,10,match,36.05,296,361,425,0,0,9,9,9,0,0,,,,,0,0,0,0,0,46,46,49,,,,,num_3,1.0038561997935176,num_3,0.15,1.2,0.15000000000000002,1.4,5.40644,50.4601,return,6.482752899872139,,,,,,,6,21,female,left_right_width,2023_Aug_15_1306,exp1,2021.2.3,60.13015779263358,
,,,,,,,,,,,,,,,,5,8.2,9.1,10,10.9,11.8,0.9,0.65,0.25,3.85,10,initial,36.05,296,328,361,393,425,9,9,9,9,9,,,,,0,0,0,0,0,47,47,50,,,,,num_3,0.9601565999910235,num_3,0.2,0.3,0.15000000000000002,0.9,5.40644,32.43864,return,5.527181300101802,,,,,,,6,21,female,left_right_width,2023_Aug_15_1306,exp1,2021.2.3,60.13015779263358,
,,,,,,,,,,,,,,,,3,9.1,10,10.9,0,0,0.9,0.5,0.4,2.2,10,initial,36.05,328,361,393,0,0,9,9,9,0,0,,,,,0,0,0,0,0,48,48,16,,,,,num_3,1.1060715999919921,num_3,0.25,1.3,0.35,1.45,12.61502,52.26225,return,3.8432478001341224,,,,,,,6,21,female,left_right_width,2023_Aug_15_1306,exp1,2021.2.3,60.13015779263358,
,,,,,,,,,,,,,,,,5,9,9.5,10,10.5,11,0.5,0.4,0.1,2.1,10,initial,36.05,324,342,361,379,397,9,9,9,9,9,,,,,0,0,0,0,0,49,49,36,,,,,num_3,0.8594074998982251,num_3,0.1,0.6,0.1,0.6,3.60429,21.62576,return,0.678287599934265,,,,,,,6,21,female,left_right_width,2023_Aug_15_1306,exp1,2021.2.3,60.13015779263358,
,,,,,,,,,,,,,,,,5,8.65,9.325,10,10.675,11.35,0.675,0.42500000000000004,0.25,2.95,10,match,36.05,312,336,361,385,409,9,9,9,9,9,,,,,0,0,0,0,0,50,50,33,,,,,num_5,1.1073173000477254,num_5,0.15,0.7,0.15,0.7,5.40644,25.23005,return,0.49998790002427995,,,,,,,6,21,female,left_right_width,2023_Aug_15_1306,exp1,2021.2.3,60.13015779263358,
,,,,,,,,,,,,,,,,3,9.5,10,10.5,0,0,0.5,0.09999999999999998,0.4,1.4000000000000001,10,initial,36.05,342,361,379,0,0,9,9,9,0,0,,,,,0,0,0,0,0,51,51,4,,,,,num_3,0.8468553000129759,num_3,0.3,1.3,0.35,0.6,12.61502,21.62576,return,6.572126699844375,,,,,,,6,21,female,left_right_width,2023_Aug_15_1306,exp1,2021.2.3,60.13015779263358,
,,,,,,,,,,,,,,,,3,9.3,10,10.7,0,0,0.7,0.44999999999999996,0.25,1.65,10,initial,36.05,335,361,386,0,0,9,9,9,0,0,,,,,0,0,0,0,0,52,52,8,,,,,num_3,0.8213665999937803,num_3,0.4,1.2,0.20000000000000007,1.2,7.20859,43.25151,return,3.2520321998745203,,,,,,,6,21,female,left_right_width,2023_Aug_15_1306,exp1,2021.2.3,60.13015779263358,
,,,,,,,,,,,,,,,,3,8.525,10,11.475,0,0,1.475,1.225,0.25,3.2,10,match,36.05,307,361,414,0,0,9,9,9,0,0,,,,,0,0,0,0,0,53,53,47,,,,,num_3,1.0920947999693453,num_3,0.35,0.5,0.25,1.1,9.01073,39.64722,return,6.021978399949148,,,,,,,6,21,female,left_right_width,2023_Aug_15_1306,exp1,2021.2.3,60.13015779263358,
,,,,,,,,,,,,,,,,,,,,,,,,,,,,,,,,,,,,,,,,,,,0,0,0,0,,,,,,,,,,,,,,,,,,,,,,673.0304829000961,None,673.0304829000961,None,6,21,female,left_right_width,2023_Aug_15_1306,exp1,2021.2.3,60.13015779263358,
,,,,,,,,,,,,,,,,3,9.5,10,10.5,0,0,0.5,0.09999999999999998,0.4,1.4000000000000001,10,initial,36.05,342,361,379,0,0,9,9,9,0,0,,,,,1,0,1,0,0,0,0,4,,,,,num_3,0.9755615999456495,num_3,0.4,0.9,0.4,0.9,14.41717,32.43864,return,1.1086547998711467,,,,,,,6,21,female,left_right_width,2023_Aug_15_1306,exp1,2021.2.3,60.13015779263358,
,,,,,,,,,,,,,,,,4,8.95,9.65,10.35,11.05,0,0.7,0.29999999999999993,0.4,2.5,10,initial,36.05,323,348,373,398,0,9,9,9,9,0,,,,,1,0,1,0,0,1,1,28,,,,,num_3,0.8755721000488847,num_3,0.45,1.2,0.45,1.2,16.21932,43.25151,return,0.840109100099653,,,,,,,6,21,female,left_right_width,2023_Aug_15_1306,exp1,2021.2.3,60.13015779263358,
,,,,,,,,,,,,,,,,3,9.1,10,10.9,0,0,0.9,0.5,0.4,2.2,10,initial,36.05,328,361,393,0,0,9,9,9,0,0,,,,,1,0,1,0,0,2,2,16,,,,,num_3,0.894274199847132,num_3,0.45,0.6,0.5,0.85,18.02146,30.63649,return,2.4578875999432057,,,,,,,6,21,female,left_right_width,2023_Aug_15_1306,exp1,2021.2.3,60.13015779263358,
,,,,,,,,,,,,,,,,3,9.1,10,10.9,0,0,0.9,0.65,0.25,2.05,10,initial,36.05,328,361,393,0,0,9,9,9,0,0,,,,,1,0,1,0,0,3,3,14,,,,,num_3,0.8548701000399888,num_3,0.3,1.3,0.3,1.3,10.81288,46.85581,return,0.639057100052014,,,,,,,6,21,female,left_right_width,2023_Aug_15_1306,exp1,2021.2.3,60.13015779263358,
,,,,,,,,,,,,,,,,4,9.5,9.833333333333334,10.166666666666666,10.5,0,0.33333333333333337,0.23333333333333336,0.1,1.1,10,match,36.05,342,354,367,379,0,9,9,9,9,0,,,,,1,0,1,0,0,4,4,1,,,,,num_3,0.7694683999288827,num_3,0.25,0.4,0.10000000000000002,0.4,3.60429,14.41717,return,2.5442863998468965,,,,,,,6,21,female,left_right_width,2023_Aug_15_1306,exp1,2021.2.3,60.13015779263358,
,,,,,,,,,,,,,,,,4,9.1,9.7,10.3,10.9,0,0.6000000000000001,0.20000000000000004,0.4,2.2,10,match,36.05,328,350,371,393,0,9,9,9,9,0,,,,,1,0,1,0,0,5,5,17,,,,,num_3,0.9905356999952346,num_3,0.35,0.5,0.35,0.6,12.61502,21.62576,return,1.8943942999467254,,,,,,,6,21,female,left_right_width,2023_Aug_15_1306,exp1,2021.2.3,60.13015779263358,
,,,,,,,,,,,,,,,,4,9.3,9.766666666666667,10.233333333333333,10.7,0,0.4666666666666667,0.06666666666666665,0.4,1.8,10,match,36.05,335,352,369,386,0,9,9,9,9,0,,,,,1,0,1,0,0,6,6,11,,,,,num_3,0.7904183999635279,num_3,0.3,0.6,0.49999999999999994,0.6,18.02146,21.62576,return,2.3900498000439256,,,,,,,6,21,female,left_right_width,2023_Aug_15_1306,exp1,2021.2.3,60.13015779263358,
,,,,,,,,,,,,,,,,5,8.6,9.3,10,10.7,11.4,0.7,0.6,0.1,2.9,10,initial,36.05,310,335,361,386,411,9,9,9,9,9,,,,,1,0,1,0,0,7,7,42,,,,,num_4,1.1963010001927614,num_4,0.4,0.5,0.10000000000000007,0.9,3.60429,32.43864,return,5.482627500081435,,,,,,,6,21,female,left_right_width,2023_Aug_15_1306,exp1,2021.2.3,60.13015779263358,
,,,,,,,,,,,,,,,,3,8.2,10,11.8,0,0,1.8,1.55,0.25,3.85,10,match,36.05,296,361,425,0,0,9,9,9,0,0,,,,,1,0,1,0,0,8,8,51,,,,,num_3,0.9127511000260711,num_3,0.1,1.1,0.3,1.1,10.81288,39.64722,return,3.72449960000813,,,,,,,6,21,female,left_right_width,2023_Aug_15_1306,exp1,2021.2.3,60.13015779263358,
,,,,,,,,,,,,,,,,5,8.95,9.475,10,10.525,11.05,0.525,0.275,0.25,2.35,10,match,36.05,323,342,361,379,398,9,9,9,9,9,,,,,1,0,1,0,0,9,9,27,,,,,num_4,0.9948524001520127,num_4,0.15,0.9,0.15,0.9,5.40644,32.43864,return,0.5680007000919431,,,,,,,6,21,female,left_right_width,2023_Aug_15_1306,exp1,2021.2.3,60.13015779263358,
,,,,,,,,,,,,,,,,5,8.2,9.1,10,10.9,11.8,0.9,0.5,0.4,4,10,initial,36.05,296,328,361,393,425,9,9,9,9,9,,,,,1,0,1,0,0,10,10,52,,,,,num_5,1.056192999938503,num_5,0.15,1.1,0.39999999999999997,1.1,14.41717,39.64722,return,4.196573999943212,,,,,,,6,21,female,left_right_width,2023_Aug_15_1306,exp1,2021.2.3,60.13015779263358,
,,,,,,,,,,,,,,,,4,9.425,9.808333333333334,10.191666666666666,10.575,0,0.3833333333333333,0.1333333333333333,0.25,1.4,10,match,36.05,340,354,367,381,0,9,9,9,9,0,,,,,1,0,1,0,0,11,11,5,,,,,num_3,1.0714666999410838,num_3,0.3,0.7,0.3,0.7,10.81288,25.23005,return,0.7057886999100447,,,,,,,6,21,female,left_right_width,2023_Aug_15_1306,exp1,2021.2.3,60.13015779263358,
,,,,,,,,,,,,,,,,5,9,9.5,10,10.5,11,0.5,0.25,0.25,2.25,10,initial,36.05,324,342,361,379,397,9,9,9,9,9,,,,,1,0,1,0,0,12,12,38,,,,,num_4,0.9274457001592964,num_4,0.1,1.1,0.44999999999999996,1.1,16.21932,39.64722,return,4.695269400021061,,,,,,,6,21,female,left_right_width,2023_Aug_15_1306,exp1,2021.2.3,60.13015779263358,
,,,,,,,,,,,,,,,,4,9.25,9.75,10.25,10.75,0,0.5,0.25,0.25,1.75,10,initial,36.05,333,351,370,388,0,9,9,9,9,0,,,,,1,0,1,0,0,13,13,20,,,,,num_4,0.9061893001198769,num_4,0.15,0.5,0.3,0.5,10.81288,18.02146,return,2.9637468000873923,,,,,,,6,21,female,left_right_width,2023_Aug_15_1306,exp1,2021.2.3,60.13015779263358,
,,,,,,,,,,,,,,,,5,9,9.5,10,10.5,11,0.5,0.4,0.1,2.1,10,initial,36.05,324,342,361,379,397,9,9,9,9,9,,,,,1,0,1,0,0,14,14,36,,,,,num_4,0.9866939999628812,num_4,0.45,0.8,0.10000000000000007,0.8,3.60429,28.83434,return,4.193784500006586,,,,,,,6,21,female,left_right_width,2023_Aug_15_1306,exp1,2021.2.3,60.13015779263358,
,,,,,,,,,,,,,,,,4,9.5,9.833333333333334,10.166666666666666,10.5,0,0.3333333333333333,0.08333333333333333,0.25,1.25,10,match,36.05,342,354,367,379,0,9,9,9,9,0,,,,,1,0,1,0,0,15,15,3,,,,,num_3,1.766624900046736,num_3,0.15,1.3,0.44999999999999996,0.7,16.21932,25.23005,return,8.255201400024816,,,,,,,6,21,female,left_right_width,2023_Aug_15_1306,exp1,2021.2.3,60.13015779263358,
,,,,,,,,,,,,,,,,3,9,10,11,0,0,1,0.75,0.25,2.25,10,match,36.05,324,361,397,0,0,9,9,9,0,0,,,,,1,0,1,0,0,16,16,39,,,,,num_3,1.0511840998660773,num_3,0.3,0.6,0.10000000000000002,0.55,3.60429,19.82361,return,3.1503801001235843,,,,,,,6,21,female,left_right_width,2023_Aug_15_1306,exp1,2021.2.3,60.13015779263358,
,,,,,,,,,,,,,,,,3,8.2,10,11.8,0,0,1.8000000000000003,1.7000000000000002,0.1,3.7,10,match,36.05,296,361,425,0,0,9,9,9,0,0,,,,,1,0,1,0,0,17,17,49,,,,,num_3,1.275609500007704,num_3,0.35,1.2,0.05000000000000002,1.2,1.80215,43.25151,return,4.596820599865168,,,,,,,6,21,female,left_right_width,2023_Aug_15_1306,exp1,2021.2.3,60.13015779263358,
,,,,,,,,,,,,,,,,4,9.1,9.7,10.3,10.9,0,0.6,0.5,0.1,1.9,10,match,36.05,328,350,371,393,0,9,9,9,9,0,,,,,1,0,1,0,0,18,18,13,,,,,num_3,0.8980770001653582,num_3,0.25,1.2,0.15000000000000002,1.2,5.40644,43.25151,return,3.6921997000463307,,,,,,,6,21,female,left_right_width,2023_Aug_15_1306,exp1,2021.2.3,60.13015779263358,
,,,,,,,,,,,,,,,,4,8.95,9.65,10.35,11.05,0,0.7,0.6,0.1,2.1999999999999997,10,initial,36.05,323,348,373,398,0,9,9,9,9,0,,,,,1,0,1,0,0,19,19,24,,,,,num_3,0.934360999846831,num_3,0.2,0.3,0.10000000000000002,0.4,3.60429,14.41717,return,4.736426200019196,,,,,,,6,21,female,left_right_width,2023_Aug_15_1306,exp1,2021.2.3,60.13015779263358,
,,,,,,,,,,,,,,,,4,9.3,9.766666666666667,10.233333333333333,10.7,0,0.4666666666666667,0.3666666666666667,0.1,1.5,10,match,36.05,335,352,369,386,0,9,9,9,9,0,,,,,1,0,1,0,0,20,20,7,,,,,num_3,0.8572543000336736,num_3,0.25,1.3,0.10000000000000002,1.3,3.60429,46.85581,return,5.669658599887043,,,,,,,6,21,female,left_right_width,2023_Aug_15_1306,exp1,2021.2.3,60.13015779263358,
,,,,,,,,,,,,,,,,3,9.3,10,10.7,0,0,0.7,0.44999999999999996,0.25,1.65,10,initial,36.05,335,361,386,0,0,9,9,9,0,0,,,,,1,0,1,0,0,21,21,8,,,,,num_3,0.9442928000353277,num_3,0.1,0.7,0.25,0.7,9.01073,25.23005,return,2.4715168999973685,,,,,,,6,21,female,left_right_width,2023_Aug_15_1306,exp1,2021.2.3,60.13015779263358,
,,,,,,,,,,,,,,,,4,9.3,9.766666666666667,10.233333333333333,10.7,0,0.4666666666666667,0.21666666666666665,0.25,1.65,10,match,36.05,335,352,369,386,0,9,9,9,9,0,,,,,1,0,1,0,0,22,22,9,,,,,num_3,0.8866573001723737,num_3,0.3,1.2,0.35,1.2,12.61502,43.25151,return,1.3466194001957774,,,,,,,6,21,female,left_right_width,2023_Aug_15_1306,exp1,2021.2.3,60.13015779263358,
,,,,,,,,,,,,,,,,4,8.65,9.55,10.45,11.35,0,0.9,0.8,0.1,2.8000000000000003,10,initial,36.05,312,344,377,409,0,9,9,9,9,0,,,,,1,0,1,0,0,23,23,30,,,,,num_3,0.908829300198704,num_3,0.45,0.9,0.05000000000000007,0.9,1.80215,32.43864,return,3.973396100103855,,,,,,,6,21,female,left_right_width,2023_Aug_15_1306,exp1,2021.2.3,60.13015779263358,
,,,,,,,,,,,,,,,,5,8.95,9.475,10,10.525,11.05,0.525,0.42500000000000004,0.1,2.2,10,match,36.05,323,342,361,379,398,9,9,9,9,9,,,,,1,0,1,0,0,24,24,25,,,,,num_3,0.8745086998678744,num_3,0.45,1.2,0.10000000000000007,1.2,3.60429,43.25151,return,4.313319999957457,,,,,,,6,21,female,left_right_width,2023_Aug_15_1306,exp1,2021.2.3,60.13015779263358,
,,,,,,,,,,,,,,,,5,8.65,9.325,10,10.675,11.35,0.6749999999999999,0.575,0.1,2.8,10,match,36.05,312,336,361,385,409,9,9,9,9,9,,,,,1,0,1,0,0,25,25,31,,,,,num_4,1.3187393001280725,num_4,0.4,0.6,0.15000000000000008,0.6,5.40644,21.62576,return,4.334645499940962,,,,,,,6,21,female,left_right_width,2023_Aug_15_1306,exp1,2021.2.3,60.13015779263358,
,,,,,,,,,,,,,,,,3,9.5,10,10.5,0,0,0.5,0.4,0.1,1.1,10,initial,36.05,342,361,379,0,0,9,9,9,0,0,,,,,1,0,1,0,0,26,26,0,,,,,num_3,0.8802076000720263,num_3,0.4,0.9,0.05000000000000007,0.9,1.80215,32.43864,return,2.635517399990931,,,,,,,6,21,female,left_right_width,2023_Aug_15_1306,exp1,2021.2.3,60.13015779263358,
,,,,,,,,,,,,,,,,4,9.1,9.7,10.3,10.9,0,0.5999999999999999,0.3499999999999999,0.25,2.05,10,match,36.05,328,350,371,393,0,9,9,9,9,0,,,,,1,0,1,0,0,27,27,15,,,,,num_3,0.8479931999463588,num_3,0.35,0.9,0.35,0.9,12.61502,32.43864,return,1.6904123001731932,,,,,,,6,21,female,left_right_width,2023_Aug_15_1306,exp1,2021.2.3,60.13015779263358,
,,,,,,,,,,,,,,,,5,8.2,9.1,10,10.9,11.8,0.9,0.65,0.25,3.85,10,initial,36.05,296,328,361,393,425,9,9,9,9,9,,,,,1,0,1,0,0,28,28,50,,,,,num_4,1.1532099999021739,num_4,0.45,0.8,0.15000000000000008,0.8,5.40644,28.83434,return,4.146529500139877,,,,,,,6,21,female,left_right_width,2023_Aug_15_1306,exp1,2021.2.3,60.13015779263358,
,,,,,,,,,,,,,,,,3,9.5,10,10.5,0,0,0.5,0.25,0.25,1.25,10,initial,36.05,342,361,379,0,0,9,9,9,0,0,,,,,1,0,1,0,0,29,29,2,,,,,num_3,1.028867700137198,num_3,0.1,1.3,0.44999999999999996,1.3,16.21932,46.85581,return,2.34637639997527,,,,,,,6,21,female,left_right_width,2023_Aug_15_1306,exp1,2021.2.3,60.13015779263358,
,,,,,,,,,,,,,,,,4,8.65,9.55,10.45,11.35,0,0.9,0.5,0.4,3.1,10,initial,36.05,312,344,377,409,0,9,9,9,9,0,,,,,1,0,1,0,0,30,30,34,,,,,num_3,0.9737310998607427,num_3,0.45,1,0.25000000000000006,0.95,9.01073,34.24078,return,4.982004799880087,,,,,,,6,21,female,left_right_width,2023_Aug_15_1306,exp1,2021.2.3,60.13015779263358,
,,,,,,,,,,,,,,,,5,8.65,9.325,10,10.675,11.35,0.675,0.275,0.4,3.1,10,match,36.05,312,336,361,385,409,9,9,9,9,9,,,,,1,0,1,0,0,31,31,35,,,,,num_4,0.990753100020811,num_4,0.45,0.5,0.45,1.1,16.21932,39.64722,return,2.437853500014171,,,,,,,6,21,female,left_right_width,2023_Aug_15_1306,exp1,2021.2.3,60.13015779263358,
,,,,,,,,,,,,,,,,3,8.525,10,11.475,0,0,1.475,1.225,0.25,3.2,10,match,36.05,307,361,414,0,0,9,9,9,0,0,,,,,1,0,1,0,0,32,32,47,,,,,num_2,1.3573274000082165,num_2,0.2,1.6,0.44999999999999996,1.6,16.21932,57.66869,return,4.08574160002172,,,,,,,6,21,female,left_right_width,2023_Aug_15_1306,exp1,2021.2.3,60.13015779263358,
,,,,,,,,,,,,,,,,3,9.3,10,10.7,0,0,0.7,0.29999999999999993,0.4,1.8,10,initial,36.05,335,361,386,0,0,9,9,9,0,0,,,,,1,0,1,0,0,33,33,10,,,,,num_3,0.9234633999876678,num_3,0.1,1.3,0.44999999999999996,1.3,16.21932,46.85581,return,3.0753893998917192,,,,,,,6,21,female,left_right_width,2023_Aug_15_1306,exp1,2021.2.3,60.13015779263358,
,,,,,,,,,,,,,,,,5,8.6,9.3,10,10.7,11.4,0.7,0.44999999999999996,0.25,3.05,10,initial,36.05,310,335,361,386,411,9,9,9,9,9,,,,,1,0,1,0,0,34,34,44,,,,,num_4,1.0407483999151736,num_4,0.35,0.7,0.39999999999999997,0.7,14.41717,25.23005,return,0.6122719999402761,,,,,,,6,21,female,left_right_width,2023_Aug_15_1306,exp1,2021.2.3,60.13015779263358,
,,,,,,,,,,,,,,,,5,8.2,9.1,10,10.9,11.8,0.9,0.8,0.1,3.7,10,initial,36.05,296,328,361,393,425,9,9,9,9,9,,,,,1,0,1,0,0,35,35,48,,,,,num_3,0.7941431000363082,num_3,0.3,0.5,0.05000000000000002,1.0,1.80215,36.04293,return,5.000822399975732,,,,,,,6,21,female,left_right_width,2023_Aug_15_1306,exp1,2021.2.3,60.13015779263358,
,,,,,,,,,,,,,,,,4,8.95,9.65,10.35,11.05,0,0.7,0.44999999999999996,0.25,2.3499999999999996,10,initial,36.05,323,348,373,398,0,9,9,9,9,0,,,,,1,0,1,0,0,36,36,26,,,,,num_3,0.8495100999716669,num_3,0.1,0.8,0.35,0.75,12.61502,27.0322,return,3.1028221999295056,,,,,,,6,21,female,left_right_width,2023_Aug_15_1306,exp1,2021.2.3,60.13015779263358,
,,,,,,,,,,,,,,,,3,9.3,10,10.7,0,0,0.7,0.6,0.1,1.5,10,initial,36.05,335,361,386,0,0,9,9,9,0,0,,,,,1,0,1,0,0,37,37,6,,,,,num_2,0.8009705999866128,num_2,0.3,1.6,0.10000000000000002,1.6,3.60429,57.66869,return,2.6059650001116097,,,,,,,6,21,female,left_right_width,2023_Aug_15_1306,exp1,2021.2.3,60.13015779263358,
,,,,,,,,,,,,,,,,3,9,10,11,0,0,1,0.9,0.1,2.1,10,match,36.05,324,361,397,0,0,9,9,9,0,0,,,,,1,0,1,0,0,38,38,37,,,,,num_2,0.9276240998879075,num_2,0.2,1.6,0.15000000000000002,1.6,5.40644,57.66869,return,1.1138571999035776,,,,,,,6,21,female,left_right_width,2023_Aug_15_1306,exp1,2021.2.3,60.13015779263358,
,,,,,,,,,,,,,,,,4,9.25,9.75,10.25,10.75,0,0.5,0.09999999999999998,0.4,1.9,10,initial,36.05,333,351,370,388,0,9,9,9,9,0,,,,,1,0,1,0,0,39,39,22,,,,,num_3,1.5356022999621928,num_3,0.15,1,0.7500000000000001,0.9,27.0322,32.43864,return,5.887280999915674,,,,,,,6,21,female,left_right_width,2023_Aug_15_1306,exp1,2021.2.3,60.13015779263358,
,,,,,,,,,,,,,,,,3,9,10,11,0,0,0.9999999999999999,0.5999999999999999,0.4,2.4,10,match,36.05,324,361,397,0,0,9,9,9,0,0,,,,,1,0,1,0,0,40,40,41,,,,,num_3,0.9176751000341028,num_3,0.4,1.2,0.45,1.2,16.21932,43.25151,return,1.0700124001596123,,,,,,,6,21,female,left_right_width,2023_Aug_15_1306,exp1,2021.2.3,60.13015779263358,
,,,,,,,,,,,,,,,,4,9.25,9.75,10.25,10.75,0,0.5,0.4,0.1,1.6,10,initial,36.05,333,351,370,388,0,9,9,9,9,0,,,,,1,0,1,0,0,41,41,18,,,,,num_4,1.691261500120163,num_4,0.15,1.2,0.2,1.2,7.20859,43.25151,return,0.8226594000589103,,,,,,,6,21,female,left_right_width,2023_Aug_15_1306,exp1,2021.2.3,60.13015779263358,
,,,,,,,,,,,,,,,,5,9,9.5,10,10.5,11,0.5,0.09999999999999998,0.4,2.4,10,initial,36.05,324,342,361,379,397,9,9,9,9,9,,,,,1,0,1,0,0,42,42,40,,,,,num_3,0.8563806999009103,num_3,0.2,1.2,0.5499999999999999,0.8,19.82361,28.83434,return,5.506381099810824,,,,,,,6,21,female,left_right_width,2023_Aug_15_1306,exp1,2021.2.3,60.13015779263358,
,,,,,,,,,,,,,,,,5,9.25,9.625,10,10.375,10.75,0.375,0.275,0.1,1.6,10,match,36.05,333,347,361,374,388,9,9,9,9,9,,,,,1,0,1,0,0,43,43,19,,,,,num_4,1.4185846000909805,num_4,0.1,0.4,0.1,0.4,3.60429,14.41717,return,0.49568439996801317,,,,,,,6,21,female,left_right_width,2023_Aug_15_1306,exp1,2021.2.3,60.13015779263358,
,,,,,,,,,,,,,,,,5,8.65,9.325,10,10.675,11.35,0.675,0.42500000000000004,0.25,2.95,10,match,36.05,312,336,361,385,409,9,9,9,9,9,,,,,1,0,1,0,0,44,44,33,,,,,num_4,1.123530900105834,num_4,0.15,0.9,0.15,0.9,5.40644,32.43864,return,0.5016822000034153,,,,,,,6,21,female,left_right_width,2023_Aug_15_1306,exp1,2021.2.3,60.13015779263358,
,,,,,,,,,,,,,,,,4,8.65,9.55,10.45,11.35,0,0.9,0.65,0.25,2.95,10,initial,36.05,312,344,377,409,0,9,9,9,9,0,,,,,1,0,1,0,0,45,45,32,,,,,num_3,2.8018118001054972,num_3,0.3,1.2,0.3,1.2,10.81288,43.25151,return,0.6230132000055164,,,,,,,6,21,female,left_right_width,2023_Aug_15_1306,exp1,2021.2.3,60.13015779263358,
,,,,,,,,,,,,,,,,3,8.2,10,11.8,0,0,1.7999999999999998,1.4,0.4,4,10,match,36.05,296,361,425,0,0,9,9,9,0,0,,,,,1,0,1,0,0,46,46,53,,,,,num_3,0.9122631999198347,num_3,0.15,1.2,0.49999999999999994,1.2,18.02146,43.25151,return,3.08230539993383,,,,,,,6,21,female,left_right_width,2023_Aug_15_1306,exp1,2021.2.3,60.13015779263358,
,,,,,,,,,,,,,,,,5,8.95,9.475,10,10.525,11.05,0.525,0.125,0.4,2.5,10,match,36.05,323,342,361,379,398,9,9,9,9,9,,,,,1,0,1,0,0,47,47,29,,,,,num_3,1.0521726999431849,num_3,0.1,0.9,0.49999999999999994,0.9,18.02146,32.43864,return,2.127004799898714,,,,,,,6,21,female,left_right_width,2023_Aug_15_1306,exp1,2021.2.3,60.13015779263358,
,,,,,,,,,,,,,,,,3,9.1,10,10.9,0,0,0.9,0.8,0.1,1.9000000000000001,10,initial,36.05,328,361,393,0,0,9,9,9,0,0,,,,,1,0,1,0,0,48,48,12,,,,,num_2,0.9159754000138491,num_2,0.15,1.6,0.2,1.6,7.20859,57.66869,return,0.6801220001652837,,,,,,,6,21,female,left_right_width,2023_Aug_15_1306,exp1,2021.2.3,60.13015779263358,
,,,,,,,,,,,,,,,,3,8.6,10,11.4,0,0,1.4,1.15,0.25,3.05,10,match,36.05,310,361,411,0,0,9,9,9,0,0,,,,,1,0,1,0,0,49,49,45,,,,,num_2,0.934447200037539,num_2,0.3,1.6,0.49999999999999994,1.6,18.02146,57.66869,return,1.6149524000938982,,,,,,,6,21,female,left_right_width,2023_Aug_15_1306,exp1,2021.2.3,60.13015779263358,
,,,,,,,,,,,,,,,,5,8.6,9.3,10,10.7,11.4,0.7,0.29999999999999993,0.4,3.1999999999999997,10,initial,36.05,310,335,361,386,411,9,9,9,9,9,,,,,1,0,1,0,0,50,50,46,,,,,num_4,1.3089461999479681,num_4,0.35,1.2,0.6,0.9,21.62576,32.43864,return,3.1254416999872774,,,,,,,6,21,female,left_right_width,2023_Aug_15_1306,exp1,2021.2.3,60.13015779263358,
,,,,,,,,,,,,,,,,5,9.175,9.5875,10,10.4125,10.825,0.4125,0.16249999999999998,0.25,1.9,10,match,36.05,331,346,361,375,390,9,9,9,9,9,,,,,1,0,1,0,0,51,51,23,,,,,num_5,1.2430047001689672,num_5,0.45,0.6,0.45,0.6,16.21932,21.62576,return,0.5815318000968546,,,,,,,6,21,female,left_right_width,2023_Aug_15_1306,exp1,2021.2.3,60.13015779263358,
,,,,,,,,,,,,,,,,5,9.25,9.625,10,10.375,10.75,0.375,0.125,0.25,1.75,10,match,36.05,333,347,361,374,388,9,9,9,9,9,,,,,1,0,1,0,0,52,52,21,,,,,num_5,0.8716615000739694,num_5,0.45,1.1,0.45,1.1,16.21932,39.64722,return,0.24376959982328117,,,,,,,6,21,female,left_right_width,2023_Aug_15_1306,exp1,2021.2.3,60.13015779263358,
,,,,,,,,,,,,,,,,3,8.6,10,11.4,0,0,1.4,1.2999999999999998,0.1,2.9,10,match,36.05,310,361,411,0,0,9,9,9,0,0,,,,,1,0,1,0,0,53,53,43,,,,,num_2,0.9762665999587625,num_2,0.1,1.6,0.10000000000000002,2.6,3.60429,93.71161,return,6.805523099843413,,,,,,,6,21,female,left_right_width,2023_Aug_15_1306,exp1,2021.2.3,60.13015779263358,
,,,,,,,,,,,,,,,,,,,,,,,,,,,,,,,,,,,,,,,,,,,1,0,1,0,,,,,,,,,,,,,,,,,,,,,,1052.9928560000844,None,1052.9928560000844,None,6,21,female,left_right_width,2023_Aug_15_1306,exp1,2021.2.3,60.13015779263358,
,,,,,,,,,,,,,,,,3,8.525,10,11.475,0,0,1.475,1.225,0.25,3.2,10,match,36.05,307,361,414,0,0,9,9,9,0,0,,,,,2,0,2,0,0,0,0,47,,,,,num_2,0.9387697000056505,num_2,0.45,1.6,0.30000000000000004,1.3,10.81288,46.85581,return,2.7891869000159204,,,,,,,6,21,female,left_right_width,2023_Aug_15_1306,exp1,2021.2.3,60.13015779263358,
,,,,,,,,,,,,,,,,5,8.2,9.1,10,10.9,11.8,0.9,0.5,0.4,4,10,initial,36.05,296,328,361,393,425,9,9,9,9,9,,,,,2,0,2,0,0,1,1,52,,,,,num_4,1.0256820998620242,num_4,0.2,0.6,0.39999999999999997,0.5,14.41717,18.02146,return,1.3840272999368608,,,,,,,6,21,female,left_right_width,2023_Aug_15_1306,exp1,2021.2.3,60.13015779263358,
,,,,,,,,,,,,,,,,4,8.95,9.65,10.35,11.05,0,0.7,0.44999999999999996,0.25,2.3499999999999996,10,initial,36.05,323,348,373,398,0,9,9,9,9,0,,,,,2,0,2,0,0,2,2,26,,,,,num_3,0.7528072001878172,num_3,0.3,0.4,0.35,0.65,12.61502,23.4279,return,2.7358264999929816,,,,,,,6,21,female,left_right_width,2023_Aug_15_1306,exp1,2021.2.3,60.13015779263358,
,,,,,,,,,,,,,,,,4,8.95,9.65,10.35,11.05,0,0.7,0.6,0.1,2.1999999999999997,10,initial,36.05,323,348,373,398,0,9,9,9,9,0,,,,,2,0,2,0,0,3,3,24,,,,,num_4,1.0852246000431478,num_4,0.1,1.1,0.1,1.1,3.60429,39.64722,return,0.4155748998746276,,,,,,,6,21,female,left_right_width,2023_Aug_15_1306,exp1,2021.2.3,60.13015779263358,
,,,,,,,,,,,,,,,,4,9.5,9.833333333333334,10.166666666666666,10.5,0,0.33333333333333337,0.23333333333333336,0.1,1.1,10,match,36.05,342,354,367,379,0,9,9,9,9,0,,,,,2,0,2,0,0,4,4,1,,,,,num_2,0.9728258999530226,num_2,0.25,1.6,0.10000000000000002,0.7,3.60429,25.23005,return,4.1807754000183195,,,,,,,6,21,female,left_right_width,2023_Aug_15_1306,exp1,2021.2.3,60.13015779263358,
,,,,,,,,,,,,,,,,3,9.3,10,10.7,0,0,0.7,0.29999999999999993,0.4,1.8,10,initial,36.05,335,361,386,0,0,9,9,9,0,0,,,,,2,0,2,0,0,5,5,10,,,,,num_3,0.9449242001865059,num_3,0.4,1.1,0.4,1.1,14.41717,39.64722,return,0.3617559999693185,,,,,,,6,21,female,left_right_width,2023_Aug_15_1306,exp1,2021.2.3,60.13015779263358,
,,,,,,,,,,,,,,,,5,8.65,9.325,10,10.675,11.35,0.6749999999999999,0.575,0.1,2.8,10,match,36.05,312,336,361,385,409,9,9,9,9,9,,,,,2,0,2,0,0,6,6,31,,,,,num_4,1.0221819998696446,num_4,0.35,0.6,0.15000000000000002,1.0,5.40644,36.04293,return,4.418017900083214,,,,,,,6,21,female,left_right_width,2023_Aug_15_1306,exp1,2021.2.3,60.13015779263358,
,,,,,,,,,,,,,,,,5,8.6,9.3,10,10.7,11.4,0.7,0.44999999999999996,0.25,3.05,10,initial,36.05,310,335,361,386,411,9,9,9,9,9,,,,,2,0,2,0,0,7,7,44,,,,,num_4,0.9221499999985099,num_4,0.2,0.7,0.2,0.7,7.20859,25.23005,return,0.5641356999985874,,,,,,,6,21,female,left_right_width,2023_Aug_15_1306,exp1,2021.2.3,60.13015779263358,
,,,,,,,,,,,,,,,,4,9.25,9.75,10.25,10.75,0,0.5,0.4,0.1,1.6,10,initial,36.05,333,351,370,388,0,9,9,9,9,0,,,,,2,0,2,0,0,8,8,18,,,,,num_3,0.8161114000249654,num_3,0.15,0.3,0.09999999999999999,0.45,3.60429,16.21932,return,3.182752100052312,,,,,,,6,21,female,left_right_width,2023_Aug_15_1306,exp1,2021.2.3,60.13015779263358,
,,,,,,,,,,,,,,,,5,8.65,9.325,10,10.675,11.35,0.675,0.42500000000000004,0.25,2.95,10,match,36.05,312,336,361,385,409,9,9,9,9,9,,,,,2,0,2,0,0,9,9,33,,,,,num_4,0.9041615999303758,num_4,0.1,0.8,0.2,0.7,7.20859,25.23005,return,1.5233113998547196,,,,,,,6,21,female,left_right_width,2023_Aug_15_1306,exp1,2021.2.3,60.13015779263358,
,,,,,,,,,,,,,,,,4,9.3,9.766666666666667,10.233333333333333,10.7,0,0.4666666666666667,0.21666666666666665,0.25,1.65,10,match,36.05,335,352,369,386,0,9,9,9,9,0,,,,,2,0,2,0,0,10,10,9,,,,,num_4,1.0463120001368225,num_4,0.45,1.2,0.30000000000000004,1.3,10.81288,46.85581,return,3.3386860000900924,,,,,,,6,21,female,left_right_width,2023_Aug_15_1306,exp1,2021.2.3,60.13015779263358,
,,,,,,,,,,,,,,,,3,9.5,10,10.5,0,0,0.5,0.4,0.1,1.1,10,initial,36.05,342,361,379,0,0,9,9,9,0,0,,,,,2,0,2,0,0,11,11,0,,,,,num_2,0.9581236999947578,num_2,0.25,1.6,0.15000000000000002,1.3,5.40644,46.85581,return,2.100226900074631,,,,,,,6,21,female,left_right_width,2023_Aug_15_1306,exp1,2021.2.3,60.13015779263358,
,,,,,,,,,,,,,,,,5,9,9.5,10,10.5,11,0.5,0.25,0.25,2.25,10,initial,36.05,324,342,361,379,397,9,9,9,9,9,,,,,2,0,2,0,0,12,12,38,,,,,num_5,0.9233375999610871,num_5,0.15,1.3,0.3,0.9,10.81288,32.43864,return,4.051314399810508,,,,,,,6,21,female,left_right_width,2023_Aug_15_1306,exp1,2021.2.3,60.13015779263358,
,,,,,,,,,,,,,,,,4,9.3,9.766666666666667,10.233333333333333,10.7,0,0.4666666666666667,0.3666666666666667,0.1,1.5,10,match,36.05,335,352,369,386,0,9,9,9,9,0,,,,,2,0,2,0,0,13,13,7,,,,,num_4,0.9661072997841984,num_4,0.2,1.2,0.10000000000000002,1.2,3.60429,43.25151,return,1.6769250000361353,,,,,,,6,21,female,left_right_width,2023_Aug_15_1306,exp1,2021.2.3,60.13015779263358,
,,,,,,,,,,,,,,,,5,8.2,9.1,10,10.9,11.8,0.9,0.8,0.1,3.7,10,initial,36.05,296,328,361,393,425,9,9,9,9,9,,,,,2,0,2,0,0,14,14,48,,,,,num_4,0.9463217998854816,num_4,0.15,0.3,0.10000000000000002,0.7,3.60429,25.23005,return,2.84272009995766,,,,,,,6,21,female,left_right_width,2023_Aug_15_1306,exp1,2021.2.3,60.13015779263358,
,,,,,,,,,,,,,,,,4,8.65,9.55,10.45,11.35,0,0.9,0.65,0.25,2.95,10,initial,36.05,312,344,377,409,0,9,9,9,9,0,,,,,2,0,2,0,0,15,15,32,,,,,num_4,1.0088068000040948,num_4,0.3,0.4,0.10000000000000002,0.7,3.60429,25.23005,return,4.182617099955678,,,,,,,6,21,female,left_right_width,2023_Aug_15_1306,exp1,2021.2.3,60.13015779263358,
,,,,,,,,,,,,,,,,3,9,10,11,0,0,0.9999999999999999,0.5999999999999999,0.4,2.4,10,match,36.05,324,361,397,0,0,9,9,9,0,0,,,,,2,0,2,0,0,16,16,41,,,,,num_3,0.9722137998323888,num_3,0.1,1.2,0.49999999999999994,1.2,18.02146,43.25151,return,2.1177012999542058,,,,,,,6,21,female,left_right_width,2023_Aug_15_1306,exp1,2021.2.3,60.13015779263358,
,,,,,,,,,,,,,,,,3,9.5,10,10.5,0,0,0.5,0.09999999999999998,0.4,1.4000000000000001,10,initial,36.05,342,361,379,0,0,9,9,9,0,0,,,,,2,0,2,0,0,17,17,4,,,,,num_3,0.8561243999283761,num_3,0.25,1.3,0.49999999999999994,0.95,18.02146,34.24078,return,4.7873845000285655,,,,,,,6,21,female,left_right_width,2023_Aug_15_1306,exp1,2021.2.3,60.13015779263358,
,,,,,,,,,,,,,,,,4,8.95,9.65,10.35,11.05,0,0.7,0.29999999999999993,0.4,2.5,10,initial,36.05,323,348,373,398,0,9,9,9,9,0,,,,,2,0,2,0,0,18,18,28,,,,,num_4,0.9392928997986019,num_4,0.2,1.0,0.6,1.0,21.62576,36.04293,return,1.9706927998922765,,,,,,,6,21,female,left_right_width,2023_Aug_15_1306,exp1,2021.2.3,60.13015779263358,
,,,,,,,,,,,,,,,,5,8.6,9.3,10,10.7,11.4,0.7,0.29999999999999993,0.4,3.1999999999999997,10,initial,36.05,310,335,361,386,411,9,9,9,9,9,,,,,2,0,2,0,0,19,19,46,,,,,num_4,0.9881056000012904,num_4,0.4,0.8,0.45,0.8,16.21932,28.83434,return,0.6417233999818563,,,,,,,6,21,female,left_right_width,2023_Aug_15_1306,exp1,2021.2.3,60.13015779263358,
,,,,,,,,,,,,,,,,5,9,9.5,10,10.5,11,0.5,0.4,0.1,2.1,10,initial,36.05,324,342,361,379,397,9,9,9,9,9,,,,,2,0,2,0,0,20,20,36,,,,,num_4,1.1482023000717163,num_4,0.1,0.5,0.25,0.5,9.01073,18.02146,return,3.8859572999645025,,,,,,,6,21,female,left_right_width,2023_Aug_15_1306,exp1,2021.2.3,60.13015779263358,
,,,,,,,,,,,,,,,,3,9,10,11,0,0,1,0.75,0.25,2.25,10,match,36.05,324,361,397,0,0,9,9,9,0,0,,,,,2,0,2,0,0,21,21,39,,,,,num_3,0.8147826001513749,num_3,0.3,0.7,0.10000000000000002,0.65,3.60429,23.4279,return,2.2705422998405993,,,,,,,6,21,female,left_right_width,2023_Aug_15_1306,exp1,2021.2.3,60.13015779263358,
,,,,,,,,,,,,,,,,4,9.5,9.833333333333334,10.166666666666666,10.5,0,0.3333333333333333,0.08333333333333333,0.25,1.25,10,match,36.05,342,354,367,379,0,9,9,9,9,0,,,,,2,0,2,0,0,22,22,3,,,,,num_4,1.0454802999738604,num_4,0.3,1.1,0.3,0.5,10.81288,18.02146,return,5.466943500097841,,,,,,,6,21,female,left_right_width,2023_Aug_15_1306,exp1,2021.2.3,60.13015779263358,
,,,,,,,,,,,,,,,,4,9.1,9.7,10.3,10.9,0,0.5999999999999999,0.3499999999999999,0.25,2.05,10,match,36.05,328,350,371,393,0,9,9,9,9,0,,,,,2,0,2,0,0,23,23,15,,,,,num_3,0.8651440998073667,num_3,0.25,0.6,0.25,0.6,9.01073,21.62576,return,0.5101755999494344,,,,,,,6,21,female,left_right_width,2023_Aug_15_1306,exp1,2021.2.3,60.13015779263358,
,,,,,,,,,,,,,,,,3,9.3,10,10.7,0,0,0.7,0.6,0.1,1.5,10,initial,36.05,335,361,386,0,0,9,9,9,0,0,,,,,2,0,2,0,0,24,24,6,,,,,num_3,0.9693600998725742,num_3,0.25,0.6,0.25,0.6,9.01073,21.62576,return,0.4482943001203239,,,,,,,6,21,female,left_right_width,2023_Aug_15_1306,exp1,2021.2.3,60.13015779263358,
,,,,,,,,,,,,,,,,5,8.95,9.475,10,10.525,11.05,0.525,0.42500000000000004,0.1,2.2,10,match,36.05,323,342,361,379,398,9,9,9,9,9,,,,,2,0,2,0,0,25,25,25,,,,,num_4,1.0968442000448704,num_4,0.25,0.4,0.25,0.4,9.01073,14.41717,return,0.20297770015895367,,,,,,,6,21,female,left_right_width,2023_Aug_15_1306,exp1,2021.2.3,60.13015779263358,
,,,,,,,,,,,,,,,,3,9,10,11,0,0,1,0.9,0.1,2.1,10,match,36.05,324,361,397,0,0,9,9,9,0,0,,,,,2,0,2,0,0,26,26,37,,,,,num_2,0.9380330999847502,num_2,0.3,1.6,0.35,1.7,12.61502,61.27298,return,2.48372929985635,,,,,,,6,21,female,left_right_width,2023_Aug_15_1306,exp1,2021.2.3,60.13015779263358,
,,,,,,,,,,,,,,,,5,8.2,9.1,10,10.9,11.8,0.9,0.65,0.25,3.85,10,initial,36.05,296,328,361,393,425,9,9,9,9,9,,,,,2,0,2,0,0,27,27,50,,,,,num_3,0.816817499930039,num_3,0.2,1.2,0.2,1.2,7.20859,43.25151,return,0.41282249987125397,,,,,,,6,21,female,left_right_width,2023_Aug_15_1306,exp1,2021.2.3,60.13015779263358,
,,,,,,,,,,,,,,,,4,9.1,9.7,10.3,10.9,0,0.6,0.5,0.1,1.9,10,match,36.05,328,350,371,393,0,9,9,9,9,0,,,,,2,0,2,0,0,28,28,13,,,,,num_3,0.7797262999229133,num_3,0.45,1.2,0.15000000000000008,1.2,5.40644,43.25151,return,4.3945230999961495,,,,,,,6,21,female,left_right_width,2023_Aug_15_1306,exp1,2021.2.3,60.13015779263358,
,,,,,,,,,,,,,,,,5,8.95,9.475,10,10.525,11.05,0.525,0.125,0.4,2.5,10,match,36.05,323,342,361,379,398,9,9,9,9,9,,,,,2,0,2,0,0,29,29,29,,,,,num_4,1.0040060998871922,num_4,0.35,0.8,0.25,0.8,9.01073,28.83434,return,2.2590663000009954,,,,,,,6,21,female,left_right_width,2023_Aug_15_1306,exp1,2021.2.3,60.13015779263358,
,,,,,,,,,,,,,,,,3,8.2,10,11.8,0,0,1.8000000000000003,1.7000000000000002,0.1,3.7,10,match,36.05,296,361,425,0,0,9,9,9,0,0,,,,,2,0,2,0,0,30,30,49,,,,,num_2,0.7986035998910666,num_2,0.25,1.6,0.10000000000000002,3.0,3.60429,108.12878,return,5.949787399964407,,,,,,,6,21,female,left_right_width,2023_Aug_15_1306,exp1,2021.2.3,60.13015779263358,
,,,,,,,,,,,,,,,,4,9.25,9.75,10.25,10.75,0,0.5,0.09999999999999998,0.4,1.9,10,initial,36.05,333,351,370,388,0,9,9,9,9,0,,,,,2,0,2,0,0,31,31,22,,,,,num_3,1.2328472998924553,num_3,0.2,1.2,0.5499999999999999,1.2,19.82361,43.25151,return,2.3825028999708593,,,,,,,6,21,female,left_right_width,2023_Aug_15_1306,exp1,2021.2.3,60.13015779263358,
,,,,,,,,,,,,,,,,3,9.1,10,10.9,0,0,0.9,0.65,0.25,2.05,10,initial,36.05,328,361,393,0,0,9,9,9,0,0,,,,,2,0,2,0,0,32,32,14,,,,,num_2,0.9241830999962986,num_2,0.15,1.6,0.49999999999999994,1.6,18.02146,57.66869,return,2.0849488999228925,,,,,,,6,21,female,left_right_width,2023_Aug_15_1306,exp1,2021.2.3,60.13015779263358,
,,,,,,,,,,,,,,,,5,8.6,9.3,10,10.7,11.4,0.7,0.6,0.1,2.9,10,initial,36.05,310,335,361,386,411,9,9,9,9,9,,,,,2,0,2,0,0,33,33,42,,,,,num_4,1.0935655999928713,num_4,0.2,1.0,0.2,1.0,7.20859,36.04293,return,0.10522160003893077,,,,,,,6,21,female,left_right_width,2023_Aug_15_1306,exp1,2021.2.3,60.13015779263358,
,,,,,,,,,,,,,,,,5,9,9.5,10,10.5,11,0.5,0.09999999999999998,0.4,2.4,10,initial,36.05,324,342,361,379,397,9,9,9,9,9,,,,,2,0,2,0,0,34,34,40,,,,,num_4,1.0567153000738472,num_4,0.1,0.3,0.35,0.7,12.61502,25.23005,return,4.548046700190753,,,,,,,6,21,female,left_right_width,2023_Aug_15_1306,exp1,2021.2.3,60.13015779263358,
,,,,,,,,,,,,,,,,4,9.3,9.766666666666667,10.233333333333333,10.7,0,0.4666666666666667,0.06666666666666665,0.4,1.8,10,match,36.05,335,352,369,386,0,9,9,9,9,0,,,,,2,0,2,0,0,35,35,11,,,,,num_4,0.8721368000842631,num_4,0.2,0.9,0.5499999999999999,0.7,19.82361,25.23005,return,2.4506245001684874,,,,,,,6,21,female,left_right_width,2023_Aug_15_1306,exp1,2021.2.3,60.13015779263358,
,,,,,,,,,,,,,,,,4,8.65,9.55,10.45,11.35,0,0.9,0.5,0.4,3.1,10,initial,36.05,312,344,377,409,0,9,9,9,9,0,,,,,2,0,2,0,0,36,36,34,,,,,num_4,0.874634400010109,num_4,0.1,0.8,0.35,0.8,12.61502,28.83434,return,1.3190472000278533,,,,,,,6,21,female,left_right_width,2023_Aug_15_1306,exp1,2021.2.3,60.13015779263358,
,,,,,,,,,,,,,,,,4,9.1,9.7,10.3,10.9,0,0.6000000000000001,0.20000000000000004,0.4,2.2,10,match,36.05,328,350,371,393,0,9,9,9,9,0,,,,,2,0,2,0,0,37,37,17,,,,,num_4,1.1627868001814932,num_4,0.15,0.6,0.39999999999999997,0.6,14.41717,21.62576,return,1.5549548000562936,,,,,,,6,21,female,left_right_width,2023_Aug_15_1306,exp1,2021.2.3,60.13015779263358,
,,,,,,,,,,,,,,,,5,9.25,9.625,10,10.375,10.75,0.375,0.125,0.25,1.75,10,match,36.05,333,347,361,374,388,9,9,9,9,9,,,,,2,0,2,0,0,38,38,21,,,,,num_4,0.9600072000175714,num_4,0.4,0.6,0.55,0.6,19.82361,21.62576,return,1.4497037001419812,,,,,,,6,21,female,left_right_width,2023_Aug_15_1306,exp1,2021.2.3,60.13015779263358,
,,,,,,,,,,,,,,,,3,8.2,10,11.8,0,0,1.8,1.55,0.25,3.85,10,match,36.05,296,361,425,0,0,9,9,9,0,0,,,,,2,0,2,0,0,39,39,51,,,,,num_2,0.9615096999332309,num_2,0.2,1.6,0.39999999999999997,2.7,14.41717,97.31591,return,6.345713000046089,,,,,,,6,21,female,left_right_width,2023_Aug_15_1306,exp1,2021.2.3,60.13015779263358,
,,,,,,,,,,,,,,,,5,9.25,9.625,10,10.375,10.75,0.375,0.275,0.1,1.6,10,match,36.05,333,347,361,374,388,9,9,9,9,9,,,,,2,0,2,0,0,40,40,19,,,,,num_4,1.1012156999204308,num_4,0.1,0.4,0.1,0.4,3.60429,14.41717,return,0.7504012999124825,,,,,,,6,21,female,left_right_width,2023_Aug_15_1306,exp1,2021.2.3,60.13015779263358,
,,,,,,,,,,,,,,,,4,9.425,9.808333333333334,10.191666666666666,10.575,0,0.3833333333333333,0.1333333333333333,0.25,1.4,10,match,36.05,340,354,367,381,0,9,9,9,9,0,,,,,2,0,2,0,0,41,41,5,,,,,num_4,0.9374029999598861,num_4,0.15,1.3,0.44999999999999996,1.1,16.21932,39.64722,return,2.400175000075251,,,,,,,6,21,female,left_right_width,2023_Aug_15_1306,exp1,2021.2.3,60.13015779263358,
,,,,,,,,,,,,,,,,3,8.6,10,11.4,0,0,1.4,1.2999999999999998,0.1,2.9,10,match,36.05,310,361,411,0,0,9,9,9,0,0,,,,,2,0,2,0,0,42,42,43,,,,,num_2,1.0194395000580698,num_2,0.35,1.6,0.15000000000000002,2.0,5.40644,72.08586,return,5.183803299907595,,,,,,,6,21,female,left_right_width,2023_Aug_15_1306,exp1,2021.2.3,60.13015779263358,
,,,,,,,,,,,,,,,,3,9.1,10,10.9,0,0,0.9,0.5,0.4,2.2,10,initial,36.05,328,361,393,0,0,9,9,9,0,0,,,,,2,0,2,0,0,43,43,16,,,,,num_2,0.8827217998914421,num_2,0.15,1.6,0.44999999999999996,1.9,16.21932,68.48156,return,3.295889399945736,,,,,,,6,21,female,left_right_width,2023_Aug_15_1306,exp1,2021.2.3,60.13015779263358,
,,,,,,,,,,,,,,,,5,8.65,9.325,10,10.675,11.35,0.675,0.275,0.4,3.1,10,match,36.05,312,336,361,385,409,9,9,9,9,9,,,,,2,0,2,0,0,44,44,35,,,,,num_4,0.8178393999114633,num_4,0.15,1.2,0.5499999999999999,1.2,19.82361,43.25151,return,4.846966400044039,,,,,,,6,21,female,left_right_width,2023_Aug_15_1306,exp1,2021.2.3,60.13015779263358,
,,,,,,,,,,,,,,,,3,9.3,10,10.7,0,0,0.7,0.44999999999999996,0.25,1.65,10,initial,36.05,335,361,386,0,0,9,9,9,0,0,,,,,2,0,2,0,0,45,45,8,,,,,num_2,1.0186743000522256,num_2,0.15,1.6,0.44999999999999996,1.5,16.21932,54.06439,return,3.233839699998498,,,,,,,6,21,female,left_right_width,2023_Aug_15_1306,exp1,2021.2.3,60.13015779263358,
,,,,,,,,,,,,,,,,4,9.25,9.75,10.25,10.75,0,0.5,0.25,0.25,1.75,10,initial,36.05,333,351,370,388,0,9,9,9,9,0,,,,,2,0,2,0,0,46,46,20,,,,,num_4,1.0780768999829888,num_4,0.35,1.0,0.35,1.0,12.61502,36.04293,return,0.6506872999016196,,,,,,,6,21,female,left_right_width,2023_Aug_15_1306,exp1,2021.2.3,60.13015779263358,
,,,,,,,,,,,,,,,,5,9.175,9.5875,10,10.4125,10.825,0.4125,0.16249999999999998,0.25,1.9,10,match,36.05,331,346,361,375,390,9,9,9,9,9,,,,,2,0,2,0,0,47,47,23,,,,,num_5,1.068617100128904,num_5,0.25,1.2,0.3,1.2,10.81288,43.25151,return,0.75342410011217,,,,,,,6,21,female,left_right_width,2023_Aug_15_1306,exp1,2021.2.3,60.13015779263358,
,,,,,,,,,,,,,,,,4,8.65,9.55,10.45,11.35,0,0.9,0.8,0.1,2.8000000000000003,10,initial,36.05,312,344,377,409,0,9,9,9,9,0,,,,,2,0,2,0,0,48,48,30,,,,,num_3,0.9477290001232177,num_3,0.15,1.3,0.35,1.3,12.61502,46.85581,return,1.2288389999885112,,,,,,,6,21,female,left_right_width,2023_Aug_15_1306,exp1,2021.2.3,60.13015779263358,
,,,,,,,,,,,,,,,,5,8.95,9.475,10,10.525,11.05,0.525,0.275,0.25,2.35,10,match,36.05,323,342,361,379,398,9,9,9,9,9,,,,,2,0,2,0,0,49,49,27,,,,,num_3,0.8883344000205398,num_3,0.4,0.5,0.35000000000000003,0.8,12.61502,28.83434,return,3.1216147001832724,,,,,,,6,21,female,left_right_width,2023_Aug_15_1306,exp1,2021.2.3,60.13015779263358,
,,,,,,,,,,,,,,,,3,9.1,10,10.9,0,0,0.9,0.8,0.1,1.9000000000000001,10,initial,36.05,328,361,393,0,0,9,9,9,0,0,,,,,2,0,2,0,0,50,50,12,,,,,num_2,0.9365966999903321,num_2,0.3,1.6,0.10000000000000002,2.0,3.60429,72.08586,return,5.346533600008115,,,,,,,6,21,female,left_right_width,2023_Aug_15_1306,exp1,2021.2.3,60.13015779263358,
,,,,,,,,,,,,,,,,3,8.6,10,11.4,0,0,1.4,1.15,0.25,3.05,10,match,36.05,310,361,411,0,0,9,9,9,0,0,,,,,2,0,2,0,0,51,51,45,,,,,num_2,1.9288647000212222,num_2,0.1,1.6,0.3,3.1,10.81288,111.73308,return,8.26425309991464,,,,,,,6,21,female,left_right_width,2023_Aug_15_1306,exp1,2021.2.3,60.13015779263358,
,,,,,,,,,,,,,,,,3,9.5,10,10.5,0,0,0.5,0.25,0.25,1.25,10,initial,36.05,342,361,379,0,0,9,9,9,0,0,,,,,2,0,2,0,0,52,52,2,,,,,num_3,0.9528063999023288,num_3,0.45,0.6,0.45,0.6,16.21932,21.62576,return,0.7839313000440598,,,,,,,6,21,female,left_right_width,2023_Aug_15_1306,exp1,2021.2.3,60.13015779263358,
,,,,,,,,,,,,,,,,3,8.2,10,11.8,0,0,1.7999999999999998,1.4,0.4,4,10,match,36.05,296,361,425,0,0,9,9,9,0,0,,,,,2,0,2,0,0,53,53,53,,,,,num_3,1.518578400136903,num_3,0.3,1.1,0.3,1.1,10.81288,39.64722,return,7.281331599922851,,,,,,,6,21,female,left_right_width,2023_Aug_15_1306,exp1,2021.2.3,60.13015779263358,
,,,,,,,,,,,,,,,,,,,,,,,,,,,,,,,,,,,,,,,,,,,2,0,2,0,,,,,,,,,,,,,,,,,,,,,,1349.6426165001467,None,1349.6426165001467,None,6,21,female,left_right_width,2023_Aug_15_1306,exp1,2021.2.3,60.13015779263358,
,,,,,,,,,,,,,,,,3,9.5,10,10.5,0,0,0.5,0.25,0.25,1.25,10,initial,36.05,342,361,379,0,0,9,9,9,0,0,,,,,3,0,3,0,0,0,0,2,,,,,num_3,0.7753274000715464,num_3,0.25,1.3,0.3,1.35,10.81288,48.65795,return,3.1733419001102448,,,,,,,6,21,female,left_right_width,2023_Aug_15_1306,exp1,2021.2.3,60.13015779263358,
,,,,,,,,,,,,,,,,5,8.6,9.3,10,10.7,11.4,0.7,0.6,0.1,2.9,10,initial,36.05,310,335,361,386,411,9,9,9,9,9,,,,,3,0,3,0,0,1,1,42,,,,,num_4,0.8907506999094039,num_4,0.1,1.2,0.3,1.1,10.81288,39.64722,return,2.5344774001277983,,,,,,,6,21,female,left_right_width,2023_Aug_15_1306,exp1,2021.2.3,60.13015779263358,
,,,,,,,,,,,,,,,,3,8.2,10,11.8,0,0,1.7999999999999998,1.4,0.4,4,10,match,36.05,296,361,425,0,0,9,9,9,0,0,,,,,3,0,3,0,0,2,2,53,,,,,num_3,1.5178135000169277,num_3,0.2,0.5,0.10000000000000002,0.7,3.60429,25.23005,return,4.399004600010812,,,,,,,6,21,female,left_right_width,2023_Aug_15_1306,exp1,2021.2.3,60.13015779263358,
,,,,,,,,,,,,,,,,3,9.5,10,10.5,0,0,0.5,0.4,0.1,1.1,10,initial,36.05,342,361,379,0,0,9,9,9,0,0,,,,,3,0,3,0,0,3,3,0,,,,,num_3,0.7486067998688668,num_3,0.1,1.1,0.1,1.1,3.60429,39.64722,return,0.6684301001951098,,,,,,,6,21,female,left_right_width,2023_Aug_15_1306,exp1,2021.2.3,60.13015779263358,
,,,,,,,,,,,,,,,,3,8.6,10,11.4,0,0,1.4,1.2999999999999998,0.1,2.9,10,match,36.05,310,361,411,0,0,9,9,9,0,0,,,,,3,0,3,0,0,4,4,43,,,,,num_3,0.7422734999563545,num_3,0.25,0.7,0.10000000000000002,1.55,3.60429,55.86654,return,6.436819300055504,,,,,,,6,21,female,left_right_width,2023_Aug_15_1306,exp1,2021.2.3,60.13015779263358,
,,,,,,,,,,,,,,,,5,8.6,9.3,10,10.7,11.4,0.7,0.29999999999999993,0.4,3.1999999999999997,10,initial,36.05,310,335,361,386,411,9,9,9,9,9,,,,,3,0,3,0,0,5,5,46,,,,,num_4,1.0541346999816597,num_4,0.4,1.0,0.4,1.0,14.41717,36.04293,return,0.45105109992437065,,,,,,,6,21,female,left_right_width,2023_Aug_15_1306,exp1,2021.2.3,60.13015779263358,
,,,,,,,,,,,,,,,,4,8.95,9.65,10.35,11.05,0,0.7,0.44999999999999996,0.25,2.3499999999999996,10,initial,36.05,323,348,373,398,0,9,9,9,9,0,,,,,3,0,3,0,0,6,6,26,,,,,num_4,0.7533837000373751,num_4,0.3,0.9,0.3,0.9,10.81288,32.43864,return,0.09845900000073016,,,,,,,6,21,female,left_right_width,2023_Aug_15_1306,exp1,2021.2.3,60.13015779263358,
,,,,,,,,,,,,,,,,4,9.3,9.766666666666667,10.233333333333333,10.7,0,0.4666666666666667,0.21666666666666665,0.25,1.65,10,match,36.05,335,352,369,386,0,9,9,9,9,0,,,,,3,0,3,0,0,7,7,9,,,,,num_4,0.8850525999441743,num_4,0.35,0.5,0.35,0.5,12.61502,18.02146,return,0.40170160005800426,,,,,,,6,21,female,left_right_width,2023_Aug_15_1306,exp1,2021.2.3,60.13015779263358,
,,,,,,,,,,,,,,,,3,9,10,11,0,0,1,0.9,0.1,2.1,10,match,36.05,324,361,397,0,0,9,9,9,0,0,,,,,3,0,3,0,0,8,8,37,,,,,num_2,0.8027168000116944,num_2,0.4,1.6,0.15000000000000008,2.7,5.40644,97.31591,return,6.623834599973634,,,,,,,6,21,female,left_right_width,2023_Aug_15_1306,exp1,2021.2.3,60.13015779263358,
,,,,,,,,,,,,,,,,3,9.3,10,10.7,0,0,0.7,0.29999999999999993,0.4,1.8,10,initial,36.05,335,361,386,0,0,9,9,9,0,0,,,,,3,0,3,0,0,9,9,10,,,,,num_2,0.9389111998025328,num_2,0.25,1.6,0.39999999999999997,1.2,14.41717,43.25151,return,1.859047899954021,,,,,,,6,21,female,left_right_width,2023_Aug_15_1306,exp1,2021.2.3,60.13015779263358,
,,,,,,,,,,,,,,,,4,9.5,9.833333333333334,10.166666666666666,10.5,0,0.33333333333333337,0.23333333333333336,0.1,1.1,10,match,36.05,342,354,367,379,0,9,9,9,9,0,,,,,3,0,3,0,0,10,10,1,,,,,num_3,1.066008900059387,num_3,0.15,1.3,0.10000000000000002,0.55,3.60429,19.82361,return,7.614570999983698,,,,,,,6,21,female,left_right_width,2023_Aug_15_1306,exp1,2021.2.3,60.13015779263358,
,,,,,,,,,,,,,,,,4,9.3,9.766666666666667,10.233333333333333,10.7,0,0.4666666666666667,0.3666666666666667,0.1,1.5,10,match,36.05,335,352,369,386,0,9,9,9,9,0,,,,,3,0,3,0,0,11,11,7,,,,,num_3,1.3169465998653322,num_3,0.3,1.1,0.3,1.1,10.81288,39.64722,return,0.3323681999463588,,,,,,,6,21,female,left_right_width,2023_Aug_15_1306,exp1,2021.2.3,60.13015779263358,
,,,,,,,,,,,,,,,,5,9,9.5,10,10.5,11,0.5,0.4,0.1,2.1,10,initial,36.05,324,342,361,379,397,9,9,9,9,9,,,,,3,0,3,0,0,12,12,36,,,,,num_4,1.0289453999139369,num_4,0.1,1.2,0.1,1.2,3.60429,43.25151,return,0.5390299998689443,,,,,,,6,21,female,left_right_width,2023_Aug_15_1306,exp1,2021.2.3,60.13015779263358,
,,,,,,,,,,,,,,,,3,8.2,10,11.8,0,0,1.8000000000000003,1.7000000000000002,0.1,3.7,10,match,36.05,296,361,425,0,0,9,9,9,0,0,,,,,3,0,3,0,0,13,13,49,,,,,num_2,0.8695984999649227,num_2,0.45,1.6,0.10000000000000007,3.6,3.60429,129.75454,return,9.10398430004716,,,,,,,6,21,female,left_right_width,2023_Aug_15_1306,exp1,2021.2.3,60.13015779263358,
,,,,,,,,,,,,,,,,3,9.3,10,10.7,0,0,0.7,0.44999999999999996,0.25,1.65,10,initial,36.05,335,361,386,0,0,9,9,9,0,0,,,,,3,0,3,0,0,14,14,8,,,,,num_3,0.989449999993667,num_3,0.1,1,0.3,0.95,10.81288,34.24078,return,1.8932561001274735,,,,,,,6,21,female,left_right_width,2023_Aug_15_1306,exp1,2021.2.3,60.13015779263358,
,,,,,,,,,,,,,,,,5,8.6,9.3,10,10.7,11.4,0.7,0.44999999999999996,0.25,3.05,10,initial,36.05,310,335,361,386,411,9,9,9,9,9,,,,,3,0,3,0,0,15,15,44,,,,,num_4,0.9853578000329435,num_4,0.4,0.7,0.4,0.7,14.41717,25.23005,return,0.351005099946633,,,,,,,6,21,female,left_right_width,2023_Aug_15_1306,exp1,2021.2.3,60.13015779263358,
,,,,,,,,,,,,,,,,5,9,9.5,10,10.5,11,0.5,0.25,0.25,2.25,10,initial,36.05,324,342,361,379,397,9,9,9,9,9,,,,,3,0,3,0,0,16,16,38,,,,,num_5,1.0334028000943363,num_5,0.35,1.3,0.2,1.35,7.20859,48.65795,return,3.885936199920252,,,,,,,6,21,female,left_right_width,2023_Aug_15_1306,exp1,2021.2.3,60.13015779263358,
,,,,,,,,,,,,,,,,5,8.65,9.325,10,10.675,11.35,0.675,0.275,0.4,3.1,10,match,36.05,312,336,361,385,409,9,9,9,9,9,,,,,3,0,3,0,0,17,17,35,,,,,num_4,0.8756991000846028,num_4,0.45,1.3,0.45,1.3,16.21932,46.85581,return,0.6462678001262248,,,,,,,6,21,female,left_right_width,2023_Aug_15_1306,exp1,2021.2.3,60.13015779263358,
,,,,,,,,,,,,,,,,5,8.2,9.1,10,10.9,11.8,0.9,0.8,0.1,3.7,10,initial,36.05,296,328,361,393,425,9,9,9,9,9,,,,,3,0,3,0,0,18,18,48,,,,,num_5,1.1623833000194281,num_5,0.45,1.0,0.15000000000000008,1.0,5.40644,36.04293,return,4.970534900203347,,,,,,,6,21,female,left_right_width,2023_Aug_15_1306,exp1,2021.2.3,60.13015779263358,
,,,,,,,,,,,,,,,,4,9.1,9.7,10.3,10.9,0,0.6,0.5,0.1,1.9,10,match,36.05,328,350,371,393,0,9,9,9,9,0,,,,,3,0,3,0,0,19,19,13,,,,,num_4,0.9328254000283778,num_4,0.45,0.9,0.20000000000000007,1.2,7.20859,43.25151,return,3.2480503998231143,,,,,,,6,21,female,left_right_width,2023_Aug_15_1306,exp1,2021.2.3,60.13015779263358,
,,,,,,,,,,,,,,,,4,8.65,9.55,10.45,11.35,0,0.9,0.8,0.1,2.8000000000000003,10,initial,36.05,312,344,377,409,0,9,9,9,9,0,,,,,3,0,3,0,0,20,20,30,,,,,num_3,1.2776591000147164,num_3,0.1,0.8,0.1,0.8,3.60429,28.83434,return,0.698427600087598,,,,,,,6,21,female,left_right_width,2023_Aug_15_1306,exp1,2021.2.3,60.13015779263358,
,,,,,,,,,,,,,,,,5,9.25,9.625,10,10.375,10.75,0.375,0.125,0.25,1.75,10,match,36.05,333,347,361,374,388,9,9,9,9,9,,,,,3,0,3,0,0,21,21,21,,,,,num_5,0.9539195999968797,num_5,0.15,0.7,0.35,0.7,12.61502,25.23005,return,3.6161817999091,,,,,,,6,21,female,left_right_width,2023_Aug_15_1306,exp1,2021.2.3,60.13015779263358,
,,,,,,,,,,,,,,,,5,8.95,9.475,10,10.525,11.05,0.525,0.125,0.4,2.5,10,match,36.05,323,342,361,379,398,9,9,9,9,9,,,,,3,0,3,0,0,22,22,29,,,,,num_5,1.029011500068009,num_5,0.45,1.1,0.20000000000000007,1.15,7.20859,41.44937,return,3.034644499886781,,,,,,,6,21,female,left_right_width,2023_Aug_15_1306,exp1,2021.2.3,60.13015779263358,
,,,,,,,,,,,,,,,,4,9.1,9.7,10.3,10.9,0,0.5999999999999999,0.3499999999999999,0.25,2.05,10,match,36.05,328,350,371,393,0,9,9,9,9,0,,,,,3,0,3,0,0,23,23,15,,,,,num_4,0.9222214000765234,num_4,0.2,1.3,0.25,1.3,9.01073,46.85581,return,2.820369099965319,,,,,,,6,21,female,left_right_width,2023_Aug_15_1306,exp1,2021.2.3,60.13015779263358,
,,,,,,,,,,,,,,,,4,9.25,9.75,10.25,10.75,0,0.5,0.4,0.1,1.6,10,initial,36.05,333,351,370,388,0,9,9,9,9,0,,,,,3,0,3,0,0,24,24,18,,,,,num_5,1.3501434000208974,num_5,0.25,0.7,0.25,0.7,9.01073,25.23005,return,0.865601500030607,,,,,,,6,21,female,left_right_width,2023_Aug_15_1306,exp1,2021.2.3,60.13015779263358,
,,,,,,,,,,,,,,,,5,8.2,9.1,10,10.9,11.8,0.9,0.5,0.4,4,10,initial,36.05,296,328,361,393,425,9,9,9,9,9,,,,,3,0,3,0,0,25,25,52,,,,,num_5,0.8374330999795347,num_5,0.25,0.8,0.25,0.8,9.01073,28.83434,return,0.6269955998286605,,,,,,,6,21,female,left_right_width,2023_Aug_15_1306,exp1,2021.2.3,60.13015779263358,
,,,,,,,,,,,,,,,,3,8.525,10,11.475,0,0,1.475,1.225,0.25,3.2,10,match,36.05,307,361,414,0,0,9,9,9,0,0,,,,,3,0,3,0,0,26,26,47,,,,,num_2,0.8422318000812083,num_2,0.1,1.6,0.35,1.8,12.61502,64.87727,return,3.525469599990174,,,,,,,6,21,female,left_right_width,2023_Aug_15_1306,exp1,2021.2.3,60.13015779263358,
,,,,,,,,,,,,,,,,4,9.1,9.7,10.3,10.9,0,0.6000000000000001,0.20000000000000004,0.4,2.2,10,match,36.05,328,350,371,393,0,9,9,9,9,0,,,,,3,0,3,0,0,27,27,17,,,,,num_3,0.9566792000550777,num_3,0.1,0.3,0.25,0.6,9.01073,21.62576,return,5.091236999956891,,,,,,,6,21,female,left_right_width,2023_Aug_15_1306,exp1,2021.2.3,60.13015779263358,
,,,,,,,,,,,,,,,,3,9.5,10,10.5,0,0,0.5,0.09999999999999998,0.4,1.4000000000000001,10,initial,36.05,342,361,379,0,0,9,9,9,0,0,,,,,3,0,3,0,0,28,28,4,,,,,num_3,0.8225353001616895,num_3,0.45,1.2,0.45,0.7,16.21932,25.23005,return,2.7248708999250084,,,,,,,6,21,female,left_right_width,2023_Aug_15_1306,exp1,2021.2.3,60.13015779263358,
,,,,,,,,,,,,,,,,5,9,9.5,10,10.5,11,0.5,0.09999999999999998,0.4,2.4,10,initial,36.05,324,342,361,379,397,9,9,9,9,9,,,,,3,0,3,0,0,29,29,40,,,,,num_4,1.0494739999994636,num_4,0.1,0.9,0.39999999999999997,0.6,14.41717,21.62576,return,2.7831765001174062,,,,,,,6,21,female,left_right_width,2023_Aug_15_1306,exp1,2021.2.3,60.13015779263358,
,,,,,,,,,,,,,,,,3,8.6,10,11.4,0,0,1.4,1.15,0.25,3.05,10,match,36.05,310,361,411,0,0,9,9,9,0,0,,,,,3,0,3,0,0,30,30,45,,,,,num_3,1.0364769999869168,num_3,0.35,1.1,0.25,1.25,9.01073,45.05366,return,4.272467399947345,,,,,,,6,21,female,left_right_width,2023_Aug_15_1306,exp1,2021.2.3,60.13015779263358,
,,,,,,,,,,,,,,,,5,8.65,9.325,10,10.675,11.35,0.675,0.42500000000000004,0.25,2.95,10,match,36.05,312,336,361,385,409,9,9,9,9,9,,,,,3,0,3,0,0,31,31,33,,,,,num_4,0.9430414999369532,num_4,0.35,0.5,0.15000000000000002,1.2,5.40644,43.25151,return,4.504616300109774,,,,,,,6,21,female,left_right_width,2023_Aug_15_1306,exp1,2021.2.3,60.13015779263358,
,,,,,,,,,,,,,,,,5,9.175,9.5875,10,10.4125,10.825,0.4125,0.16249999999999998,0.25,1.9,10,match,36.05,331,346,361,375,390,9,9,9,9,9,,,,,3,0,3,0,0,32,32,23,,,,,num_4,1.1366093999240547,num_4,0.15,1.1,0.25,0.4,9.01073,14.41717,return,2.4668190001975745,,,,,,,6,21,female,left_right_width,2023_Aug_15_1306,exp1,2021.2.3,60.13015779263358,
,,,,,,,,,,,,,,,,3,9.1,10,10.9,0,0,0.9,0.65,0.25,2.05,10,initial,36.05,328,361,393,0,0,9,9,9,0,0,,,,,3,0,3,0,0,33,33,14,,,,,num_3,0.8341197001282126,num_3,0.4,0.9,0.20000000000000007,0.95,7.20859,34.24078,return,4.462017700076103,,,,,,,6,21,female,left_right_width,2023_Aug_15_1306,exp1,2021.2.3,60.13015779263358,
,,,,,,,,,,,,,,,,4,8.95,9.65,10.35,11.05,0,0.7,0.29999999999999993,0.4,2.5,10,initial,36.05,323,348,373,398,0,9,9,9,9,0,,,,,3,0,3,0,0,34,34,28,,,,,num_3,1.9199293998535722,num_3,0.25,1.2,0.25,1.2,9.01073,43.25151,return,0.354025200009346,,,,,,,6,21,female,left_right_width,2023_Aug_15_1306,exp1,2021.2.3,60.13015779263358,
,,,,,,,,,,,,,,,,4,8.95,9.65,10.35,11.05,0,0.7,0.6,0.1,2.1999999999999997,10,initial,36.05,323,348,373,398,0,9,9,9,9,0,,,,,3,0,3,0,0,35,35,24,,,,,num_3,0.731213599909097,num_3,0.25,1.1,0.10000000000000002,1.1,3.60429,39.64722,return,1.788799999980256,,,,,,,6,21,female,left_right_width,2023_Aug_15_1306,exp1,2021.2.3,60.13015779263358,
,,,,,,,,,,,,,,,,3,9,10,11,0,0,1,0.75,0.25,2.25,10,match,36.05,324,361,397,0,0,9,9,9,0,0,,,,,3,0,3,0,0,36,36,39,,,,,num_3,0.9200831998605281,num_3,0.2,1.3,0.2,1.3,7.20859,46.85581,return,0.17652600002475083,,,,,,,6,21,female,left_right_width,2023_Aug_15_1306,exp1,2021.2.3,60.13015779263358,
,,,,,,,,,,,,,,,,3,8.2,10,11.8,0,0,1.8,1.55,0.25,3.85,10,match,36.05,296,361,425,0,0,9,9,9,0,0,,,,,3,0,3,0,0,37,37,51,,,,,num_3,0.5034743999131024,num_3,0.45,0.7,0.10000000000000007,1.0,3.60429,36.04293,return,5.106566100148484,,,,,,,6,21,female,left_right_width,2023_Aug_15_1306,exp1,2021.2.3,60.13015779263358,
,,,,,,,,,,,,,,,,4,9.5,9.833333333333334,10.166666666666666,10.5,0,0.3333333333333333,0.08333333333333333,0.25,1.25,10,match,36.05,342,354,367,379,0,9,9,9,9,0,,,,,3,0,3,0,0,38,38,3,,,,,num_3,0.9141903000418097,num_3,0.2,0.5,0.25,0.5,9.01073,18.02146,return,0.8444606999401003,,,,,,,6,21,female,left_right_width,2023_Aug_15_1306,exp1,2021.2.3,60.13015779263358,
,,,,,,,,,,,,,,,,3,9,10,11,0,0,0.9999999999999999,0.5999999999999999,0.4,2.4,10,match,36.05,324,361,397,0,0,9,9,9,0,0,,,,,3,0,3,0,0,39,39,41,,,,,num_3,0.7595218000933528,num_3,0.4,1.3,0.35000000000000003,1.3,12.61502,46.85581,return,3.432200799928978,,,,,,,6,21,female,left_right_width,2023_Aug_15_1306,exp1,2021.2.3,60.13015779263358,
,,,,,,,,,,,,,,,,3,9.1,10,10.9,0,0,0.9,0.8,0.1,1.9000000000000001,10,initial,36.05,328,361,393,0,0,9,9,9,0,0,,,,,3,0,3,0,0,40,40,12,,,,,num_3,0.9297293000854552,num_3,0.35,1.1,0.10000000000000002,1.1,3.60429,39.64722,return,2.043291699839756,,,,,,,6,21,female,left_right_width,2023_Aug_15_1306,exp1,2021.2.3,60.13015779263358,
,,,,,,,,,,,,,,,,4,9.25,9.75,10.25,10.75,0,0.5,0.25,0.25,1.75,10,initial,36.05,333,351,370,388,0,9,9,9,9,0,,,,,3,0,3,0,0,41,41,20,,,,,num_4,0.9662096998654306,num_4,0.35,0.7,0.39999999999999997,0.7,14.41717,25.23005,return,0.8445928997825831,,,,,,,6,21,female,left_right_width,2023_Aug_15_1306,exp1,2021.2.3,60.13015779263358,
,,,,,,,,,,,,,,,,4,9.425,9.808333333333334,10.191666666666666,10.575,0,0.3833333333333333,0.1333333333333333,0.25,1.4,10,match,36.05,340,354,367,381,0,9,9,9,9,0,,,,,3,0,3,0,0,42,42,5,,,,,num_3,0.8455907998140901,num_3,0.35,1.3,0.44999999999999996,0.8,16.21932,28.83434,return,2.726206599967554,,,,,,,6,21,female,left_right_width,2023_Aug_15_1306,exp1,2021.2.3,60.13015779263358,
,,,,,,,,,,,,,,,,4,9.3,9.766666666666667,10.233333333333333,10.7,0,0.4666666666666667,0.06666666666666665,0.4,1.8,10,match,36.05,335,352,369,386,0,9,9,9,9,0,,,,,3,0,3,0,0,43,43,11,,,,,num_4,0.8749009999446571,num_4,0.2,1.2,0.6,1.2,21.62576,43.25151,return,1.7808302999474108,,,,,,,6,21,female,left_right_width,2023_Aug_15_1306,exp1,2021.2.3,60.13015779263358,
,,,,,,,,,,,,,,,,5,8.95,9.475,10,10.525,11.05,0.525,0.42500000000000004,0.1,2.2,10,match,36.05,323,342,361,379,398,9,9,9,9,9,,,,,3,0,3,0,0,44,44,25,,,,,num_4,0.8320613000541925,num_4,0.45,0.5,0.25000000000000006,0.9,9.01073,32.43864,return,3.518120300024748,,,,,,,6,21,female,left_right_width,2023_Aug_15_1306,exp1,2021.2.3,60.13015779263358,
,,,,,,,,,,,,,,,,4,9.25,9.75,10.25,10.75,0,0.5,0.09999999999999998,0.4,1.9,10,initial,36.05,333,351,370,388,0,9,9,9,9,0,,,,,3,0,3,0,0,45,45,22,,,,,num_4,0.9362325000111014,num_4,0.45,1.3,0.35000000000000003,0.8,12.61502,28.83434,return,3.262075499864295,,,,,,,6,21,female,left_right_width,2023_Aug_15_1306,exp1,2021.2.3,60.13015779263358,
,,,,,,,,,,,,,,,,4,8.65,9.55,10.45,11.35,0,0.9,0.65,0.25,2.95,10,initial,36.05,312,344,377,409,0,9,9,9,9,0,,,,,3,0,3,0,0,46,46,32,,,,,num_4,0.8493997999466956,num_4,0.2,0.8,0.25,0.8,9.01073,28.83434,return,0.784633900038898,,,,,,,6,21,female,left_right_width,2023_Aug_15_1306,exp1,2021.2.3,60.13015779263358,
,,,,,,,,,,,,,,,,4,8.65,9.55,10.45,11.35,0,0.9,0.5,0.4,3.1,10,initial,36.05,312,344,377,409,0,9,9,9,9,0,,,,,3,0,3,0,0,47,47,34,,,,,num_4,0.774211399955675,num_4,0.2,0.4,0.25,1.0,9.01073,36.04293,return,2.2458941999357194,,,,,,,6,21,female,left_right_width,2023_Aug_15_1306,exp1,2021.2.3,60.13015779263358,
,,,,,,,,,,,,,,,,3,9.3,10,10.7,0,0,0.7,0.6,0.1,1.5,10,initial,36.05,335,361,386,0,0,9,9,9,0,0,,,,,3,0,3,0,0,48,48,6,,,,,num_4,0.812976700020954,num_4,0.35,1.2,0.35,1.2,12.61502,43.25151,return,0.3328653001226485,,,,,,,6,21,female,left_right_width,2023_Aug_15_1306,exp1,2021.2.3,60.13015779263358,
,,,,,,,,,,,,,,,,5,8.65,9.325,10,10.675,11.35,0.6749999999999999,0.575,0.1,2.8,10,match,36.05,312,336,361,385,409,9,9,9,9,9,,,,,3,0,3,0,0,49,49,31,,,,,num_4,0.7907668999396265,num_4,0.3,0.8,0.10000000000000002,0.8,3.60429,28.83434,return,3.0146844999399036,,,,,,,6,21,female,left_right_width,2023_Aug_15_1306,exp1,2021.2.3,60.13015779263358,
,,,,,,,,,,,,,,,,5,8.95,9.475,10,10.525,11.05,0.525,0.275,0.25,2.35,10,match,36.05,323,342,361,379,398,9,9,9,9,9,,,,,3,0,3,0,0,50,50,27,,,,,num_4,0.8302716999314725,num_4,0.3,0.3,1.1000000000000003,0.2,39.64722,7.20859,return,8.035428300034255,,,,,,,6,21,female,left_right_width,2023_Aug_15_1306,exp1,2021.2.3,60.13015779263358,
,,,,,,,,,,,,,,,,5,8.2,9.1,10,10.9,11.8,0.9,0.65,0.25,3.85,10,initial,36.05,296,328,361,393,425,9,9,9,9,9,,,,,3,0,3,0,0,51,51,50,,,,,num_4,0.7802160000428557,num_4,0.45,1.3,0.45,1.3,16.21932,46.85581,return,0.6697223999071866,,,,,,,6,21,female,left_right_width,2023_Aug_15_1306,exp1,2021.2.3,60.13015779263358,
,,,,,,,,,,,,,,,,3,9.1,10,10.9,0,0,0.9,0.5,0.4,2.2,10,initial,36.05,328,361,393,0,0,9,9,9,0,0,,,,,3,0,3,0,0,52,52,16,,,,,num_3,0.7853784000035375,num_3,0.45,1.2,0.45,1.2,16.21932,43.25151,return,0.44810030004009604,,,,,,,6,21,female,left_right_width,2023_Aug_15_1306,exp1,2021.2.3,60.13015779263358,
,,,,,,,,,,,,,,,,5,9.25,9.625,10,10.375,10.75,0.375,0.275,0.1,1.6,10,match,36.05,333,347,361,374,388,9,9,9,9,9,,,,,3,0,3,0,0,53,53,19,,,,,num_4,0.8556208999361843,num_4,0.1,0.8,0.1,0.8,3.60429,28.83434,return,0.4828319000080228,,,,,,,6,21,female,left_right_width,2023_Aug_15_1306,exp1,2021.2.3,60.13015779263358,
,,,,,,,,,,,,,,,,,,,,,,,,,,,,,,,,,,,,,,,,,,,3,0,3,0,,,,,,,,,,,,,,,,,,,,,,1637.5590832999442,None,1637.5590832999442,None,6,21,female,left_right_width,2023_Aug_15_1306,exp1,2021.2.3,60.13015779263358,
,,,,,,,,,,,,,,,,4,8.95,9.65,10.35,11.05,0,0.7,0.6,0.1,2.1999999999999997,10,initial,36.05,323,348,373,398,0,9,9,9,9,0,,,,,4,0,4,0,0,0,0,24,,,,,num_3,0.7649332000873983,num_3,0.45,0.7,0.20000000000000007,0.7,7.20859,25.23005,return,2.6859232999850065,,,,,,,6,21,female,left_right_width,2023_Aug_15_1306,exp1,2021.2.3,60.13015779263358,
,,,,,,,,,,,,,,,,3,9,10,11,0,0,0.9999999999999999,0.5999999999999999,0.4,2.4,10,match,36.05,324,361,397,0,0,9,9,9,0,0,,,,,4,0,4,0,0,1,1,41,,,,,num_3,0.7346314999740571,num_3,0.4,1.1,0.4,1.1,14.41717,39.64722,return,0.5133881999645382,,,,,,,6,21,female,left_right_width,2023_Aug_15_1306,exp1,2021.2.3,60.13015779263358,
,,,,,,,,,,,,,,,,3,9.5,10,10.5,0,0,0.5,0.25,0.25,1.25,10,initial,36.05,342,361,379,0,0,9,9,9,0,0,,,,,4,0,4,0,0,2,2,2,,,,,num_3,0.79823899990879,num_3,0.1,0.3,0.25,0.55,9.01073,19.82361,return,3.501001799944788,,,,,,,6,21,female,left_right_width,2023_Aug_15_1306,exp1,2021.2.3,60.13015779263358,
,,,,,,,,,,,,,,,,4,8.95,9.65,10.35,11.05,0,0.7,0.29999999999999993,0.4,2.5,10,initial,36.05,323,348,373,398,0,9,9,9,9,0,,,,,4,0,4,0,0,3,3,28,,,,,num_3,0.9177735999692231,num_3,0.2,1.3,0.44999999999999996,1.3,16.21932,46.85581,return,1.8382560999598354,,,,,,,6,21,female,left_right_width,2023_Aug_15_1306,exp1,2021.2.3,60.13015779263358,
,,,,,,,,,,,,,,,,4,9.5,9.833333333333334,10.166666666666666,10.5,0,0.33333333333333337,0.23333333333333336,0.1,1.1,10,match,36.05,342,354,367,379,0,9,9,9,9,0,,,,,4,0,4,0,0,4,4,1,,,,,num_4,0.9749308000318706,num_4,0.45,0.5,0.20000000000000007,1.0,7.20859,36.04293,return,3.7846552999690175,,,,,,,6,21,female,left_right_width,2023_Aug_15_1306,exp1,2021.2.3,60.13015779263358,
,,,,,,,,,,,,,,,,4,9.425,9.808333333333334,10.191666666666666,10.575,0,0.3833333333333333,0.1333333333333333,0.25,1.4,10,match,36.05,340,354,367,381,0,9,9,9,9,0,,,,,4,0,4,0,0,5,5,5,,,,,num_4,0.9600851000286639,num_4,0.25,0.5,0.25,0.5,9.01073,18.02146,return,0.6466558000538498,,,,,,,6,21,female,left_right_width,2023_Aug_15_1306,exp1,2021.2.3,60.13015779263358,
,,,,,,,,,,,,,,,,4,9.25,9.75,10.25,10.75,0,0.5,0.4,0.1,1.6,10,initial,36.05,333,351,370,388,0,9,9,9,9,0,,,,,4,0,4,0,0,6,6,18,,,,,num_3,0.8435183998662978,num_3,0.25,0.9,0.25,0.9,9.01073,32.43864,return,0.7444335999898612,,,,,,,6,21,female,left_right_width,2023_Aug_15_1306,exp1,2021.2.3,60.13015779263358,
,,,,,,,,,,,,,,,,5,9,9.5,10,10.5,11,0.5,0.09999999999999998,0.4,2.4,10,initial,36.05,324,342,361,379,397,9,9,9,9,9,,,,,4,0,4,0,0,7,7,40,,,,,num_4,0.9796826001256704,num_4,0.25,1.3,0.44999999999999996,0.8,16.21932,28.83434,return,2.3316011999268085,,,,,,,6,21,female,left_right_width,2023_Aug_15_1306,exp1,2021.2.3,60.13015779263358,
,,,,,,,,,,,,,,,,5,8.2,9.1,10,10.9,11.8,0.9,0.5,0.4,4,10,initial,36.05,296,328,361,393,425,9,9,9,9,9,,,,,4,0,4,0,0,8,8,52,,,,,num_4,2.4709250000305474,num_4,0.4,1.2,0.5,1.2,18.02146,43.25151,return,1.171242899959907,,,,,,,6,21,female,left_right_width,2023_Aug_15_1306,exp1,2021.2.3,60.13015779263358,
,,,,,,,,,,,,,,,,5,8.2,9.1,10,10.9,11.8,0.9,0.8,0.1,3.7,10,initial,36.05,296,328,361,393,425,9,9,9,9,9,,,,,4,0,4,0,0,9,9,48,,,,,num_4,0.9762448999099433,num_4,0.3,0.3,0.39999999999999997,0.2,14.41717,7.20859,return,2.968692900147289,,,,,,,6,21,female,left_right_width,2023_Aug_15_1306,exp1,2021.2.3,60.13015779263358,
,,,,,,,,,,,,,,,,3,9.3,10,10.7,0,0,0.7,0.29999999999999993,0.4,1.8,10,initial,36.05,335,361,386,0,0,9,9,9,0,0,,,,,4,0,4,0,0,10,10,10,,,,,num_3,0.9143731999211013,num_3,0.1,1,0.1,1,3.60429,36.04293,return,0.4127035001292825,,,,,,,6,21,female,left_right_width,2023_Aug_15_1306,exp1,2021.2.3,60.13015779263358,
,,,,,,,,,,,,,,,,5,8.6,9.3,10,10.7,11.4,0.7,0.29999999999999993,0.4,3.1999999999999997,10,initial,36.05,310,335,361,386,411,9,9,9,9,9,,,,,4,0,4,0,0,11,11,46,,,,,num_4,0.8190683000721037,num_4,0.1,1.1,0.1,1.1,3.60429,39.64722,return,0.9124564998783171,,,,,,,6,21,female,left_right_width,2023_Aug_15_1306,exp1,2021.2.3,60.13015779263358,
,,,,,,,,,,,,,,,,5,9.25,9.625,10,10.375,10.75,0.375,0.125,0.25,1.75,10,match,36.05,333,347,361,374,388,9,9,9,9,9,,,,,4,0,4,0,0,12,12,21,,,,,num_4,0.8477225999813527,num_4,0.25,0.7,0.25,0.4,9.01073,14.41717,return,2.891017399961129,,,,,,,6,21,female,left_right_width,2023_Aug_15_1306,exp1,2021.2.3,60.13015779263358,
,,,,,,,,,,,,,,,,5,8.95,9.475,10,10.525,11.05,0.525,0.275,0.25,2.35,10,match,36.05,323,342,361,379,398,9,9,9,9,9,,,,,4,0,4,0,0,13,13,27,,,,,num_5,0.9596578001510352,num_5,0.3,1.2,0.3,1.2,10.81288,43.25151,return,0.45558940013870597,,,,,,,6,21,female,left_right_width,2023_Aug_15_1306,exp1,2021.2.3,60.13015779263358,
,,,,,,,,,,,,,,,,3,8.2,10,11.8,0,0,1.7999999999999998,1.4,0.4,4,10,match,36.05,296,361,425,0,0,9,9,9,0,0,,,,,4,0,4,0,0,14,14,53,,,,,num_3,0.7130345997866243,num_3,0.45,0.8,0.25000000000000006,1.15,9.01073,41.44937,return,4.746832700213417,,,,,,,6,21,female,left_right_width,2023_Aug_15_1306,exp1,2021.2.3,60.13015779263358,
,,,,,,,,,,,,,,,,3,9.1,10,10.9,0,0,0.9,0.5,0.4,2.2,10,initial,36.05,328,361,393,0,0,9,9,9,0,0,,,,,4,0,4,0,0,15,15,16,,,,,num_3,0.8155078999698162,num_3,0.2,0.9,0.3,0.9,10.81288,32.43864,return,0.9231610000133514,,,,,,,6,21,female,left_right_width,2023_Aug_15_1306,exp1,2021.2.3,60.13015779263358,
,,,,,,,,,,,,,,,,5,8.6,9.3,10,10.7,11.4,0.7,0.6,0.1,2.9,10,initial,36.05,310,335,361,386,411,9,9,9,9,9,,,,,4,0,4,0,0,16,16,42,,,,,num_4,0.8381793999578804,num_4,0.3,0.7,0.3,0.7,10.81288,25.23005,return,0.6739468001760542,,,,,,,6,21,female,left_right_width,2023_Aug_15_1306,exp1,2021.2.3,60.13015779263358,
,,,,,,,,,,,,,,,,5,9.175,9.5875,10,10.4125,10.825,0.4125,0.16249999999999998,0.25,1.9,10,match,36.05,331,346,361,375,390,9,9,9,9,9,,,,,4,0,4,0,0,17,17,23,,,,,num_4,0.8089395998977125,num_4,0.25,1.3,0.25,0.5,9.01073,18.02146,return,3.0458376000169665,,,,,,,6,21,female,left_right_width,2023_Aug_15_1306,exp1,2021.2.3,60.13015779263358,
,,,,,,,,,,,,,,,,4,9.3,9.766666666666667,10.233333333333333,10.7,0,0.4666666666666667,0.21666666666666665,0.25,1.65,10,match,36.05,335,352,369,386,0,9,9,9,9,0,,,,,4,0,4,0,0,18,18,9,,,,,num_4,0.8062072000466287,num_4,0.1,1.2,0.25,0.9,9.01073,32.43864,return,3.4439437999390066,,,,,,,6,21,female,left_right_width,2023_Aug_15_1306,exp1,2021.2.3,60.13015779263358,
,,,,,,,,,,,,,,,,3,8.2,10,11.8,0,0,1.8000000000000003,1.7000000000000002,0.1,3.7,10,match,36.05,296,361,425,0,0,9,9,9,0,0,,,,,4,0,4,0,0,19,19,49,,,,,num_3,0.749636999797076,num_3,0.4,0.8,0.20000000000000007,1.1,7.20859,39.64722,return,4.593036199919879,,,,,,,6,21,female,left_right_width,2023_Aug_15_1306,exp1,2021.2.3,60.13015779263358,
,,,,,,,,,,,,,,,,5,8.65,9.325,10,10.675,11.35,0.675,0.275,0.4,3.1,10,match,36.05,312,336,361,385,409,9,9,9,9,9,,,,,4,0,4,0,0,20,20,35,,,,,num_4,0.825577300041914,num_4,0.2,0.4,0.15000000000000002,0.9,5.40644,32.43864,return,4.869467000011355,,,,,,,6,21,female,left_right_width,2023_Aug_15_1306,exp1,2021.2.3,60.13015779263358,
,,,,,,,,,,,,,,,,4,8.65,9.55,10.45,11.35,0,0.9,0.8,0.1,2.8000000000000003,10,initial,36.05,312,344,377,409,0,9,9,9,9,0,,,,,4,0,4,0,0,21,21,30,,,,,num_4,0.9289891000371426,num_4,0.3,0.6,0.15000000000000002,0.8,5.40644,28.83434,return,4.650327600073069,,,,,,,6,21,female,left_right_width,2023_Aug_15_1306,exp1,2021.2.3,60.13015779263358,
,,,,,,,,,,,,,,,,4,8.65,9.55,10.45,11.35,0,0.9,0.65,0.25,2.95,10,initial,36.05,312,344,377,409,0,9,9,9,9,0,,,,,4,0,4,0,0,22,22,32,,,,,num_3,0.8678154000081122,num_3,0.15,1.2,0.15,1.2,5.40644,43.25151,return,0.49579020007513463,,,,,,,6,21,female,left_right_width,2023_Aug_15_1306,exp1,2021.2.3,60.13015779263358,
,,,,,,,,,,,,,,,,5,8.6,9.3,10,10.7,11.4,0.7,0.44999999999999996,0.25,3.05,10,initial,36.05,310,335,361,386,411,9,9,9,9,9,,,,,4,0,4,0,0,23,23,44,,,,,num_4,0.8448435999453068,num_4,0.15,0.7,0.15,0.7,5.40644,25.23005,return,0.3279534000903368,,,,,,,6,21,female,left_right_width,2023_Aug_15_1306,exp1,2021.2.3,60.13015779263358,
,,,,,,,,,,,,,,,,5,8.65,9.325,10,10.675,11.35,0.6749999999999999,0.575,0.1,2.8,10,match,36.05,312,336,361,385,409,9,9,9,9,9,,,,,4,0,4,0,0,24,24,31,,,,,num_4,0.8154835000168532,num_4,0.25,1.2,0.25,1.2,9.01073,43.25151,return,0.22046760004013777,,,,,,,6,21,female,left_right_width,2023_Aug_15_1306,exp1,2021.2.3,60.13015779263358,
,,,,,,,,,,,,,,,,3,9.3,10,10.7,0,0,0.7,0.6,0.1,1.5,10,initial,36.05,335,361,386,0,0,9,9,9,0,0,,,,,4,0,4,0,0,25,25,6,,,,,num_2,0.8075044001452625,num_2,0.3,1.6,0.10000000000000002,1.4,3.60429,50.4601,return,2.518847400089726,,,,,,,6,21,female,left_right_width,2023_Aug_15_1306,exp1,2021.2.3,60.13015779263358,
,,,,,,,,,,,,,,,,4,9.25,9.75,10.25,10.75,0,0.5,0.09999999999999998,0.4,1.9,10,initial,36.05,333,351,370,388,0,9,9,9,9,0,,,,,4,0,4,0,0,26,26,22,,,,,num_3,0.8304559998214245,num_3,0.1,1.2,0.39999999999999997,1.25,14.41717,45.05366,return,3.53375960001722,,,,,,,6,21,female,left_right_width,2023_Aug_15_1306,exp1,2021.2.3,60.13015779263358,
,,,,,,,,,,,,,,,,4,9.3,9.766666666666667,10.233333333333333,10.7,0,0.4666666666666667,0.3666666666666667,0.1,1.5,10,match,36.05,335,352,369,386,0,9,9,9,9,0,,,,,4,0,4,0,0,27,27,7,,,,,num_4,0.8335154000669718,num_4,0.15,0.3,0.15,0.6,5.40644,21.62576,return,1.6135316998697817,,,,,,,6,21,female,left_right_width,2023_Aug_15_1306,exp1,2021.2.3,60.13015779263358,
,,,,,,,,,,,,,,,,3,9.3,10,10.7,0,0,0.7,0.44999999999999996,0.25,1.65,10,initial,36.05,335,361,386,0,0,9,9,9,0,0,,,,,4,0,4,0,0,28,28,8,,,,,num_2,0.8215177000965923,num_2,0.4,1.6,0.25000000000000006,1.4,9.01073,50.4601,return,2.656530800042674,,,,,,,6,21,female,left_right_width,2023_Aug_15_1306,exp1,2021.2.3,60.13015779263358,
,,,,,,,,,,,,,,,,4,8.95,9.65,10.35,11.05,0,0.7,0.44999999999999996,0.25,2.3499999999999996,10,initial,36.05,323,348,373,398,0,9,9,9,9,0,,,,,4,0,4,0,0,29,29,26,,,,,num_4,1.029640399850905,num_4,0.35,0.6,0.35,0.6,12.61502,21.62576,return,0.4907509000040591,,,,,,,6,21,female,left_right_width,2023_Aug_15_1306,exp1,2021.2.3,60.13015779263358,
,,,,,,,,,,,,,,,,3,9.1,10,10.9,0,0,0.9,0.8,0.1,1.9000000000000001,10,initial,36.05,328,361,393,0,0,9,9,9,0,0,,,,,4,0,4,0,0,30,30,12,,,,,num_2,0.8483718000352383,num_2,0.2,1.6,0.2,1.6,7.20859,57.66869,return,0.4143743000458926,,,,,,,6,21,female,left_right_width,2023_Aug_15_1306,exp1,2021.2.3,60.13015779263358,
,,,,,,,,,,,,,,,,4,9.25,9.75,10.25,10.75,0,0.5,0.25,0.25,1.75,10,initial,36.05,333,351,370,388,0,9,9,9,9,0,,,,,4,0,4,0,0,31,31,20,,,,,num_3,1.5513094998896122,num_3,0.1,0.9,0.1,0.9,3.60429,32.43864,return,0.4304576001595706,,,,,,,6,21,female,left_right_width,2023_Aug_15_1306,exp1,2021.2.3,60.13015779263358,
,,,,,,,,,,,,,,,,4,9.1,9.7,10.3,10.9,0,0.5999999999999999,0.3499999999999999,0.25,2.05,10,match,36.05,328,350,371,393,0,9,9,9,9,0,,,,,4,0,4,0,0,32,32,15,,,,,num_3,0.7524711999576539,num_3,0.35,0.7,0.35,0.7,12.61502,25.23005,return,0.28914599982090294,,,,,,,6,21,female,left_right_width,2023_Aug_15_1306,exp1,2021.2.3,60.13015779263358,
,,,,,,,,,,,,,,,,3,9.1,10,10.9,0,0,0.9,0.65,0.25,2.05,10,initial,36.05,328,361,393,0,0,9,9,9,0,0,,,,,4,0,4,0,0,33,33,14,,,,,num_2,0.7335963000077754,num_2,0.3,1.6,0.3,1.6,10.81288,57.66869,return,0.7049481000285596,,,,,,,6,21,female,left_right_width,2023_Aug_15_1306,exp1,2021.2.3,60.13015779263358,
,,,,,,,,,,,,,,,,3,8.6,10,11.4,0,0,1.4,1.15,0.25,3.05,10,match,36.05,310,361,411,0,0,9,9,9,0,0,,,,,4,0,4,0,0,34,34,45,,,,,num_2,0.7483347000088543,num_2,0.2,1.6,0.25,1.6,9.01073,57.66869,return,0.7666276998352259,,,,,,,6,21,female,left_right_width,2023_Aug_15_1306,exp1,2021.2.3,60.13015779263358,
,,,,,,,,,,,,,,,,4,9.3,9.766666666666667,10.233333333333333,10.7,0,0.4666666666666667,0.06666666666666665,0.4,1.8,10,match,36.05,335,352,369,386,0,9,9,9,9,0,,,,,4,0,4,0,0,35,35,11,,,,,num_3,0.9756960000377148,num_3,0.35,1.2,0.39999999999999997,0.6,14.41717,21.62576,return,4.501521199941635,,,,,,,6,21,female,left_right_width,2023_Aug_15_1306,exp1,2021.2.3,60.13015779263358,
,,,,,,,,,,,,,,,,4,9.1,9.7,10.3,10.9,0,0.6,0.5,0.1,1.9,10,match,36.05,328,350,371,393,0,9,9,9,9,0,,,,,4,0,4,0,0,36,36,13,,,,,num_2,1.0019497000612319,num_2,0.15,1.6,0.15,1.6,5.40644,57.66869,return,0.9618575000204146,,,,,,,6,21,female,left_right_width,2023_Aug_15_1306,exp1,2021.2.3,60.13015779263358,
,,,,,,,,,,,,,,,,5,8.95,9.475,10,10.525,11.05,0.525,0.42500000000000004,0.1,2.2,10,match,36.05,323,342,361,379,398,9,9,9,9,9,,,,,4,0,4,0,0,37,37,25,,,,,num_2,1.1430862001143396,num_2,0.35,1.6,0.35,1.6,12.61502,57.66869,return,1.3684330999385566,,,,,,,6,21,female,left_right_width,2023_Aug_15_1306,exp1,2021.2.3,60.13015779263358,
,,,,,,,,,,,,,,,,4,8.65,9.55,10.45,11.35,0,0.9,0.5,0.4,3.1,10,initial,36.05,312,344,377,409,0,9,9,9,9,0,,,,,4,0,4,0,0,38,38,34,,,,,num_2,0.8881970001384616,num_2,0.15,1.6,0.5499999999999999,1.3,19.82361,46.85581,return,2.9791755999904126,,,,,,,6,21,female,left_right_width,2023_Aug_15_1306,exp1,2021.2.3,60.13015779263358,
,,,,,,,,,,,,,,,,5,8.95,9.475,10,10.525,11.05,0.525,0.125,0.4,2.5,10,match,36.05,323,342,361,379,398,9,9,9,9,9,,,,,4,0,4,0,0,39,39,29,,,,,num_4,1.2088075999636203,num_4,0.35,1.1,0.5499999999999999,1.0,19.82361,36.04293,return,4.439920899923891,,,,,,,6,21,female,left_right_width,2023_Aug_15_1306,exp1,2021.2.3,60.13015779263358,
,,,,,,,,,,,,,,,,3,8.2,10,11.8,0,0,1.8,1.55,0.25,3.85,10,match,36.05,296,361,425,0,0,9,9,9,0,0,,,,,4,0,4,0,0,40,40,51,,,,,num_2,1.1344544000457972,num_2,0.4,1.6,0.4,1.6,14.41717,57.66869,return,0.4139841999858618,,,,,,,6,21,female,left_right_width,2023_Aug_15_1306,exp1,2021.2.3,60.13015779263358,
,,,,,,,,,,,,,,,,5,9.25,9.625,10,10.375,10.75,0.375,0.275,0.1,1.6,10,match,36.05,333,347,361,374,388,9,9,9,9,9,,,,,4,0,4,0,0,41,41,19,,,,,num_4,1.0293953998479992,num_4,0.3,0.6,0.2,0.9,7.20859,32.43864,return,4.410854599904269,,,,,,,6,21,female,left_right_width,2023_Aug_15_1306,exp1,2021.2.3,60.13015779263358,
,,,,,,,,,,,,,,,,5,9,9.5,10,10.5,11,0.5,0.4,0.1,2.1,10,initial,36.05,324,342,361,379,397,9,9,9,9,9,,,,,4,0,4,0,0,42,42,36,,,,,num_4,0.9776131000835449,num_4,0.15,1.2,0.15,1.2,5.40644,43.25151,return,0.6012347000651062,,,,,,,6,21,female,left_right_width,2023_Aug_15_1306,exp1,2021.2.3,60.13015779263358,
,,,,,,,,,,,,,,,,3,9.5,10,10.5,0,0,0.5,0.09999999999999998,0.4,1.4000000000000001,10,initial,36.05,342,361,379,0,0,9,9,9,0,0,,,,,4,0,4,0,0,43,43,4,,,,,num_3,1.2143468998838216,num_3,0.25,0.4,0.25,0.7,9.01073,25.23005,return,2.171518199844286,,,,,,,6,21,female,left_right_width,2023_Aug_15_1306,exp1,2021.2.3,60.13015779263358,
,,,,,,,,,,,,,,,,3,9,10,11,0,0,1,0.75,0.25,2.25,10,match,36.05,324,361,397,0,0,9,9,9,0,0,,,,,4,0,4,0,0,44,44,39,,,,,num_2,0.8921348000876606,num_2,0.25,1.6,0.3,1.6,10.81288,57.66869,return,1.0326900000218302,,,,,,,6,21,female,left_right_width,2023_Aug_15_1306,exp1,2021.2.3,60.13015779263358,
,,,,,,,,,,,,,,,,3,8.525,10,11.475,0,0,1.475,1.225,0.25,3.2,10,match,36.05,307,361,414,0,0,9,9,9,0,0,,,,,4,0,4,0,0,45,45,47,,,,,num_2,0.8866368997842073,num_2,0.4,1.6,0.30000000000000004,2.4,10.81288,86.50303,return,5.906346899922937,,,,,,,6,21,female,left_right_width,2023_Aug_15_1306,exp1,2021.2.3,60.13015779263358,
,,,,,,,,,,,,,,,,3,9,10,11,0,0,1,0.9,0.1,2.1,10,match,36.05,324,361,397,0,0,9,9,9,0,0,,,,,4,0,4,0,0,46,46,37,,,,,num_2,3.5699758001137525,num_2,0.2,1.6,0.25,1.6,9.01073,57.66869,return,0.800537700066343,,,,,,,6,21,female,left_right_width,2023_Aug_15_1306,exp1,2021.2.3,60.13015779263358,
,,,,,,,,,,,,,,,,4,9.5,9.833333333333334,10.166666666666666,10.5,0,0.3333333333333333,0.08333333333333333,0.25,1.25,10,match,36.05,342,354,367,379,0,9,9,9,9,0,,,,,4,0,4,0,0,47,47,3,,,,,num_3,0.8309504000935704,num_3,0.25,0.9,0.35,0.55,12.61502,19.82361,return,3.1170027998741716,,,,,,,6,21,female,left_right_width,2023_Aug_15_1306,exp1,2021.2.3,60.13015779263358,
,,,,,,,,,,,,,,,,3,9.5,10,10.5,0,0,0.5,0.4,0.1,1.1,10,initial,36.05,342,361,379,0,0,9,9,9,0,0,,,,,4,0,4,0,0,48,48,0,,,,,num_2,0.835066800005734,num_2,0.25,1.6,0.35,0.7,12.61502,25.23005,return,3.0412004000972956,,,,,,,6,21,female,left_right_width,2023_Aug_15_1306,exp1,2021.2.3,60.13015779263358,
,,,,,,,,,,,,,,,,5,8.2,9.1,10,10.9,11.8,0.9,0.65,0.25,3.85,10,initial,36.05,296,328,361,393,425,9,9,9,9,9,,,,,4,0,4,0,0,49,49,50,,,,,num_4,1.0966769999358803,num_4,0.4,1.3,0.4,0.8,14.41717,28.83434,return,1.965630100108683,,,,,,,6,21,female,left_right_width,2023_Aug_15_1306,exp1,2021.2.3,60.13015779263358,
,,,,,,,,,,,,,,,,3,8.6,10,11.4,0,0,1.4,1.2999999999999998,0.1,2.9,10,match,36.05,310,361,411,0,0,9,9,9,0,0,,,,,4,0,4,0,0,50,50,43,,,,,num_2,0.8642204999923706,num_2,0.35,1.6,0.2,1.4,7.20859,50.4601,return,3.101281800074503,,,,,,,6,21,female,left_right_width,2023_Aug_15_1306,exp1,2021.2.3,60.13015779263358,
,,,,,,,,,,,,,,,,5,9,9.5,10,10.5,11,0.5,0.25,0.25,2.25,10,initial,36.05,324,342,361,379,397,9,9,9,9,9,,,,,4,0,4,0,0,51,51,38,,,,,num_4,0.877590199932456,num_4,0.1,1.2,0.39999999999999997,1.1,14.41717,39.64722,return,2.0421619000844657,,,,,,,6,21,female,left_right_width,2023_Aug_15_1306,exp1,2021.2.3,60.13015779263358,
,,,,,,,,,,,,,,,,4,9.1,9.7,10.3,10.9,0,0.6000000000000001,0.20000000000000004,0.4,2.2,10,match,36.05,328,350,371,393,0,9,9,9,9,0,,,,,4,0,4,0,0,52,52,17,,,,,num_4,1.0005667000077665,num_4,0.1,1.3,0.39999999999999997,1.3,14.41717,46.85581,return,1.4396902001462877,,,,,,,6,21,female,left_right_width,2023_Aug_15_1306,exp1,2021.2.3,60.13015779263358,
,,,,,,,,,,,,,,,,5,8.65,9.325,10,10.675,11.35,0.675,0.42500000000000004,0.25,2.95,10,match,36.05,312,336,361,385,409,9,9,9,9,9,,,,,4,0,4,0,0,53,53,33,,,,,num_4,0.8184862998314202,num_4,0.3,0.4,0.2,0.7,7.20859,25.23005,return,2.943835499929264,,,,,,,6,21,female,left_right_width,2023_Aug_15_1306,exp1,2021.2.3,60.13015779263358,
,,,,,,,,,,,,,,,,,,,,,,,,,,,,,,,,,,,,,,,,,,,4,0,4,0,,,,,,,,,,,,,,,,,,,,,,1902.9089234001003,None,1902.9089234001003,None,6,21,female,left_right_width,2023_Aug_15_1306,exp1,2021.2.3,60.13015779263358,
,,,,,,,,,,,,,,,,3,9.3,10,10.7,0,0,0.7,0.44999999999999996,0.25,1.65,10,initial,36.05,335,361,386,0,0,9,9,9,0,0,,,,,5,0,5,0,0,0,0,8,,,,,num_2,0.8055433998815715,num_2,0.15,1.6,0.3,1.6,10.81288,57.66869,return,1.013984499964863,,,,,,,6,21,female,left_right_width,2023_Aug_15_1306,exp1,2021.2.3,60.13015779263358,
,,,,,,,,,,,,,,,,4,9.25,9.75,10.25,10.75,0,0.5,0.09999999999999998,0.4,1.9,10,initial,36.05,333,351,370,388,0,9,9,9,9,0,,,,,5,0,5,0,0,1,1,22,,,,,num_3,1.052200400037691,num_3,0.15,1.2,0.39999999999999997,1.2,14.41717,43.25151,return,1.166929299943149,,,,,,,6,21,female,left_right_width,2023_Aug_15_1306,exp1,2021.2.3,60.13015779263358,
,,,,,,,,,,,,,,,,3,9.5,10,10.5,0,0,0.5,0.25,0.25,1.25,10,initial,36.05,342,361,379,0,0,9,9,9,0,0,,,,,5,0,5,0,0,2,2,2,,,,,num_3,0.7777377997990698,num_3,0.1,0.8,0.3,0.8,10.81288,28.83434,return,1.2719552998896688,,,,,,,6,21,female,left_right_width,2023_Aug_15_1306,exp1,2021.2.3,60.13015779263358,
,,,,,,,,,,,,,,,,4,9.25,9.75,10.25,10.75,0,0.5,0.25,0.25,1.75,10,initial,36.05,333,351,370,388,0,9,9,9,9,0,,,,,5,0,5,0,0,3,3,20,,,,,num_3,0.7028630999848247,num_3,0.2,1.2,0.44999999999999996,1.2,16.21932,43.25151,return,1.0883946001995355,,,,,,,6,21,female,left_right_width,2023_Aug_15_1306,exp1,2021.2.3,60.13015779263358,
,,,,,,,,,,,,,,,,5,8.95,9.475,10,10.525,11.05,0.525,0.125,0.4,2.5,10,match,36.05,323,342,361,379,398,9,9,9,9,9,,,,,5,0,5,0,0,4,4,29,,,,,num_4,0.8661891000811011,num_4,0.3,0.8,0.44999999999999996,0.8,16.21932,28.83434,return,0.7830872000195086,,,,,,,6,21,female,left_right_width,2023_Aug_15_1306,exp1,2021.2.3,60.13015779263358,
,,,,,,,,,,,,,,,,5,8.65,9.325,10,10.675,11.35,0.6749999999999999,0.575,0.1,2.8,10,match,36.05,312,336,361,385,409,9,9,9,9,9,,,,,5,0,5,0,0,5,5,31,,,,,num_3,1.2483612999785691,num_3,0.15,0.4,0.2,0.65,7.20859,23.4279,return,1.9780969999264926,,,,,,,6,21,female,left_right_width,2023_Aug_15_1306,exp1,2021.2.3,60.13015779263358,
,,,,,,,,,,,,,,,,4,9.5,9.833333333333334,10.166666666666666,10.5,0,0.3333333333333333,0.08333333333333333,0.25,1.25,10,match,36.05,342,354,367,379,0,9,9,9,9,0,,,,,5,0,5,0,0,6,6,3,,,,,num_4,0.8591271999757737,num_4,0.45,0.8,0.25000000000000006,0.8,9.01073,28.83434,return,2.453335299855098,,,,,,,6,21,female,left_right_width,2023_Aug_15_1306,exp1,2021.2.3,60.13015779263358,
,,,,,,,,,,,,,,,,5,8.95,9.475,10,10.525,11.05,0.525,0.275,0.25,2.35,10,match,36.05,323,342,361,379,398,9,9,9,9,9,,,,,5,0,5,0,0,7,7,27,,,,,num_5,0.855732899857685,num_5,0.35,0.5,0.25,0.65,9.01073,23.4279,return,2.099253899883479,,,,,,,6,21,female,left_right_width,2023_Aug_15_1306,exp1,2021.2.3,60.13015779263358,
,,,,,,,,,,,,,,,,3,8.2,10,11.8,0,0,1.8000000000000003,1.7000000000000002,0.1,3.7,10,match,36.05,296,361,425,0,0,9,9,9,0,0,,,,,5,0,5,0,0,8,8,49,,,,,num_3,0.854780999943614,num_3,0.35,0.5,0.35,0.5,12.61502,18.02146,return,0.6914258000906557,,,,,,,6,21,female,left_right_width,2023_Aug_15_1306,exp1,2021.2.3,60.13015779263358,
,,,,,,,,,,,,,,,,3,9,10,11,0,0,1,0.9,0.1,2.1,10,match,36.05,324,361,397,0,0,9,9,9,0,0,,,,,5,0,5,0,0,9,9,37,,,,,num_3,0.6482861000113189,num_3,0.2,1,0.2,1,7.20859,36.04293,return,0.18925600009970367,,,,,,,6,21,female,left_right_width,2023_Aug_15_1306,exp1,2021.2.3,60.13015779263358,
,,,,,,,,,,,,,,,,3,9.5,10,10.5,0,0,0.5,0.4,0.1,1.1,10,initial,36.05,342,361,379,0,0,9,9,9,0,0,,,,,5,0,5,0,0,10,10,0,,,,,num_2,0.7761961000505835,num_2,0.1,1.6,0.15000000000000002,1.6,5.40644,57.66869,return,2.3129374999552965,,,,,,,6,21,female,left_right_width,2023_Aug_15_1306,exp1,2021.2.3,60.13015779263358,
,,,,,,,,,,,,,,,,5,8.95,9.475,10,10.525,11.05,0.525,0.42500000000000004,0.1,2.2,10,match,36.05,323,342,361,379,398,9,9,9,9,9,,,,,5,0,5,0,0,11,11,25,,,,,num_4,0.8146281999070197,num_4,0.45,1.1,0.15000000000000008,1.1,5.40644,39.64722,return,3.19599589984864,,,,,,,6,21,female,left_right_width,2023_Aug_15_1306,exp1,2021.2.3,60.13015779263358,
,,,,,,,,,,,,,,,,3,8.2,10,11.8,0,0,1.8,1.55,0.25,3.85,10,match,36.05,296,361,425,0,0,9,9,9,0,0,,,,,5,0,5,0,0,12,12,51,,,,,num_2,0.7457513997796923,num_2,0.45,1.6,0.20000000000000007,3.4,7.20859,122.54596,return,6.122574699809775,,,,,,,6,21,female,left_right_width,2023_Aug_15_1306,exp1,2021.2.3,60.13015779263358,
,,,,,,,,,,,,,,,,5,8.2,9.1,10,10.9,11.8,0.9,0.65,0.25,3.85,10,initial,36.05,296,328,361,393,425,9,9,9,9,9,,,,,5,0,5,0,0,13,13,50,,,,,num_4,0.8081426001153886,num_4,0.25,0.7,0.25,1.8,9.01073,64.87727,return,3.1601299000903964,,,,,,,6,21,female,left_right_width,2023_Aug_15_1306,exp1,2021.2.3,60.13015779263358,
,,,,,,,,,,,,,,,,3,8.6,10,11.4,0,0,1.4,1.15,0.25,3.05,10,match,36.05,310,361,411,0,0,9,9,9,0,0,,,,,5,0,5,0,0,14,14,45,,,,,num_2,0.7930705999024212,num_2,0.1,1.6,0.39999999999999997,2.6,14.41717,93.71161,return,3.863426499767229,,,,,,,6,21,female,left_right_width,2023_Aug_15_1306,exp1,2021.2.3,60.13015779263358,
,,,,,,,,,,,,,,,,5,8.65,9.325,10,10.675,11.35,0.675,0.42500000000000004,0.25,2.95,10,match,36.05,312,336,361,385,409,9,9,9,9,9,,,,,5,0,5,0,0,15,15,33,,,,,num_4,0.7685128999873996,num_4,0.4,1.0,0.30000000000000004,1.5,10.81288,54.06439,return,2.6101257000118494,,,,,,,6,21,female,left_right_width,2023_Aug_15_1306,exp1,2021.2.3,60.13015779263358,
,,,,,,,,,,,,,,,,3,9,10,11,0,0,1,0.75,0.25,2.25,10,match,36.05,324,361,397,0,0,9,9,9,0,0,,,,,5,0,5,0,0,16,16,39,,,,,num_2,0.8581987998913974,num_2,0.45,1.6,0.20000000000000007,1.8,7.20859,64.87727,return,2.5650846001226455,,,,,,,6,21,female,left_right_width,2023_Aug_15_1306,exp1,2021.2.3,60.13015779263358,
,,,,,,,,,,,,,,,,5,9,9.5,10,10.5,11,0.5,0.09999999999999998,0.4,2.4,10,initial,36.05,324,342,361,379,397,9,9,9,9,9,,,,,5,0,5,0,0,17,17,40,,,,,num_4,0.8231175001710653,num_4,0.4,1.3,0.5,0.8,18.02146,28.83434,return,1.5756492000073195,,,,,,,6,21,female,left_right_width,2023_Aug_15_1306,exp1,2021.2.3,60.13015779263358,
,,,,,,,,,,,,,,,,4,9.3,9.766666666666667,10.233333333333333,10.7,0,0.4666666666666667,0.3666666666666667,0.1,1.5,10,match,36.05,335,352,369,386,0,9,9,9,9,0,,,,,5,0,5,0,0,18,18,7,,,,,num_4,0.7662716000340879,num_4,0.3,0.3,0.39999999999999997,0.1,14.41717,3.60429,return,3.6782608998473734,,,,,,,6,21,female,left_right_width,2023_Aug_15_1306,exp1,2021.2.3,60.13015779263358,
,,,,,,,,,,,,,,,,4,8.65,9.55,10.45,11.35,0,0.9,0.5,0.4,3.1,10,initial,36.05,312,344,377,409,0,9,9,9,9,0,,,,,5,0,5,0,0,19,19,34,,,,,num_4,0.7764626999851316,num_4,0.25,1.1,0.44999999999999996,1.0,16.21932,36.04293,return,1.8316832000855356,,,,,,,6,21,female,left_right_width,2023_Aug_15_1306,exp1,2021.2.3,60.13015779263358,
,,,,,,,,,,,,,,,,4,9.1,9.7,10.3,10.9,0,0.6,0.5,0.1,1.9,10,match,36.05,328,350,371,393,0,9,9,9,9,0,,,,,5,0,5,0,0,20,20,13,,,,,num_3,1.2056966999080032,num_3,0.2,1.1,0.2,1.1,7.20859,39.64722,return,0.5642761001363397,,,,,,,6,21,female,left_right_width,2023_Aug_15_1306,exp1,2021.2.3,60.13015779263358,
,,,,,,,,,,,,,,,,4,9.5,9.833333333333334,10.166666666666666,10.5,0,0.33333333333333337,0.23333333333333336,0.1,1.1,10,match,36.05,342,354,367,379,0,9,9,9,9,0,,,,,5,0,5,0,0,21,21,1,,,,,num_3,1.3002680998761207,num_3,0.2,0.6,0.2,0.6,7.20859,21.62576,return,0.4011211998295039,,,,,,,6,21,female,left_right_width,2023_Aug_15_1306,exp1,2021.2.3,60.13015779263358,
,,,,,,,,,,,,,,,,4,9.1,9.7,10.3,10.9,0,0.5999999999999999,0.3499999999999999,0.25,2.05,10,match,36.05,328,350,371,393,0,9,9,9,9,0,,,,,5,0,5,0,0,22,22,15,,,,,num_3,1.8242961000651121,num_3,0.15,0.7,0.15,0.7,5.40644,25.23005,return,0.2130535999312997,,,,,,,6,21,female,left_right_width,2023_Aug_15_1306,exp1,2021.2.3,60.13015779263358,
