amount_p,posx1_p,posx2_p,posx3_p,posx4_p,posx5_p,center_to_center_p,edge_to_edge_p,w_p,stim_lengt_p,eccentricity_p,line1_p,line2_p,line3_p,line4_p,line5_p,amount,posx1,posx2,posx3,posx4,posx5,center_to_center,edge_to_edge,w,stim_length,eccentricity,trial_type,deg_to_pix_index,posx1_in_pix,posx2_in_pix,posx3_in_pix,posx4_in_pix,posx5_in_pix,line1,line2,line3,line4,line5,trials.thisRepN,trials.thisTrialN,trials.thisN,trials.thisIndex,blocks.thisRepN,blocks.thisTrialN,blocks.thisN,blocks.thisIndex,loop.thisRepN,loop.thisTrialN,loop.thisN,loop.thisIndex,key_resp_3.keys,key_resp_3.rt,key_resp_3.started,key_resp_3.stopped,key_resp.keys,key_resp.rt,response,starting_width_deg,starting_space_deg,response_width_degree,response_spacing_degree,response_width_pixel,response_spacing_pixel,next_5.keys,next_5.rt,key_resp_4.keys,key_resp_4.rt,text_3.started,text_3.stopped,text_4.started,text_4.stopped,participant,age,gender,resp_group,date,expName,psychopyVersion,frameRate,
,,,,,,,,,,,,,,,,,,,,,,,,,,,,,,,,,,,,,,,,,,,,,,,,,,,c,180.72957840003073,51.95940039982088,None,,,,,,,,,,,,,,,,,,7,22,female,up_down_width,2023_Aug_17_0941,exp1,2021.2.3,60.011078031551406,
5,8.6,9.3,10,10.7,11.4,0.7,0.29999999999999993,0.4,3.1999999999999997,10,9,9,9,9,9,,,,,,,,,,,,,,,,,,,,,,,,0,0,0,7,,,,,,,,,,,,,num_4,2.929319600109011,num_4,0.2,1.2,0.2,1.2,7.20859,43.25151,return,1.482164400164038,,,,,,,7,22,female,up_down_width,2023_Aug_17_0941,exp1,2021.2.3,60.011078031551406,
4,8.65,9.55,10.45,11.35,0,0.9,0.5,0.4,3.1,10,9,9,9,9,0,,,,,,,,,,,,,,,,,,,,,,,,0,1,1,5,,,,,,,,,,,,,num_3,2.8387847000267357,num_3,0.35,0.4,0.35,0.6,12.61502,21.62576,return,5.442767099943012,,,,,,,7,22,female,up_down_width,2023_Aug_17_0941,exp1,2021.2.3,60.011078031551406,
5,9.25,9.625,10,10.375,10.75,0.375,0.125,0.25,1.75,10,9,9,9,9,9,,,,,,,,,,,,,,,,,,,,,,,,0,2,2,6,,,,,,,,,,,,,num_4,2.058819899801165,num_4,0.25,0.6,0.25,0.4,9.01073,14.41717,return,6.901109799975529,,,,,,,7,22,female,up_down_width,2023_Aug_17_0941,exp1,2021.2.3,60.011078031551406,
3,8.2,10,11.8,0,0,1.7999999999999998,1.4,0.4,4,10,9,9,9,0,0,,,,,,,,,,,,,,,,,,,,,,,,0,3,3,2,,,,,,,,,,,,,num_3,2.5019121000077575,num_3,0.25,1.3,0.25,1.6,9.01073,57.66869,return,3.5053181000985205,,,,,,,7,22,female,up_down_width,2023_Aug_17_0941,exp1,2021.2.3,60.011078031551406,
3,9.5,10,10.5,0,0,0.5,0.4,0.1,1.1,10,9,9,9,0,0,,,,,,,,,,,,,,,,,,,,,,,,0,4,4,0,,,,,,,,,,,,,num_3,1.7332534999586642,num_3,0.15,0.7,0.04999999999999999,0.7,1.80215,25.23005,return,13.180580999935046,,,,,,,7,22,female,up_down_width,2023_Aug_17_0941,exp1,2021.2.3,60.011078031551406,
4,9.25,9.75,10.25,10.75,0,0.5,0.25,0.25,1.75,10,9,9,9,9,0,,,,,,,,,,,,,,,,,,,,,,,,0,5,5,4,,,,,,,,,,,,,num_3,2.338923799805343,num_3,0.3,0.8,0.3,0.8,10.81288,28.83434,return,1.9872162998653948,,,,,,,7,22,female,up_down_width,2023_Aug_17_0941,exp1,2021.2.3,60.011078031551406,
5,9,9.5,10,10.5,11,0.5,0.09999999999999998,0.4,2.4,10,9,9,9,9,9,,,,,,,,,,,,,,,,,,,,,,,,0,6,6,8,,,,,,,,,,,,,num_4,1.9476952999830246,num_4,0.2,1.0,0.39999999999999997,1.0,14.41717,36.04293,return,3.274167099967599,,,,,,,7,22,female,up_down_width,2023_Aug_17_0941,exp1,2021.2.3,60.011078031551406,
3,9,10,11,0,0,1,0.9,0.1,2.1,10,9,9,9,0,0,,,,,,,,,,,,,,,,,,,,,,,,0,7,7,1,,,,,,,,,,,,,num_3,1.9856832001823932,num_3,0.3,1.3,0.05000000000000002,1.3,1.80215,46.85581,return,3.085812599863857,,,,,,,7,22,female,up_down_width,2023_Aug_17_0941,exp1,2021.2.3,60.011078031551406,
4,9.5,9.833333333333334,10.166666666666666,10.5,0,0.33333333333333337,0.23333333333333336,0.1,1.1,10,9,9,9,9,0,,,,,,,,,,,,,,,,,,,,,,,,0,8,8,3,,,,,,,,,,,,,num_3,1.782783100148663,num_3,0.15,1.3,0.04999999999999999,0.9,1.80215,32.43864,return,6.032981100026518,,,,,,,7,22,female,up_down_width,2023_Aug_17_0941,exp1,2021.2.3,60.011078031551406,
,,,,,,,,,,,,,,,,,,,,,,,,,,,,,,,,,,,,,,,,,,,,,,,,,,,,,,,,,,,,,,,,,,c,87.91528679989278,,,,,7,22,female,up_down_width,2023_Aug_17_0941,exp1,2021.2.3,60.011078031551406,
,,,,,,,,,,,,,,,,5,8.6,9.3,10,10.7,11.4,0.7,0.29999999999999993,0.4,3.1999999999999997,10,initial,36.05,310,335,361,386,411,9,9,9,9,9,,,,,0,0,0,0,0,0,0,46,,,,,num_4,1.8382437999825925,num_4,0.4,0.6,0.4,0.6,14.41717,21.62576,return,3.8408446998801082,,,,,,,7,22,female,up_down_width,2023_Aug_17_0941,exp1,2021.2.3,60.011078031551406,
,,,,,,,,,,,,,,,,4,9.1,9.7,10.3,10.9,0,0.5999999999999999,0.3499999999999999,0.25,2.05,10,match,36.05,328,350,371,393,0,9,9,9,9,0,,,,,0,0,0,0,0,1,1,15,,,,,num_4,1.5741173001006246,num_4,0.1,1.2,0.3,1.2,10.81288,43.25151,return,4.182232300052419,,,,,,,7,22,female,up_down_width,2023_Aug_17_0941,exp1,2021.2.3,60.011078031551406,
,,,,,,,,,,,,,,,,5,9,9.5,10,10.5,11,0.5,0.25,0.25,2.25,10,initial,36.05,324,342,361,379,397,9,9,9,9,9,,,,,0,0,0,0,0,2,2,38,,,,,num_4,2.4854388998355716,num_4,0.15,1.2,0.3,0.8,10.81288,28.83434,return,5.790777999907732,,,,,,,7,22,female,up_down_width,2023_Aug_17_0941,exp1,2021.2.3,60.011078031551406,
,,,,,,,,,,,,,,,,3,8.2,10,11.8,0,0,1.7999999999999998,1.4,0.4,4,10,match,36.05,296,361,425,0,0,9,9,9,0,0,,,,,0,0,0,0,0,3,3,53,,,,,num_3,1.627933399984613,num_3,0.2,1,0.35,1.1,12.61502,39.64722,return,2.7301493000704795,,,,,,,7,22,female,up_down_width,2023_Aug_17_0941,exp1,2021.2.3,60.011078031551406,
,,,,,,,,,,,,,,,,3,8.525,10,11.475,0,0,1.475,1.225,0.25,3.2,10,match,36.05,307,361,414,0,0,9,9,9,0,0,,,,,0,0,0,0,0,4,4,47,,,,,num_3,1.4207460000179708,num_3,0.2,0.4,0.25,0.95,9.01073,34.24078,return,13.203889399999753,,,,,,,7,22,female,up_down_width,2023_Aug_17_0941,exp1,2021.2.3,60.011078031551406,
,,,,,,,,,,,,,,,,3,9,10,11,0,0,0.9999999999999999,0.5999999999999999,0.4,2.4,10,match,36.05,324,361,397,0,0,9,9,9,0,0,,,,,0,0,0,0,0,5,5,41,,,,,num_3,1.455300600035116,num_3,0.15,0.5,0.3,1.05,10.81288,37.84507,return,8.275066799949855,,,,,,,7,22,female,up_down_width,2023_Aug_17_0941,exp1,2021.2.3,60.011078031551406,
,,,,,,,,,,,,,,,,5,9.175,9.5875,10,10.4125,10.825,0.4125,0.16249999999999998,0.25,1.9,10,match,36.05,331,346,361,375,390,9,9,9,9,9,,,,,0,0,0,0,0,6,6,23,,,,,num_4,2.907454799860716,num_4,0.35,0.7,0.25,0.5,9.01073,18.02146,return,9.026949000079185,,,,,,,7,22,female,up_down_width,2023_Aug_17_0941,exp1,2021.2.3,60.011078031551406,
,,,,,,,,,,,,,,,,3,9,10,11,0,0,1,0.75,0.25,2.25,10,match,36.05,324,361,397,0,0,9,9,9,0,0,,,,,0,0,0,0,0,7,7,39,,,,,num_3,2.1332553001120687,num_3,0.2,1.2,0.25,1.2,9.01073,43.25151,return,3.0389054999686778,,,,,,,7,22,female,up_down_width,2023_Aug_17_0941,exp1,2021.2.3,60.011078031551406,
,,,,,,,,,,,,,,,,3,9.3,10,10.7,0,0,0.7,0.44999999999999996,0.25,1.65,10,initial,36.05,335,361,386,0,0,9,9,9,0,0,,,,,0,0,0,0,0,8,8,8,,,,,num_3,1.5763640999794006,num_3,0.4,0.9,0.20000000000000007,0.8,7.20859,28.83434,return,6.951717599993572,,,,,,,7,22,female,up_down_width,2023_Aug_17_0941,exp1,2021.2.3,60.011078031551406,
,,,,,,,,,,,,,,,,5,9,9.5,10,10.5,11,0.5,0.09999999999999998,0.4,2.4,10,initial,36.05,324,342,361,379,397,9,9,9,9,9,,,,,0,0,0,0,0,9,9,40,,,,,num_4,1.5928100000601262,num_4,0.2,0.9,0.39999999999999997,0.9,14.41717,32.43864,return,5.029552299994975,,,,,,,7,22,female,up_down_width,2023_Aug_17_0941,exp1,2021.2.3,60.011078031551406,
,,,,,,,,,,,,,,,,3,8.2,10,11.8,0,0,1.8,1.55,0.25,3.85,10,match,36.05,296,361,425,0,0,9,9,9,0,0,,,,,0,0,0,0,0,10,10,51,,,,,num_3,1.7993813001085073,num_3,0.2,1.3,0.2,1.65,7.20859,59.47083,return,4.894054899923503,,,,,,,7,22,female,up_down_width,2023_Aug_17_0941,exp1,2021.2.3,60.011078031551406,
,,,,,,,,,,,,,,,,4,9.3,9.766666666666667,10.233333333333333,10.7,0,0.4666666666666667,0.3666666666666667,0.1,1.5,10,match,36.05,335,352,369,386,0,9,9,9,9,0,,,,,0,0,0,0,0,11,11,7,,,,,num_3,6.061564399860799,num_3,0.3,1,0.15000000000000002,0.7,5.40644,25.23005,return,8.95193860004656,,,,,,,7,22,female,up_down_width,2023_Aug_17_0941,exp1,2021.2.3,60.011078031551406,
,,,,,,,,,,,,,,,,4,8.65,9.55,10.45,11.35,0,0.9,0.65,0.25,2.95,10,initial,36.05,312,344,377,409,0,9,9,9,9,0,,,,,0,0,0,0,0,12,12,32,,,,,num_3,6.42065649991855,num_3,0.1,0.5,0.15000000000000002,0.65,5.40644,23.4279,return,4.4476937998551875,,,,,,,7,22,female,up_down_width,2023_Aug_17_0941,exp1,2021.2.3,60.011078031551406,
,,,,,,,,,,,,,,,,4,9.5,9.833333333333334,10.166666666666666,10.5,0,0.3333333333333333,0.08333333333333333,0.25,1.25,10,match,36.05,342,354,367,379,0,9,9,9,9,0,,,,,0,0,0,0,0,13,13,3,,,,,num_3,4.173703499836847,num_3,0.15,1.1,0.25,0.55,9.01073,19.82361,return,7.109828399959952,,,,,,,7,22,female,up_down_width,2023_Aug_17_0941,exp1,2021.2.3,60.011078031551406,
,,,,,,,,,,,,,,,,4,9.25,9.75,10.25,10.75,0,0.5,0.4,0.1,1.6,10,initial,36.05,333,351,370,388,0,9,9,9,9,0,,,,,0,0,0,0,0,14,14,18,,,,,num_4,3.445578600047156,num_4,0.15,1.1,0.10000000000000002,0.5,3.60429,18.02146,return,6.0223196998704225,,,,,,,7,22,female,up_down_width,2023_Aug_17_0941,exp1,2021.2.3,60.011078031551406,
,,,,,,,,,,,,,,,,5,8.65,9.325,10,10.675,11.35,0.675,0.42500000000000004,0.25,2.95,10,match,36.05,312,336,361,385,409,9,9,9,9,9,,,,,0,0,0,0,0,15,15,33,,,,,num_5,2.2816123999655247,num_5,0.2,0.7,0.15000000000000002,0.7,5.40644,25.23005,return,4.397932599997148,,,,,,,7,22,female,up_down_width,2023_Aug_17_0941,exp1,2021.2.3,60.011078031551406,
,,,,,,,,,,,,,,,,5,8.2,9.1,10,10.9,11.8,0.9,0.65,0.25,3.85,10,initial,36.05,296,328,361,393,425,9,9,9,9,9,,,,,0,0,0,0,0,16,16,50,,,,,num_5,5.147786299930885,num_5,0.3,1.1,0.15000000000000002,0.7,5.40644,25.23005,return,6.6047289001289755,,,,,,,7,22,female,up_down_width,2023_Aug_17_0941,exp1,2021.2.3,60.011078031551406,
,,,,,,,,,,,,,,,,5,9.25,9.625,10,10.375,10.75,0.375,0.125,0.25,1.75,10,match,36.05,333,347,361,374,388,9,9,9,9,9,,,,,0,0,0,0,0,17,17,21,,,,,num_4,4.081524800043553,num_4,0.15,0.8,0.25,0.5,9.01073,18.02146,return,4.814419199945405,,,,,,,7,22,female,up_down_width,2023_Aug_17_0941,exp1,2021.2.3,60.011078031551406,
,,,,,,,,,,,,,,,,5,8.65,9.325,10,10.675,11.35,0.675,0.275,0.4,3.1,10,match,36.05,312,336,361,385,409,9,9,9,9,9,,,,,0,0,0,0,0,18,18,35,,,,,num_5,5.593666100176051,num_5,0.15,0.3,0.25,0.45,9.01073,16.21932,return,5.334659300046042,,,,,,,7,22,female,up_down_width,2023_Aug_17_0941,exp1,2021.2.3,60.011078031551406,
,,,,,,,,,,,,,,,,3,9.1,10,10.9,0,0,0.9,0.65,0.25,2.05,10,initial,36.05,328,361,393,0,0,9,9,9,0,0,,,,,0,0,0,0,0,19,19,14,,,,,num_3,1.6640498999040574,num_3,0.1,0.8,0.25,0.8,9.01073,28.83434,return,2.3016339000314474,,,,,,,7,22,female,up_down_width,2023_Aug_17_0941,exp1,2021.2.3,60.011078031551406,
,,,,,,,,,,,,,,,,4,9.3,9.766666666666667,10.233333333333333,10.7,0,0.4666666666666667,0.06666666666666665,0.4,1.8,10,match,36.05,335,352,369,386,0,9,9,9,9,0,,,,,0,0,0,0,0,20,20,11,,,,,num_3,1.5333547999616712,num_3,0.35,1.1,0.3,0.35,10.81288,12.61502,return,6.943944500060752,,,,,,,7,22,female,up_down_width,2023_Aug_17_0941,exp1,2021.2.3,60.011078031551406,
,,,,,,,,,,,,,,,,3,9.1,10,10.9,0,0,0.9,0.8,0.1,1.9000000000000001,10,initial,36.05,328,361,393,0,0,9,9,9,0,0,,,,,0,0,0,0,0,21,21,12,,,,,num_3,1.4905508998781443,num_3,0.35,0.6,0.10000000000000002,1.15,3.60429,41.44937,return,5.765721699921414,,,,,,,7,22,female,up_down_width,2023_Aug_17_0941,exp1,2021.2.3,60.011078031551406,
,,,,,,,,,,,,,,,,3,9.1,10,10.9,0,0,0.9,0.5,0.4,2.2,10,initial,36.05,328,361,393,0,0,9,9,9,0,0,,,,,0,0,0,0,0,22,22,16,,,,,num_3,1.6635993998497725,num_3,0.3,0.8,0.3,0.8,10.81288,28.83434,return,2.939170400146395,,,,,,,7,22,female,up_down_width,2023_Aug_17_0941,exp1,2021.2.3,60.011078031551406,
,,,,,,,,,,,,,,,,5,8.6,9.3,10,10.7,11.4,0.7,0.6,0.1,2.9,10,initial,36.05,310,335,361,386,411,9,9,9,9,9,,,,,0,0,0,0,0,23,23,42,,,,,num_4,3.6608386000152677,num_4,0.1,0.7,0.1,1.1,3.60429,39.64722,return,3.976714099990204,,,,,,,7,22,female,up_down_width,2023_Aug_17_0941,exp1,2021.2.3,60.011078031551406,
,,,,,,,,,,,,,,,,4,9.1,9.7,10.3,10.9,0,0.6000000000000001,0.20000000000000004,0.4,2.2,10,match,36.05,328,350,371,393,0,9,9,9,9,0,,,,,0,0,0,0,0,24,24,17,,,,,num_4,2.5610920002218336,num_4,0.45,0.8,0.30000000000000004,0.6,10.81288,21.62576,return,2.8710406001191586,,,,,,,7,22,female,up_down_width,2023_Aug_17_0941,exp1,2021.2.3,60.011078031551406,
,,,,,,,,,,,,,,,,4,8.95,9.65,10.35,11.05,0,0.7,0.29999999999999993,0.4,2.5,10,initial,36.05,323,348,373,398,0,9,9,9,9,0,,,,,0,0,0,0,0,25,25,28,,,,,num_4,1.4866887999232858,num_4,0.1,1.3,0.39999999999999997,0.9,14.41717,32.43864,return,4.194352200021967,,,,,,,7,22,female,up_down_width,2023_Aug_17_0941,exp1,2021.2.3,60.011078031551406,
,,,,,,,,,,,,,,,,4,8.95,9.65,10.35,11.05,0,0.7,0.44999999999999996,0.25,2.3499999999999996,10,initial,36.05,323,348,373,398,0,9,9,9,9,0,,,,,0,0,0,0,0,26,26,26,,,,,num_4,2.011016600066796,num_4,0.2,1.0,0.3,0.6,10.81288,21.62576,return,3.943384899990633,,,,,,,7,22,female,up_down_width,2023_Aug_17_0941,exp1,2021.2.3,60.011078031551406,
,,,,,,,,,,,,,,,,4,9.25,9.75,10.25,10.75,0,0.5,0.25,0.25,1.75,10,initial,36.05,333,351,370,388,0,9,9,9,9,0,,,,,0,0,0,0,0,27,27,20,,,,,num_4,1.6341544000897557,num_4,0.3,0.8,0.25,0.5,9.01073,18.02146,return,3.5668872999958694,,,,,,,7,22,female,up_down_width,2023_Aug_17_0941,exp1,2021.2.3,60.011078031551406,
,,,,,,,,,,,,,,,,3,9.3,10,10.7,0,0,0.7,0.6,0.1,1.5,10,initial,36.05,335,361,386,0,0,9,9,9,0,0,,,,,0,0,0,0,0,28,28,6,,,,,num_3,2.2123530998360366,num_3,0.25,1,0.10000000000000002,0.7,3.60429,25.23005,return,5.162233999930322,,,,,,,7,22,female,up_down_width,2023_Aug_17_0941,exp1,2021.2.3,60.011078031551406,
,,,,,,,,,,,,,,,,5,9,9.5,10,10.5,11,0.5,0.4,0.1,2.1,10,initial,36.05,324,342,361,379,397,9,9,9,9,9,,,,,0,0,0,0,0,29,29,36,,,,,num_5,1.6048262000549585,num_5,0.45,1.2,0.05000000000000007,0.8,1.80215,28.83434,return,5.825312899891287,,,,,,,7,22,female,up_down_width,2023_Aug_17_0941,exp1,2021.2.3,60.011078031551406,
,,,,,,,,,,,,,,,,3,8.2,10,11.8,0,0,1.8000000000000003,1.7000000000000002,0.1,3.7,10,match,36.05,296,361,425,0,0,9,9,9,0,0,,,,,0,0,0,0,0,30,30,49,,,,,num_2,1.334622299997136,num_2,0.1,1.6,0.10000000000000002,2.1,3.60429,75.69015,return,3.7110860999673605,,,,,,,7,22,female,up_down_width,2023_Aug_17_0941,exp1,2021.2.3,60.011078031551406,
,,,,,,,,,,,,,,,,3,9.3,10,10.7,0,0,0.7,0.29999999999999993,0.4,1.8,10,initial,36.05,335,361,386,0,0,9,9,9,0,0,,,,,0,0,0,0,0,31,31,10,,,,,num_3,1.8101907998789102,num_3,0.3,0.5,0.2,0.6,7.20859,21.62576,return,7.033306800061837,,,,,,,7,22,female,up_down_width,2023_Aug_17_0941,exp1,2021.2.3,60.011078031551406,
,,,,,,,,,,,,,,,,3,9.5,10,10.5,0,0,0.5,0.4,0.1,1.1,10,initial,36.05,342,361,379,0,0,9,9,9,0,0,,,,,0,0,0,0,0,32,32,0,,,,,num_3,1.8199483000207692,num_3,0.2,0.8,0.05000000000000002,0.65,1.80215,23.4279,return,2.3705762999597937,,,,,,,7,22,female,up_down_width,2023_Aug_17_0941,exp1,2021.2.3,60.011078031551406,
,,,,,,,,,,,,,,,,4,8.65,9.55,10.45,11.35,0,0.9,0.5,0.4,3.1,10,initial,36.05,312,344,377,409,0,9,9,9,9,0,,,,,0,0,0,0,0,33,33,34,,,,,num_4,2.2302115000784397,num_4,0.3,0.6,0.25,0.9,9.01073,32.43864,return,4.426507099997252,,,,,,,7,22,female,up_down_width,2023_Aug_17_0941,exp1,2021.2.3,60.011078031551406,
,,,,,,,,,,,,,,,,4,9.425,9.808333333333334,10.191666666666666,10.575,0,0.3833333333333333,0.1333333333333333,0.25,1.4,10,match,36.05,340,354,367,381,0,9,9,9,9,0,,,,,0,0,0,0,0,34,34,5,,,,,num_3,2.1034421001095325,num_3,0.25,0.4,0.25,0.5,9.01073,18.02146,return,3.66569420020096,,,,,,,7,22,female,up_down_width,2023_Aug_17_0941,exp1,2021.2.3,60.011078031551406,
,,,,,,,,,,,,,,,,3,8.6,10,11.4,0,0,1.4,1.2999999999999998,0.1,2.9,10,match,36.05,310,361,411,0,0,9,9,9,0,0,,,,,0,0,0,0,0,35,35,43,,,,,num_3,2.456162399845198,num_3,0.2,0.6,0.10000000000000002,0.95,3.60429,34.24078,return,5.9545301999896765,,,,,,,7,22,female,up_down_width,2023_Aug_17_0941,exp1,2021.2.3,60.011078031551406,
,,,,,,,,,,,,,,,,5,8.95,9.475,10,10.525,11.05,0.525,0.125,0.4,2.5,10,match,36.05,323,342,361,379,398,9,9,9,9,9,,,,,0,0,0,0,0,36,36,29,,,,,num_4,1.9665761000942439,num_4,0.35,1.0,0.39999999999999997,0.6,14.41717,21.62576,return,3.8075975000392646,,,,,,,7,22,female,up_down_width,2023_Aug_17_0941,exp1,2021.2.3,60.011078031551406,
,,,,,,,,,,,,,,,,3,9,10,11,0,0,1,0.9,0.1,2.1,10,match,36.05,324,361,397,0,0,9,9,9,0,0,,,,,0,0,0,0,0,37,37,37,,,,,num_3,1.6236436001490802,num_3,0.35,0.4,0.3,0.65,10.81288,23.4279,return,4.163306700065732,,,,,,,7,22,female,up_down_width,2023_Aug_17_0941,exp1,2021.2.3,60.011078031551406,
,,,,,,,,,,,,,,,,4,8.95,9.65,10.35,11.05,0,0.7,0.6,0.1,2.1999999999999997,10,initial,36.05,323,348,373,398,0,9,9,9,9,0,,,,,0,0,0,0,0,38,38,24,,,,,num_4,1.311667500063777,num_4,0.35,0.6,0.10000000000000002,0.6,3.60429,21.62576,return,3.4635240000206977,,,,,,,7,22,female,up_down_width,2023_Aug_17_0941,exp1,2021.2.3,60.011078031551406,
,,,,,,,,,,,,,,,,5,8.2,9.1,10,10.9,11.8,0.9,0.8,0.1,3.7,10,initial,36.05,296,328,361,393,425,9,9,9,9,9,,,,,0,0,0,0,0,39,39,48,,,,,num_5,1.6319546999875456,num_5,0.45,0.6,0.15000000000000008,0.7,5.40644,25.23005,return,5.388048500055447,,,,,,,7,22,female,up_down_width,2023_Aug_17_0941,exp1,2021.2.3,60.011078031551406,
,,,,,,,,,,,,,,,,5,8.95,9.475,10,10.525,11.05,0.525,0.275,0.25,2.35,10,match,36.05,323,342,361,379,398,9,9,9,9,9,,,,,0,0,0,0,0,40,40,27,,,,,num_4,1.6511069000698626,num_4,0.1,1.0,0.25,0.7,9.01073,25.23005,return,6.158983799861744,,,,,,,7,22,female,up_down_width,2023_Aug_17_0941,exp1,2021.2.3,60.011078031551406,
,,,,,,,,,,,,,,,,3,9.5,10,10.5,0,0,0.5,0.09999999999999998,0.4,1.4000000000000001,10,initial,36.05,342,361,379,0,0,9,9,9,0,0,,,,,0,0,0,0,0,41,41,4,,,,,num_3,1.7555042000021785,num_3,0.1,0.5,0.35,0.5,12.61502,18.02146,return,3.2989038000814617,,,,,,,7,22,female,up_down_width,2023_Aug_17_0941,exp1,2021.2.3,60.011078031551406,
,,,,,,,,,,,,,,,,4,9.1,9.7,10.3,10.9,0,0.6,0.5,0.1,1.9,10,match,36.05,328,350,371,393,0,9,9,9,9,0,,,,,0,0,0,0,0,42,42,13,,,,,num_4,1.3469203999266028,num_4,0.15,1.0,0.15,0.6,5.40644,21.62576,return,3.709184200037271,,,,,,,7,22,female,up_down_width,2023_Aug_17_0941,exp1,2021.2.3,60.011078031551406,
,,,,,,,,,,,,,,,,5,8.95,9.475,10,10.525,11.05,0.525,0.42500000000000004,0.1,2.2,10,match,36.05,323,342,361,379,398,9,9,9,9,9,,,,,0,0,0,0,0,43,43,25,,,,,num_4,1.7603293000720441,num_4,0.2,0.4,0.05000000000000002,0.6,1.80215,21.62576,return,4.454926799982786,,,,,,,7,22,female,up_down_width,2023_Aug_17_0941,exp1,2021.2.3,60.011078031551406,
,,,,,,,,,,,,,,,,5,8.2,9.1,10,10.9,11.8,0.9,0.5,0.4,4,10,initial,36.05,296,328,361,393,425,9,9,9,9,9,,,,,0,0,0,0,0,44,44,52,,,,,num_4,13.193165000062436,num_4,0.15,0.5,0.2,0.7,7.20859,25.23005,return,10.489227199926972,,,,,,,7,22,female,up_down_width,2023_Aug_17_0941,exp1,2021.2.3,60.011078031551406,
,,,,,,,,,,,,,,,,3,8.6,10,11.4,0,0,1.4,1.15,0.25,3.05,10,match,36.05,310,361,411,0,0,9,9,9,0,0,,,,,0,0,0,0,0,45,45,45,,,,,num_3,2.554864700185135,num_3,0.4,0.6,0.20000000000000007,1.05,7.20859,37.84507,return,7.539327299920842,,,,,,,7,22,female,up_down_width,2023_Aug_17_0941,exp1,2021.2.3,60.011078031551406,
,,,,,,,,,,,,,,,,4,8.65,9.55,10.45,11.35,0,0.9,0.8,0.1,2.8000000000000003,10,initial,36.05,312,344,377,409,0,9,9,9,9,0,,,,,0,0,0,0,0,46,46,30,,,,,num_3,1.9862074998673052,num_3,0.25,1.3,0.10000000000000002,1.3,3.60429,46.85581,return,1.9993527999613434,,,,,,,7,22,female,up_down_width,2023_Aug_17_0941,exp1,2021.2.3,60.011078031551406,
,,,,,,,,,,,,,,,,4,9.25,9.75,10.25,10.75,0,0.5,0.09999999999999998,0.4,1.9,10,initial,36.05,333,351,370,388,0,9,9,9,9,0,,,,,0,0,0,0,0,47,47,22,,,,,num_3,2.146340699866414,num_3,0.3,0.6,0.35,0.5,12.61502,18.02146,return,3.739435999887064,,,,,,,7,22,female,up_down_width,2023_Aug_17_0941,exp1,2021.2.3,60.011078031551406,
,,,,,,,,,,,,,,,,3,9.5,10,10.5,0,0,0.5,0.25,0.25,1.25,10,initial,36.05,342,361,379,0,0,9,9,9,0,0,,,,,0,0,0,0,0,48,48,2,,,,,num_3,3.3782170000486076,num_3,0.1,0.4,0.25,0.4,9.01073,14.41717,return,5.641410200158134,,,,,,,7,22,female,up_down_width,2023_Aug_17_0941,exp1,2021.2.3,60.011078031551406,
,,,,,,,,,,,,,,,,5,9.25,9.625,10,10.375,10.75,0.375,0.275,0.1,1.6,10,match,36.05,333,347,361,374,388,9,9,9,9,9,,,,,0,0,0,0,0,49,49,19,,,,,num_3,1.7168340999633074,num_3,0.15,0.5,0.15000000000000002,0.35,5.40644,12.61502,return,5.0717660000082105,,,,,,,7,22,female,up_down_width,2023_Aug_17_0941,exp1,2021.2.3,60.011078031551406,
,,,,,,,,,,,,,,,,5,8.65,9.325,10,10.675,11.35,0.6749999999999999,0.575,0.1,2.8,10,match,36.05,312,336,361,385,409,9,9,9,9,9,,,,,0,0,0,0,0,50,50,31,,,,,num_5,2.4615431998390704,num_5,0.15,1.3,0.09999999999999999,0.95,3.60429,34.24078,return,6.073967600008473,,,,,,,7,22,female,up_down_width,2023_Aug_17_0941,exp1,2021.2.3,60.011078031551406,
,,,,,,,,,,,,,,,,4,9.3,9.766666666666667,10.233333333333333,10.7,0,0.4666666666666667,0.21666666666666665,0.25,1.65,10,match,36.05,335,352,369,386,0,9,9,9,9,0,,,,,0,0,0,0,0,51,51,9,,,,,num_4,1.3476217999123037,num_4,0.25,0.7,0.15000000000000002,0.7,5.40644,25.23005,return,4.490518299862742,,,,,,,7,22,female,up_down_width,2023_Aug_17_0941,exp1,2021.2.3,60.011078031551406,
,,,,,,,,,,,,,,,,4,9.5,9.833333333333334,10.166666666666666,10.5,0,0.33333333333333337,0.23333333333333336,0.1,1.1,10,match,36.05,342,354,367,379,0,9,9,9,9,0,,,,,0,0,0,0,0,52,52,1,,,,,num_4,2.5493813001085073,num_4,0.3,0.5,0.15000000000000002,0.3,5.40644,10.81288,return,3.63168069999665,,,,,,,7,22,female,up_down_width,2023_Aug_17_0941,exp1,2021.2.3,60.011078031551406,
,,,,,,,,,,,,,,,,5,8.6,9.3,10,10.7,11.4,0.7,0.44999999999999996,0.25,3.05,10,initial,36.05,310,335,361,386,411,9,9,9,9,9,,,,,0,0,0,0,0,53,53,44,,,,,num_4,1.5082657001912594,num_4,0.25,0.7,0.25,0.7,9.01073,25.23005,return,1.4772950999904424,,,,,,,7,22,female,up_down_width,2023_Aug_17_0941,exp1,2021.2.3,60.011078031551406,
,,,,,,,,,,,,,,,,,,,,,,,,,,,,,,,,,,,,,,,,,,,0,0,0,0,,,,,,,,,,,,,,,,,,,,,,903.8335597999394,None,903.8335597999394,None,7,22,female,up_down_width,2023_Aug_17_0941,exp1,2021.2.3,60.011078031551406,
,,,,,,,,,,,,,,,,3,9,10,11,0,0,1,0.9,0.1,2.1,10,match,36.05,324,361,397,0,0,9,9,9,0,0,,,,,1,0,1,0,0,0,0,37,,,,,num_3,1.591579900123179,num_3,0.15,0.9,0.09999999999999999,0.9,3.60429,32.43864,return,1.3190662001725286,,,,,,,7,22,female,up_down_width,2023_Aug_17_0941,exp1,2021.2.3,60.011078031551406,
,,,,,,,,,,,,,,,,5,8.65,9.325,10,10.675,11.35,0.6749999999999999,0.575,0.1,2.8,10,match,36.05,312,336,361,385,409,9,9,9,9,9,,,,,1,0,1,0,0,1,1,31,,,,,num_4,0.8509219998959452,num_4,0.4,1.3,0.10000000000000007,1.0,3.60429,36.04293,return,3.024328799918294,,,,,,,7,22,female,up_down_width,2023_Aug_17_0941,exp1,2021.2.3,60.011078031551406,
,,,,,,,,,,,,,,,,3,9.3,10,10.7,0,0,0.7,0.44999999999999996,0.25,1.65,10,initial,36.05,335,361,386,0,0,9,9,9,0,0,,,,,1,0,1,0,0,2,2,8,,,,,num_3,1.2635200000368059,num_3,0.3,0.7,0.2,0.7,7.20859,25.23005,return,3.883786999853328,,,,,,,7,22,female,up_down_width,2023_Aug_17_0941,exp1,2021.2.3,60.011078031551406,
,,,,,,,,,,,,,,,,4,9.5,9.833333333333334,10.166666666666666,10.5,0,0.3333333333333333,0.08333333333333333,0.25,1.25,10,match,36.05,342,354,367,379,0,9,9,9,9,0,,,,,1,0,1,0,0,3,3,3,,,,,num_3,1.2675236000213772,num_3,0.1,0.3,0.2,0.3,7.20859,10.81288,return,3.5364798000082374,,,,,,,7,22,female,up_down_width,2023_Aug_17_0941,exp1,2021.2.3,60.011078031551406,
,,,,,,,,,,,,,,,,4,8.65,9.55,10.45,11.35,0,0.9,0.5,0.4,3.1,10,initial,36.05,312,344,377,409,0,9,9,9,9,0,,,,,1,0,1,0,0,4,4,34,,,,,num_3,2.4593687998130918,num_3,0.4,1,0.4,1,14.41717,36.04293,return,3.269673600094393,,,,,,,7,22,female,up_down_width,2023_Aug_17_0941,exp1,2021.2.3,60.011078031551406,
,,,,,,,,,,,,,,,,5,8.65,9.325,10,10.675,11.35,0.675,0.42500000000000004,0.25,2.95,10,match,36.05,312,336,361,385,409,9,9,9,9,9,,,,,1,0,1,0,0,5,5,33,,,,,num_4,1.1417404999956489,num_4,0.45,0.7,0.35000000000000003,0.8,12.61502,28.83434,return,3.079859600169584,,,,,,,7,22,female,up_down_width,2023_Aug_17_0941,exp1,2021.2.3,60.011078031551406,
,,,,,,,,,,,,,,,,3,9.3,10,10.7,0,0,0.7,0.6,0.1,1.5,10,initial,36.05,335,361,386,0,0,9,9,9,0,0,,,,,1,0,1,0,0,6,6,6,,,,,num_3,1.0961994999088347,num_3,0.35,0.5,0.15000000000000002,0.6,5.40644,21.62576,return,3.501472700154409,,,,,,,7,22,female,up_down_width,2023_Aug_17_0941,exp1,2021.2.3,60.011078031551406,
,,,,,,,,,,,,,,,,3,9,10,11,0,0,1,0.75,0.25,2.25,10,match,36.05,324,361,397,0,0,9,9,9,0,0,,,,,1,0,1,0,0,7,7,39,,,,,num_3,1.2481011000927538,num_3,0.15,0.9,0.3,0.9,10.81288,32.43864,return,2.221963700139895,,,,,,,7,22,female,up_down_width,2023_Aug_17_0941,exp1,2021.2.3,60.011078031551406,
,,,,,,,,,,,,,,,,5,9,9.5,10,10.5,11,0.5,0.09999999999999998,0.4,2.4,10,initial,36.05,324,342,361,379,397,9,9,9,9,9,,,,,1,0,1,0,0,8,8,40,,,,,num_4,1.1478069999720901,num_4,0.2,0.5,0.35,0.5,12.61502,18.02146,return,4.251895199995488,,,,,,,7,22,female,up_down_width,2023_Aug_17_0941,exp1,2021.2.3,60.011078031551406,
,,,,,,,,,,,,,,,,4,9.25,9.75,10.25,10.75,0,0.5,0.4,0.1,1.6,10,initial,36.05,333,351,370,388,0,9,9,9,9,0,,,,,1,0,1,0,0,9,9,18,,,,,num_4,1.349398700054735,num_4,0.1,0.9,0.25,0.5,9.01073,18.02146,return,5.839312799973413,,,,,,,7,22,female,up_down_width,2023_Aug_17_0941,exp1,2021.2.3,60.011078031551406,
,,,,,,,,,,,,,,,,4,9.1,9.7,10.3,10.9,0,0.6,0.5,0.1,1.9,10,match,36.05,328,350,371,393,0,9,9,9,9,0,,,,,1,0,1,0,0,10,10,13,,,,,num_4,1.1214923998340964,num_4,0.45,0.8,0.15000000000000008,0.5,5.40644,18.02146,return,3.699243500130251,,,,,,,7,22,female,up_down_width,2023_Aug_17_0941,exp1,2021.2.3,60.011078031551406,
,,,,,,,,,,,,,,,,3,8.2,10,11.8,0,0,1.8000000000000003,1.7000000000000002,0.1,3.7,10,match,36.05,296,361,425,0,0,9,9,9,0,0,,,,,1,0,1,0,0,11,11,49,,,,,num_3,1.2399278001394123,num_3,0.45,0.8,0.10000000000000007,1.15,3.60429,41.44937,return,5.507945199962705,,,,,,,7,22,female,up_down_width,2023_Aug_17_0941,exp1,2021.2.3,60.011078031551406,
,,,,,,,,,,,,,,,,5,8.2,9.1,10,10.9,11.8,0.9,0.8,0.1,3.7,10,initial,36.05,296,328,361,393,425,9,9,9,9,9,,,,,1,0,1,0,0,12,12,48,,,,,num_4,1.5739082000218332,num_4,0.3,0.4,0.10000000000000002,0.8,3.60429,28.83434,return,3.317908599972725,,,,,,,7,22,female,up_down_width,2023_Aug_17_0941,exp1,2021.2.3,60.011078031551406,
,,,,,,,,,,,,,,,,4,9.1,9.7,10.3,10.9,0,0.5999999999999999,0.3499999999999999,0.25,2.05,10,match,36.05,328,350,371,393,0,9,9,9,9,0,,,,,1,0,1,0,0,13,13,15,,,,,num_4,1.2256275000981987,num_4,0.35,0.6,0.2,0.6,7.20859,21.62576,return,1.6542176001239568,,,,,,,7,22,female,up_down_width,2023_Aug_17_0941,exp1,2021.2.3,60.011078031551406,
,,,,,,,,,,,,,,,,5,8.6,9.3,10,10.7,11.4,0.7,0.44999999999999996,0.25,3.05,10,initial,36.05,310,335,361,386,411,9,9,9,9,9,,,,,1,0,1,0,0,14,14,44,,,,,num_5,1.9055328001268208,num_5,0.3,0.4,0.15000000000000002,0.65,5.40644,23.4279,return,3.940901900175959,,,,,,,7,22,female,up_down_width,2023_Aug_17_0941,exp1,2021.2.3,60.011078031551406,
,,,,,,,,,,,,,,,,3,8.6,10,11.4,0,0,1.4,1.2999999999999998,0.1,2.9,10,match,36.05,310,361,411,0,0,9,9,9,0,0,,,,,1,0,1,0,0,15,15,43,,,,,num_3,1.5129013999830931,num_3,0.15,1.1,0.15,1.15,5.40644,41.44937,return,2.506616699974984,,,,,,,7,22,female,up_down_width,2023_Aug_17_0941,exp1,2021.2.3,60.011078031551406,
,,,,,,,,,,,,,,,,3,9.5,10,10.5,0,0,0.5,0.4,0.1,1.1,10,initial,36.05,342,361,379,0,0,9,9,9,0,0,,,,,1,0,1,0,0,16,16,0,,,,,num_3,1.63171730004251,num_3,0.25,0.5,0.2,0.5,7.20859,18.02146,return,5.789645199896768,,,,,,,7,22,female,up_down_width,2023_Aug_17_0941,exp1,2021.2.3,60.011078031551406,
,,,,,,,,,,,,,,,,4,9.3,9.766666666666667,10.233333333333333,10.7,0,0.4666666666666667,0.06666666666666665,0.4,1.8,10,match,36.05,335,352,369,386,0,9,9,9,9,0,,,,,1,0,1,0,0,17,17,11,,,,,num_3,1.240181399974972,num_3,0.2,1,0.39999999999999997,0.65,14.41717,23.4279,return,4.692573899868876,,,,,,,7,22,female,up_down_width,2023_Aug_17_0941,exp1,2021.2.3,60.011078031551406,
,,,,,,,,,,,,,,,,3,8.6,10,11.4,0,0,1.4,1.15,0.25,3.05,10,match,36.05,310,361,411,0,0,9,9,9,0,0,,,,,1,0,1,0,0,18,18,45,,,,,num_3,1.6863664998672903,num_3,0.35,1.1,0.2,1.1,7.20859,39.64722,return,2.5601071999408305,,,,,,,7,22,female,up_down_width,2023_Aug_17_0941,exp1,2021.2.3,60.011078031551406,
,,,,,,,,,,,,,,,,5,9,9.5,10,10.5,11,0.5,0.25,0.25,2.25,10,initial,36.05,324,342,361,379,397,9,9,9,9,9,,,,,1,0,1,0,0,19,19,38,,,,,num_5,4.077845099847764,num_5,0.2,0.5,0.3,0.6,10.81288,21.62576,return,5.4498127000406384,,,,,,,7,22,female,up_down_width,2023_Aug_17_0941,exp1,2021.2.3,60.011078031551406,
,,,,,,,,,,,,,,,,5,8.65,9.325,10,10.675,11.35,0.675,0.275,0.4,3.1,10,match,36.05,312,336,361,385,409,9,9,9,9,9,,,,,1,0,1,0,0,20,20,35,,,,,num_4,1.1604243000037968,num_4,0.3,1.3,0.5499999999999999,0.9,19.82361,32.43864,return,4.665069199865684,,,,,,,7,22,female,up_down_width,2023_Aug_17_0941,exp1,2021.2.3,60.011078031551406,
,,,,,,,,,,,,,,,,5,8.2,9.1,10,10.9,11.8,0.9,0.65,0.25,3.85,10,initial,36.05,296,328,361,393,425,9,9,9,9,9,,,,,1,0,1,0,0,21,21,50,,,,,num_5,2.1290765998419374,num_5,0.15,1.2,0.35,1.2,12.61502,43.25151,return,2.058338299859315,,,,,,,7,22,female,up_down_width,2023_Aug_17_0941,exp1,2021.2.3,60.011078031551406,
,,,,,,,,,,,,,,,,5,8.6,9.3,10,10.7,11.4,0.7,0.29999999999999993,0.4,3.1999999999999997,10,initial,36.05,310,335,361,386,411,9,9,9,9,9,,,,,1,0,1,0,0,22,22,46,,,,,num_4,1.1407586999703199,num_4,0.35,1.1,0.39999999999999997,0.9,14.41717,32.43864,return,4.054240599973127,,,,,,,7,22,female,up_down_width,2023_Aug_17_0941,exp1,2021.2.3,60.011078031551406,
,,,,,,,,,,,,,,,,5,9.25,9.625,10,10.375,10.75,0.375,0.275,0.1,1.6,10,match,36.05,333,347,361,374,388,9,9,9,9,9,,,,,1,0,1,0,0,23,23,19,,,,,num_4,1.1846728001255542,num_4,0.1,1.2,0.1,0.5,3.60429,18.02146,return,3.4411637999583036,,,,,,,7,22,female,up_down_width,2023_Aug_17_0941,exp1,2021.2.3,60.011078031551406,
,,,,,,,,,,,,,,,,5,8.95,9.475,10,10.525,11.05,0.525,0.125,0.4,2.5,10,match,36.05,323,342,361,379,398,9,9,9,9,9,,,,,1,0,1,0,0,24,24,29,,,,,num_4,1.2396058000158519,num_4,0.15,0.5,0.35,0.7,12.61502,25.23005,return,3.3330208000261337,,,,,,,7,22,female,up_down_width,2023_Aug_17_0941,exp1,2021.2.3,60.011078031551406,
,,,,,,,,,,,,,,,,3,9.1,10,10.9,0,0,0.9,0.8,0.1,1.9000000000000001,10,initial,36.05,328,361,393,0,0,9,9,9,0,0,,,,,1,0,1,0,0,25,25,12,,,,,num_2,1.2401193999685347,num_2,0.25,1.6,0.15000000000000002,1.6,5.40644,57.66869,return,3.348936199909076,,,,,,,7,22,female,up_down_width,2023_Aug_17_0941,exp1,2021.2.3,60.011078031551406,
,,,,,,,,,,,,,,,,4,9.3,9.766666666666667,10.233333333333333,10.7,0,0.4666666666666667,0.21666666666666665,0.25,1.65,10,match,36.05,335,352,369,386,0,9,9,9,9,0,,,,,1,0,1,0,0,26,26,9,,,,,num_4,1.384343900019303,num_4,0.25,0.6,0.25,0.4,9.01073,14.41717,return,4.783312800107524,,,,,,,7,22,female,up_down_width,2023_Aug_17_0941,exp1,2021.2.3,60.011078031551406,
,,,,,,,,,,,,,,,,3,8.525,10,11.475,0,0,1.475,1.225,0.25,3.2,10,match,36.05,307,361,414,0,0,9,9,9,0,0,,,,,1,0,1,0,0,27,27,47,,,,,num_3,1.1374998001847416,num_3,0.2,0.7,0.2,1.05,7.20859,37.84507,return,3.5862437000032514,,,,,,,7,22,female,up_down_width,2023_Aug_17_0941,exp1,2021.2.3,60.011078031551406,
,,,,,,,,,,,,,,,,4,8.95,9.65,10.35,11.05,0,0.7,0.6,0.1,2.1999999999999997,10,initial,36.05,323,348,373,398,0,9,9,9,9,0,,,,,1,0,1,0,0,28,28,24,,,,,num_4,1.060174599988386,num_4,0.2,0.7,0.05000000000000002,0.8,1.80215,28.83434,return,1.7982594999484718,,,,,,,7,22,female,up_down_width,2023_Aug_17_0941,exp1,2021.2.3,60.011078031551406,
,,,,,,,,,,,,,,,,5,9,9.5,10,10.5,11,0.5,0.4,0.1,2.1,10,initial,36.05,324,342,361,379,397,9,9,9,9,9,,,,,1,0,1,0,0,29,29,36,,,,,num_4,1.1014271001331508,num_4,0.1,1.0,0.1,0.7,3.60429,25.23005,return,4.1901446999982,,,,,,,7,22,female,up_down_width,2023_Aug_17_0941,exp1,2021.2.3,60.011078031551406,
,,,,,,,,,,,,,,,,3,9.3,10,10.7,0,0,0.7,0.29999999999999993,0.4,1.8,10,initial,36.05,335,361,386,0,0,9,9,9,0,0,,,,,1,0,1,0,0,30,30,10,,,,,num_3,1.327638200018555,num_3,0.4,1.3,0.35000000000000003,0.95,12.61502,34.24078,return,4.534909100038931,,,,,,,7,22,female,up_down_width,2023_Aug_17_0941,exp1,2021.2.3,60.011078031551406,
,,,,,,,,,,,,,,,,4,8.95,9.65,10.35,11.05,0,0.7,0.29999999999999993,0.4,2.5,10,initial,36.05,323,348,373,398,0,9,9,9,9,0,,,,,1,0,1,0,0,31,31,28,,,,,num_3,1.2366543000098318,num_3,0.3,0.8,0.39999999999999997,0.8,14.41717,28.83434,return,3.08940689987503,,,,,,,7,22,female,up_down_width,2023_Aug_17_0941,exp1,2021.2.3,60.011078031551406,
,,,,,,,,,,,,,,,,4,9.425,9.808333333333334,10.191666666666666,10.575,0,0.3833333333333333,0.1333333333333333,0.25,1.4,10,match,36.05,340,354,367,381,0,9,9,9,9,0,,,,,1,0,1,0,0,32,32,5,,,,,num_3,1.229025499895215,num_3,0.2,0.3,0.3,0.45,10.81288,16.21932,return,4.7782831999938935,,,,,,,7,22,female,up_down_width,2023_Aug_17_0941,exp1,2021.2.3,60.011078031551406,
,,,,,,,,,,,,,,,,4,8.95,9.65,10.35,11.05,0,0.7,0.44999999999999996,0.25,2.3499999999999996,10,initial,36.05,323,348,373,398,0,9,9,9,9,0,,,,,1,0,1,0,0,33,33,26,,,,,num_4,1.1662545998115093,num_4,0.45,0.7,0.30000000000000004,0.6,10.81288,21.62576,return,3.534053700044751,,,,,,,7,22,female,up_down_width,2023_Aug_17_0941,exp1,2021.2.3,60.011078031551406,
,,,,,,,,,,,,,,,,4,8.65,9.55,10.45,11.35,0,0.9,0.65,0.25,2.95,10,initial,36.05,312,344,377,409,0,9,9,9,9,0,,,,,1,0,1,0,0,34,34,32,,,,,num_4,1.202036599861458,num_4,0.35,1.0,0.25,0.6,9.01073,21.62576,return,6.991558699868619,,,,,,,7,22,female,up_down_width,2023_Aug_17_0941,exp1,2021.2.3,60.011078031551406,
,,,,,,,,,,,,,,,,4,9.3,9.766666666666667,10.233333333333333,10.7,0,0.4666666666666667,0.3666666666666667,0.1,1.5,10,match,36.05,335,352,369,386,0,9,9,9,9,0,,,,,1,0,1,0,0,35,35,7,,,,,num_4,1.2636057999916375,num_4,0.2,1.3,0.10000000000000002,0.4,3.60429,14.41717,return,5.182303800014779,,,,,,,7,22,female,up_down_width,2023_Aug_17_0941,exp1,2021.2.3,60.011078031551406,
,,,,,,,,,,,,,,,,4,9.1,9.7,10.3,10.9,0,0.6000000000000001,0.20000000000000004,0.4,2.2,10,match,36.05,328,350,371,393,0,9,9,9,9,0,,,,,1,0,1,0,0,36,36,17,,,,,num_4,1.1334690998774022,num_4,0.4,0.9,0.20000000000000007,0.5,7.20859,18.02146,return,6.396719899959862,,,,,,,7,22,female,up_down_width,2023_Aug_17_0941,exp1,2021.2.3,60.011078031551406,
,,,,,,,,,,,,,,,,3,9.1,10,10.9,0,0,0.9,0.65,0.25,2.05,10,initial,36.05,328,361,393,0,0,9,9,9,0,0,,,,,1,0,1,0,0,37,37,14,,,,,num_3,1.240176800172776,num_3,0.25,0.9,0.2,0.9,7.20859,32.43864,return,4.130810699891299,,,,,,,7,22,female,up_down_width,2023_Aug_17_0941,exp1,2021.2.3,60.011078031551406,
,,,,,,,,,,,,,,,,5,9.175,9.5875,10,10.4125,10.825,0.4125,0.16249999999999998,0.25,1.9,10,match,36.05,331,346,361,375,390,9,9,9,9,9,,,,,1,0,1,0,0,38,38,23,,,,,num_2,2.288981300080195,num_2,0.35,1.6,0.35,1.6,12.61502,57.66869,return,5.090600700117648,,,,,,,7,22,female,up_down_width,2023_Aug_17_0941,exp1,2021.2.3,60.011078031551406,
,,,,,,,,,,,,,,,,5,8.6,9.3,10,10.7,11.4,0.7,0.6,0.1,2.9,10,initial,36.05,310,335,361,386,411,9,9,9,9,9,,,,,1,0,1,0,0,39,39,42,,,,,num_4,1.0667971998918802,num_4,0.1,0.8,0.15000000000000002,0.8,5.40644,28.83434,return,2.4473443999886513,,,,,,,7,22,female,up_down_width,2023_Aug_17_0941,exp1,2021.2.3,60.011078031551406,
,,,,,,,,,,,,,,,,4,8.65,9.55,10.45,11.35,0,0.9,0.8,0.1,2.8000000000000003,10,initial,36.05,312,344,377,409,0,9,9,9,9,0,,,,,1,0,1,0,0,40,40,30,,,,,num_3,1.4701648999471217,num_3,0.3,0.6,0.10000000000000002,0.85,3.60429,30.63649,return,4.722736199852079,,,,,,,7,22,female,up_down_width,2023_Aug_17_0941,exp1,2021.2.3,60.011078031551406,
,,,,,,,,,,,,,,,,4,9.25,9.75,10.25,10.75,0,0.5,0.25,0.25,1.75,10,initial,36.05,333,351,370,388,0,9,9,9,9,0,,,,,1,0,1,0,0,41,41,20,,,,,num_4,2.2636154999490827,num_4,0.25,0.9,0.25,0.5,9.01073,18.02146,return,3.9811917999759316,,,,,,,7,22,female,up_down_width,2023_Aug_17_0941,exp1,2021.2.3,60.011078031551406,
,,,,,,,,,,,,,,,,3,8.2,10,11.8,0,0,1.8,1.55,0.25,3.85,10,match,36.05,296,361,425,0,0,9,9,9,0,0,,,,,1,0,1,0,0,42,42,51,,,,,num_3,1.3096296000294387,num_3,0.2,0.3,0.35,1.2,12.61502,43.25151,return,9.799059299984947,,,,,,,7,22,female,up_down_width,2023_Aug_17_0941,exp1,2021.2.3,60.011078031551406,
,,,,,,,,,,,,,,,,3,9.5,10,10.5,0,0,0.5,0.09999999999999998,0.4,1.4000000000000001,10,initial,36.05,342,361,379,0,0,9,9,9,0,0,,,,,1,0,1,0,0,43,43,4,,,,,num_3,2.348709600046277,num_3,0.1,0.4,0.3,0.45,10.81288,16.21932,return,3.597515600034967,,,,,,,7,22,female,up_down_width,2023_Aug_17_0941,exp1,2021.2.3,60.011078031551406,
,,,,,,,,,,,,,,,,3,9,10,11,0,0,0.9999999999999999,0.5999999999999999,0.4,2.4,10,match,36.05,324,361,397,0,0,9,9,9,0,0,,,,,1,0,1,0,0,44,44,41,,,,,num_3,1.0449606999754906,num_3,0.15,1.1,0.39999999999999997,1.1,14.41717,39.64722,return,7.353985000168905,,,,,,,7,22,female,up_down_width,2023_Aug_17_0941,exp1,2021.2.3,60.011078031551406,
,,,,,,,,,,,,,,,,5,8.95,9.475,10,10.525,11.05,0.525,0.275,0.25,2.35,10,match,36.05,323,342,361,379,398,9,9,9,9,9,,,,,1,0,1,0,0,45,45,27,,,,,num_5,2.3328597000800073,num_5,0.35,0.9,0.25,0.65,9.01073,23.4279,return,6.814543799962848,,,,,,,7,22,female,up_down_width,2023_Aug_17_0941,exp1,2021.2.3,60.011078031551406,
,,,,,,,,,,,,,,,,5,9.25,9.625,10,10.375,10.75,0.375,0.125,0.25,1.75,10,match,36.05,333,347,361,374,388,9,9,9,9,9,,,,,1,0,1,0,0,46,46,21,,,,,num_4,1.1629116002004594,num_4,0.15,1.3,0.3,0.5,10.81288,18.02146,return,3.8829668001271784,,,,,,,7,22,female,up_down_width,2023_Aug_17_0941,exp1,2021.2.3,60.011078031551406,
,,,,,,,,,,,,,,,,4,9.5,9.833333333333334,10.166666666666666,10.5,0,0.33333333333333337,0.23333333333333336,0.1,1.1,10,match,36.05,342,354,367,379,0,9,9,9,9,0,,,,,1,0,1,0,0,47,47,1,,,,,num_3,1.448652199935168,num_3,0.2,1,0.10000000000000002,0.5,3.60429,18.02146,return,5.134054400026798,,,,,,,7,22,female,up_down_width,2023_Aug_17_0941,exp1,2021.2.3,60.011078031551406,
,,,,,,,,,,,,,,,,5,8.95,9.475,10,10.525,11.05,0.525,0.42500000000000004,0.1,2.2,10,match,36.05,323,342,361,379,398,9,9,9,9,9,,,,,1,0,1,0,0,48,48,25,,,,,num_4,1.2456263001076877,num_4,0.2,0.3,0.05000000000000002,0.9,1.80215,32.43864,return,5.530691500054672,,,,,,,7,22,female,up_down_width,2023_Aug_17_0941,exp1,2021.2.3,60.011078031551406,
,,,,,,,,,,,,,,,,3,8.2,10,11.8,0,0,1.7999999999999998,1.4,0.4,4,10,match,36.05,296,361,425,0,0,9,9,9,0,0,,,,,1,0,1,0,0,49,49,53,,,,,num_3,1.1622187001630664,num_3,0.4,1,0.35000000000000003,1.3,12.61502,46.85581,return,3.9467221999075264,,,,,,,7,22,female,up_down_width,2023_Aug_17_0941,exp1,2021.2.3,60.011078031551406,
,,,,,,,,,,,,,,,,5,8.2,9.1,10,10.9,11.8,0.9,0.5,0.4,4,10,initial,36.05,296,328,361,393,425,9,9,9,9,9,,,,,1,0,1,0,0,50,50,52,,,,,num_4,1.0056436997838318,num_4,0.2,1.0,0.3,1.2,10.81288,43.25151,return,3.3472343999892473,,,,,,,7,22,female,up_down_width,2023_Aug_17_0941,exp1,2021.2.3,60.011078031551406,
,,,,,,,,,,,,,,,,3,9.1,10,10.9,0,0,0.9,0.5,0.4,2.2,10,initial,36.05,328,361,393,0,0,9,9,9,0,0,,,,,1,0,1,0,0,51,51,16,,,,,num_3,4.142892099916935,num_3,0.45,1.2,0.4,1.0,14.41717,36.04293,return,3.4329192000441253,,,,,,,7,22,female,up_down_width,2023_Aug_17_0941,exp1,2021.2.3,60.011078031551406,
,,,,,,,,,,,,,,,,3,9.5,10,10.5,0,0,0.5,0.25,0.25,1.25,10,initial,36.05,342,361,379,0,0,9,9,9,0,0,,,,,1,0,1,0,0,52,52,2,,,,,num_2,1.6217058999463916,num_2,0.2,1.6,0.3,1.0,10.81288,36.04293,return,5.779754200018942,,,,,,,7,22,female,up_down_width,2023_Aug_17_0941,exp1,2021.2.3,60.011078031551406,
,,,,,,,,,,,,,,,,4,9.25,9.75,10.25,10.75,0,0.5,0.09999999999999998,0.4,1.9,10,initial,36.05,333,351,370,388,0,9,9,9,9,0,,,,,1,0,1,0,0,53,53,22,,,,,num_3,1.4390159999020398,num_3,0.3,1.1,0.35,0.6,12.61502,21.62576,return,4.979561599902809,,,,,,,7,22,female,up_down_width,2023_Aug_17_0941,exp1,2021.2.3,60.011078031551406,
,,,,,,,,,,,,,,,,,,,,,,,,,,,,,,,,,,,,,,,,,,,1,0,1,0,,,,,,,,,,,,,,,,,,,,,,1320.9967061998323,None,1320.9967061998323,None,7,22,female,up_down_width,2023_Aug_17_0941,exp1,2021.2.3,60.011078031551406,
,,,,,,,,,,,,,,,,4,9.3,9.766666666666667,10.233333333333333,10.7,0,0.4666666666666667,0.21666666666666665,0.25,1.65,10,match,36.05,335,352,369,386,0,9,9,9,9,0,,,,,2,0,2,0,0,0,0,9,,,,,num_3,1.1470389999449253,num_3,0.4,1.3,0.25000000000000006,0.6,9.01073,21.62576,return,5.0998709998093545,,,,,,,7,22,female,up_down_width,2023_Aug_17_0941,exp1,2021.2.3,60.011078031551406,
,,,,,,,,,,,,,,,,3,9.3,10,10.7,0,0,0.7,0.6,0.1,1.5,10,initial,36.05,335,361,386,0,0,9,9,9,0,0,,,,,2,0,2,0,0,1,1,6,,,,,num_3,0.9667850998230278,num_3,0.35,0.5,0.15000000000000002,0.5,5.40644,18.02146,return,4.543170700082555,,,,,,,7,22,female,up_down_width,2023_Aug_17_0941,exp1,2021.2.3,60.011078031551406,
,,,,,,,,,,,,,,,,4,9.1,9.7,10.3,10.9,0,0.6000000000000001,0.20000000000000004,0.4,2.2,10,match,36.05,328,350,371,393,0,9,9,9,9,0,,,,,2,0,2,0,0,2,2,17,,,,,num_3,1.0402158999349922,num_3,0.2,1,0.44999999999999996,0.85,16.21932,30.63649,return,3.2539187998045236,,,,,,,7,22,female,up_down_width,2023_Aug_17_0941,exp1,2021.2.3,60.011078031551406,
,,,,,,,,,,,,,,,,5,8.65,9.325,10,10.675,11.35,0.675,0.275,0.4,3.1,10,match,36.05,312,336,361,385,409,9,9,9,9,9,,,,,2,0,2,0,0,3,3,35,,,,,num_4,0.998357999837026,num_4,0.4,0.9,0.4,0.8,14.41717,28.83434,return,7.067276099929586,,,,,,,7,22,female,up_down_width,2023_Aug_17_0941,exp1,2021.2.3,60.011078031551406,
,,,,,,,,,,,,,,,,4,9.3,9.766666666666667,10.233333333333333,10.7,0,0.4666666666666667,0.3666666666666667,0.1,1.5,10,match,36.05,335,352,369,386,0,9,9,9,9,0,,,,,2,0,2,0,0,4,4,7,,,,,num_3,1.3476780001074076,num_3,0.35,0.8,0.15000000000000002,0.8,5.40644,28.83434,return,3.91683780006133,,,,,,,7,22,female,up_down_width,2023_Aug_17_0941,exp1,2021.2.3,60.011078031551406,
,,,,,,,,,,,,,,,,5,8.95,9.475,10,10.525,11.05,0.525,0.275,0.25,2.35,10,match,36.05,323,342,361,379,398,9,9,9,9,9,,,,,2,0,2,0,0,5,5,27,,,,,num_4,0.9631264999043196,num_4,0.25,0.7,0.35,0.7,12.61502,25.23005,return,2.459350199904293,,,,,,,7,22,female,up_down_width,2023_Aug_17_0941,exp1,2021.2.3,60.011078031551406,
,,,,,,,,,,,,,,,,5,8.65,9.325,10,10.675,11.35,0.6749999999999999,0.575,0.1,2.8,10,match,36.05,312,336,361,385,409,9,9,9,9,9,,,,,2,0,2,0,0,6,6,31,,,,,num_4,1.3440917001571506,num_4,0.4,1.0,0.20000000000000007,0.9,7.20859,32.43864,return,4.742989800171927,,,,,,,7,22,female,up_down_width,2023_Aug_17_0941,exp1,2021.2.3,60.011078031551406,
,,,,,,,,,,,,,,,,4,9.25,9.75,10.25,10.75,0,0.5,0.25,0.25,1.75,10,initial,36.05,333,351,370,388,0,9,9,9,9,0,,,,,2,0,2,0,0,7,7,20,,,,,num_4,1.485237300163135,num_4,0.45,0.9,0.25000000000000006,0.5,9.01073,18.02146,return,3.46854479983449,,,,,,,7,22,female,up_down_width,2023_Aug_17_0941,exp1,2021.2.3,60.011078031551406,
,,,,,,,,,,,,,,,,5,9.175,9.5875,10,10.4125,10.825,0.4125,0.16249999999999998,0.25,1.9,10,match,36.05,331,346,361,375,390,9,9,9,9,9,,,,,2,0,2,0,0,8,8,23,,,,,num_4,1.2609911998733878,num_4,0.3,1.0,0.25,0.6,9.01073,21.62576,return,2.6182264999952167,,,,,,,7,22,female,up_down_width,2023_Aug_17_0941,exp1,2021.2.3,60.011078031551406,
,,,,,,,,,,,,,,,,5,8.6,9.3,10,10.7,11.4,0.7,0.6,0.1,2.9,10,initial,36.05,310,335,361,386,411,9,9,9,9,9,,,,,2,0,2,0,0,9,9,42,,,,,num_5,1.6616634000092745,num_5,0.35,0.7,0.2,0.5,7.20859,18.02146,return,4.442019799957052,,,,,,,7,22,female,up_down_width,2023_Aug_17_0941,exp1,2021.2.3,60.011078031551406,
,,,,,,,,,,,,,,,,4,9.1,9.7,10.3,10.9,0,0.6,0.5,0.1,1.9,10,match,36.05,328,350,371,393,0,9,9,9,9,0,,,,,2,0,2,0,0,10,10,13,,,,,num_3,1.390663499943912,num_3,0.4,1,0.15000000000000008,0.7,5.40644,25.23005,return,5.381211399799213,,,,,,,7,22,female,up_down_width,2023_Aug_17_0941,exp1,2021.2.3,60.011078031551406,
,,,,,,,,,,,,,,,,3,8.2,10,11.8,0,0,1.8,1.55,0.25,3.85,10,match,36.05,296,361,425,0,0,9,9,9,0,0,,,,,2,0,2,0,0,11,11,51,,,,,num_3,1.0457222999539226,num_3,0.25,1.2,0.2,1.3,7.20859,46.85581,return,2.634687200188637,,,,,,,7,22,female,up_down_width,2023_Aug_17_0941,exp1,2021.2.3,60.011078031551406,
,,,,,,,,,,,,,,,,3,8.2,10,11.8,0,0,1.7999999999999998,1.4,0.4,4,10,match,36.05,296,361,425,0,0,9,9,9,0,0,,,,,2,0,2,0,0,12,12,53,,,,,num_3,0.9739188000094146,num_3,0.2,0.8,0.35,1.25,12.61502,45.05366,return,3.6220939001068473,,,,,,,7,22,female,up_down_width,2023_Aug_17_0941,exp1,2021.2.3,60.011078031551406,
,,,,,,,,,,,,,,,,3,9.1,10,10.9,0,0,0.9,0.65,0.25,2.05,10,initial,36.05,328,361,393,0,0,9,9,9,0,0,,,,,2,0,2,0,0,13,13,14,,,,,num_3,3.319591299863532,num_3,0.2,0.5,0.15000000000000002,0.65,5.40644,23.4279,return,5.2342731999233365,,,,,,,7,22,female,up_down_width,2023_Aug_17_0941,exp1,2021.2.3,60.011078031551406,
,,,,,,,,,,,,,,,,5,9.25,9.625,10,10.375,10.75,0.375,0.275,0.1,1.6,10,match,36.05,333,347,361,374,388,9,9,9,9,9,,,,,2,0,2,0,0,14,14,19,,,,,num_3,1.4369385000318289,num_3,0.2,0.9,0.2,0.55,7.20859,19.82361,return,4.850507099879906,,,,,,,7,22,female,up_down_width,2023_Aug_17_0941,exp1,2021.2.3,60.011078031551406,
,,,,,,,,,,,,,,,,4,9.425,9.808333333333334,10.191666666666666,10.575,0,0.3833333333333333,0.1333333333333333,0.25,1.4,10,match,36.05,340,354,367,381,0,9,9,9,9,0,,,,,2,0,2,0,0,15,15,5,,,,,num_3,1.0949303999077529,num_3,0.15,0.9,0.3,0.6,10.81288,21.62576,return,3.8184755998663604,,,,,,,7,22,female,up_down_width,2023_Aug_17_0941,exp1,2021.2.3,60.011078031551406,
,,,,,,,,,,,,,,,,3,8.2,10,11.8,0,0,1.8000000000000003,1.7000000000000002,0.1,3.7,10,match,36.05,296,361,425,0,0,9,9,9,0,0,,,,,2,0,2,0,0,16,16,49,,,,,num_3,1.1184559999965131,num_3,0.35,0.9,0.2,1.3,7.20859,46.85581,return,4.895140099804848,,,,,,,7,22,female,up_down_width,2023_Aug_17_0941,exp1,2021.2.3,60.011078031551406,
,,,,,,,,,,,,,,,,5,8.95,9.475,10,10.525,11.05,0.525,0.125,0.4,2.5,10,match,36.05,323,342,361,379,398,9,9,9,9,9,,,,,2,0,2,0,0,17,17,29,,,,,num_4,1.2309824000112712,num_4,0.45,0.5,0.45,0.7,16.21932,25.23005,return,3.4348901999183,,,,,,,7,22,female,up_down_width,2023_Aug_17_0941,exp1,2021.2.3,60.011078031551406,
,,,,,,,,,,,,,,,,4,8.95,9.65,10.35,11.05,0,0.7,0.44999999999999996,0.25,2.3499999999999996,10,initial,36.05,323,348,373,398,0,9,9,9,9,0,,,,,2,0,2,0,0,18,18,26,,,,,num_4,0.9543262000661343,num_4,0.15,1.0,0.39999999999999997,0.8,14.41717,28.83434,return,3.442665200214833,,,,,,,7,22,female,up_down_width,2023_Aug_17_0941,exp1,2021.2.3,60.011078031551406,
,,,,,,,,,,,,,,,,3,9.3,10,10.7,0,0,0.7,0.29999999999999993,0.4,1.8,10,initial,36.05,335,361,386,0,0,9,9,9,0,0,,,,,2,0,2,0,0,19,19,10,,,,,num_3,1.297818100079894,num_3,0.25,1.1,0.39999999999999997,0.85,14.41717,30.63649,return,2.684560100082308,,,,,,,7,22,female,up_down_width,2023_Aug_17_0941,exp1,2021.2.3,60.011078031551406,
,,,,,,,,,,,,,,,,5,8.95,9.475,10,10.525,11.05,0.525,0.42500000000000004,0.1,2.2,10,match,36.05,323,342,361,379,398,9,9,9,9,9,,,,,2,0,2,0,0,20,20,25,,,,,num_4,1.0000996000599116,num_4,0.3,0.3,0.3,0.8,10.81288,28.83434,return,6.495455600088462,,,,,,,7,22,female,up_down_width,2023_Aug_17_0941,exp1,2021.2.3,60.011078031551406,
,,,,,,,,,,,,,,,,4,9.5,9.833333333333334,10.166666666666666,10.5,0,0.3333333333333333,0.08333333333333333,0.25,1.25,10,match,36.05,342,354,367,379,0,9,9,9,9,0,,,,,2,0,2,0,0,21,21,3,,,,,num_3,1.4040320999920368,num_3,0.2,1.1,0.2,0.35,7.20859,12.61502,return,5.1389090998563915,,,,,,,7,22,female,up_down_width,2023_Aug_17_0941,exp1,2021.2.3,60.011078031551406,
,,,,,,,,,,,,,,,,5,9.25,9.625,10,10.375,10.75,0.375,0.125,0.25,1.75,10,match,36.05,333,347,361,374,388,9,9,9,9,9,,,,,2,0,2,0,0,22,22,21,,,,,num_4,1.207363999914378,num_4,0.35,0.6,0.25,0.4,9.01073,14.41717,return,3.1880646999925375,,,,,,,7,22,female,up_down_width,2023_Aug_17_0941,exp1,2021.2.3,60.011078031551406,
,,,,,,,,,,,,,,,,4,9.25,9.75,10.25,10.75,0,0.5,0.09999999999999998,0.4,1.9,10,initial,36.05,333,351,370,388,0,9,9,9,9,0,,,,,2,0,2,0,0,23,23,22,,,,,num_3,2.396996700204909,num_3,0.3,0.7,0.39999999999999997,0.6,14.41717,21.62576,return,3.277273799991235,,,,,,,7,22,female,up_down_width,2023_Aug_17_0941,exp1,2021.2.3,60.011078031551406,
,,,,,,,,,,,,,,,,3,9,10,11,0,0,0.9999999999999999,0.5999999999999999,0.4,2.4,10,match,36.05,324,361,397,0,0,9,9,9,0,0,,,,,2,0,2,0,0,24,24,41,,,,,num_3,1.0456104998011142,num_3,0.35,1,0.44999999999999996,1,16.21932,36.04293,return,1.9923798001836985,,,,,,,7,22,female,up_down_width,2023_Aug_17_0941,exp1,2021.2.3,60.011078031551406,
,,,,,,,,,,,,,,,,5,8.6,9.3,10,10.7,11.4,0.7,0.44999999999999996,0.25,3.05,10,initial,36.05,310,335,361,386,411,9,9,9,9,9,,,,,2,0,2,0,0,25,25,44,,,,,num_4,1.0356060999911278,num_4,0.35,1.0,0.3,1.0,10.81288,36.04293,return,3.35858489992097,,,,,,,7,22,female,up_down_width,2023_Aug_17_0941,exp1,2021.2.3,60.011078031551406,
,,,,,,,,,,,,,,,,4,9.1,9.7,10.3,10.9,0,0.5999999999999999,0.3499999999999999,0.25,2.05,10,match,36.05,328,350,371,393,0,9,9,9,9,0,,,,,2,0,2,0,0,26,26,15,,,,,num_4,3.8790512999985367,num_4,0.15,0.9,0.3,0.7,10.81288,25.23005,return,3.642132299952209,,,,,,,7,22,female,up_down_width,2023_Aug_17_0941,exp1,2021.2.3,60.011078031551406,
,,,,,,,,,,,,,,,,5,8.2,9.1,10,10.9,11.8,0.9,0.8,0.1,3.7,10,initial,36.05,296,328,361,393,425,9,9,9,9,9,,,,,2,0,2,0,0,27,27,48,,,,,num_5,6.655583299929276,num_5,0.2,0.9,0.10000000000000002,0.7,3.60429,25.23005,return,4.13385930005461,,,,,,,7,22,female,up_down_width,2023_Aug_17_0941,exp1,2021.2.3,60.011078031551406,
,,,,,,,,,,,,,,,,5,8.2,9.1,10,10.9,11.8,0.9,0.5,0.4,4,10,initial,36.05,296,328,361,393,425,9,9,9,9,9,,,,,2,0,2,0,0,28,28,52,,,,,num_5,8.289126999909058,num_5,0.2,1.0,0.35,0.75,12.61502,27.0322,return,5.539406599942595,,,,,,,7,22,female,up_down_width,2023_Aug_17_0941,exp1,2021.2.3,60.011078031551406,
,,,,,,,,,,,,,,,,3,9.5,10,10.5,0,0,0.5,0.25,0.25,1.25,10,initial,36.05,342,361,379,0,0,9,9,9,0,0,,,,,2,0,2,0,0,29,29,2,,,,,num_3,2.526197300059721,num_3,0.4,1.1,0.35000000000000003,0.7,12.61502,25.23005,return,4.502798000117764,,,,,,,7,22,female,up_down_width,2023_Aug_17_0941,exp1,2021.2.3,60.011078031551406,
,,,,,,,,,,,,,,,,5,8.2,9.1,10,10.9,11.8,0.9,0.65,0.25,3.85,10,initial,36.05,296,328,361,393,425,9,9,9,9,9,,,,,2,0,2,0,0,30,30,50,,,,,num_4,1.5049831999931484,num_4,0.25,0.5,0.25,0.7,9.01073,25.23005,return,4.259239699924365,,,,,,,7,22,female,up_down_width,2023_Aug_17_0941,exp1,2021.2.3,60.011078031551406,
,,,,,,,,,,,,,,,,3,9.5,10,10.5,0,0,0.5,0.4,0.1,1.1,10,initial,36.05,342,361,379,0,0,9,9,9,0,0,,,,,2,0,2,0,0,31,31,0,,,,,num_2,1.07347059994936,num_2,0.45,1.6,0.25000000000000006,0.8,9.01073,28.83434,return,4.244923799997196,,,,,,,7,22,female,up_down_width,2023_Aug_17_0941,exp1,2021.2.3,60.011078031551406,
,,,,,,,,,,,,,,,,5,9,9.5,10,10.5,11,0.5,0.09999999999999998,0.4,2.4,10,initial,36.05,324,342,361,379,397,9,9,9,9,9,,,,,2,0,2,0,0,32,32,40,,,,,num_3,1.336210299981758,num_3,0.45,1.2,0.30000000000000004,0.7,10.81288,25.23005,return,5.041796799981967,,,,,,,7,22,female,up_down_width,2023_Aug_17_0941,exp1,2021.2.3,60.011078031551406,
,,,,,,,,,,,,,,,,5,9,9.5,10,10.5,11,0.5,0.25,0.25,2.25,10,initial,36.05,324,342,361,379,397,9,9,9,9,9,,,,,2,0,2,0,0,33,33,38,,,,,num_4,1.23635879997164,num_4,0.4,0.8,0.30000000000000004,0.5,10.81288,18.02146,return,6.384035600116476,,,,,,,7,22,female,up_down_width,2023_Aug_17_0941,exp1,2021.2.3,60.011078031551406,
,,,,,,,,,,,,,,,,3,9.3,10,10.7,0,0,0.7,0.44999999999999996,0.25,1.65,10,initial,36.05,335,361,386,0,0,9,9,9,0,0,,,,,2,0,2,0,0,34,34,8,,,,,num_3,1.2247657000552863,num_3,0.4,1,0.25000000000000006,0.65,9.01073,23.4279,return,4.341086300089955,,,,,,,7,22,female,up_down_width,2023_Aug_17_0941,exp1,2021.2.3,60.011078031551406,
,,,,,,,,,,,,,,,,3,9,10,11,0,0,1,0.75,0.25,2.25,10,match,36.05,324,361,397,0,0,9,9,9,0,0,,,,,2,0,2,0,0,35,35,39,,,,,num_2,1.3333886000327766,num_2,0.25,1.6,0.15000000000000002,1.1,5.40644,39.64722,return,11.712210099911317,,,,,,,7,22,female,up_down_width,2023_Aug_17_0941,exp1,2021.2.3,60.011078031551406,
,,,,,,,,,,,,,,,,3,8.6,10,11.4,0,0,1.4,1.15,0.25,3.05,10,match,36.05,310,361,411,0,0,9,9,9,0,0,,,,,2,0,2,0,0,36,36,45,,,,,num_2,1.3677058999892324,num_2,0.2,1.6,0.2,2.0,7.20859,72.08586,return,2.3048521000891924,,,,,,,7,22,female,up_down_width,2023_Aug_17_0941,exp1,2021.2.3,60.011078031551406,
,,,,,,,,,,,,,,,,5,9,9.5,10,10.5,11,0.5,0.4,0.1,2.1,10,initial,36.05,324,342,361,379,397,9,9,9,9,9,,,,,2,0,2,0,0,37,37,36,,,,,num_4,1.8568837000057101,num_4,0.35,0.8,0.05000000000000002,0.4,1.80215,14.41717,return,4.725273299962282,,,,,,,7,22,female,up_down_width,2023_Aug_17_0941,exp1,2021.2.3,60.011078031551406,
,,,,,,,,,,,,,,,,4,9.5,9.833333333333334,10.166666666666666,10.5,0,0.33333333333333337,0.23333333333333336,0.1,1.1,10,match,36.05,342,354,367,379,0,9,9,9,9,0,,,,,2,0,2,0,0,38,38,1,,,,,num_3,3.936991900205612,num_3,0.45,0.7,0.05000000000000007,0.55,1.80215,19.82361,return,10.770428200019524,,,,,,,7,22,female,up_down_width,2023_Aug_17_0941,exp1,2021.2.3,60.011078031551406,
,,,,,,,,,,,,,,,,5,8.65,9.325,10,10.675,11.35,0.675,0.42500000000000004,0.25,2.95,10,match,36.05,312,336,361,385,409,9,9,9,9,9,,,,,2,0,2,0,0,39,39,33,,,,,num_4,1.0444221999496222,num_4,0.15,1.1,0.3,0.7,10.81288,25.23005,return,4.378463900182396,,,,,,,7,22,female,up_down_width,2023_Aug_17_0941,exp1,2021.2.3,60.011078031551406,
,,,,,,,,,,,,,,,,3,9,10,11,0,0,1,0.9,0.1,2.1,10,match,36.05,324,361,397,0,0,9,9,9,0,0,,,,,2,0,2,0,0,40,40,37,,,,,num_2,1.2328872000798583,num_2,0.35,1.6,0.25,1.0,9.01073,36.04293,return,3.6410804998595268,,,,,,,7,22,female,up_down_width,2023_Aug_17_0941,exp1,2021.2.3,60.011078031551406,
,,,,,,,,,,,,,,,,3,9.1,10,10.9,0,0,0.9,0.5,0.4,2.2,10,initial,36.05,328,361,393,0,0,9,9,9,0,0,,,,,2,0,2,0,0,41,41,16,,,,,num_3,2.452266399981454,num_3,0.35,0.4,0.35,0.7,12.61502,25.23005,return,7.153754899976775,,,,,,,7,22,female,up_down_width,2023_Aug_17_0941,exp1,2021.2.3,60.011078031551406,
,,,,,,,,,,,,,,,,4,9.25,9.75,10.25,10.75,0,0.5,0.4,0.1,1.6,10,initial,36.05,333,351,370,388,0,9,9,9,9,0,,,,,2,0,2,0,0,42,42,18,,,,,num_3,1.1095478001516312,num_3,0.1,0.4,0.2,0.5,7.20859,18.02146,return,1.9757638999726623,,,,,,,7,22,female,up_down_width,2023_Aug_17_0941,exp1,2021.2.3,60.011078031551406,
,,,,,,,,,,,,,,,,3,9.5,10,10.5,0,0,0.5,0.09999999999999998,0.4,1.4000000000000001,10,initial,36.05,342,361,379,0,0,9,9,9,0,0,,,,,2,0,2,0,0,43,43,4,,,,,num_3,1.195649900007993,num_3,0.45,0.5,0.35000000000000003,0.5,12.61502,18.02146,return,2.3010778001043946,,,,,,,7,22,female,up_down_width,2023_Aug_17_0941,exp1,2021.2.3,60.011078031551406,
,,,,,,,,,,,,,,,,4,8.95,9.65,10.35,11.05,0,0.7,0.6,0.1,2.1999999999999997,10,initial,36.05,323,348,373,398,0,9,9,9,9,0,,,,,2,0,2,0,0,44,44,24,,,,,num_4,1.0155785998795182,num_4,0.35,0.9,0.10000000000000002,0.6,3.60429,21.62576,return,4.235786699922755,,,,,,,7,22,female,up_down_width,2023_Aug_17_0941,exp1,2021.2.3,60.011078031551406,
,,,,,,,,,,,,,,,,3,8.6,10,11.4,0,0,1.4,1.2999999999999998,0.1,2.9,10,match,36.05,310,361,411,0,0,9,9,9,0,0,,,,,2,0,2,0,0,45,45,43,,,,,num_3,1.14949190011248,num_3,0.15,0.5,0.09999999999999999,0.85,3.60429,30.63649,return,2.382331599947065,,,,,,,7,22,female,up_down_width,2023_Aug_17_0941,exp1,2021.2.3,60.011078031551406,
,,,,,,,,,,,,,,,,4,8.95,9.65,10.35,11.05,0,0.7,0.29999999999999993,0.4,2.5,10,initial,36.05,323,348,373,398,0,9,9,9,9,0,,,,,2,0,2,0,0,46,46,28,,,,,num_4,1.190393100026995,num_4,0.2,0.9,0.3,0.5,10.81288,18.02146,return,2.3876478001475334,,,,,,,7,22,female,up_down_width,2023_Aug_17_0941,exp1,2021.2.3,60.011078031551406,
,,,,,,,,,,,,,,,,4,9.3,9.766666666666667,10.233333333333333,10.7,0,0.4666666666666667,0.06666666666666665,0.4,1.8,10,match,36.05,335,352,369,386,0,9,9,9,9,0,,,,,2,0,2,0,0,47,47,11,,,,,num_3,1.100596300093457,num_3,0.1,0.7,0.39999999999999997,0.65,14.41717,23.4279,return,2.8616163001861423,,,,,,,7,22,female,up_down_width,2023_Aug_17_0941,exp1,2021.2.3,60.011078031551406,
,,,,,,,,,,,,,,,,3,8.525,10,11.475,0,0,1.475,1.225,0.25,3.2,10,match,36.05,307,361,414,0,0,9,9,9,0,0,,,,,2,0,2,0,0,48,48,47,,,,,num_3,1.1076460999902338,num_3,0.35,0.5,0.15000000000000002,1.0,5.40644,36.04293,return,4.246701400028542,,,,,,,7,22,female,up_down_width,2023_Aug_17_0941,exp1,2021.2.3,60.011078031551406,
,,,,,,,,,,,,,,,,4,8.65,9.55,10.45,11.35,0,0.9,0.5,0.4,3.1,10,initial,36.05,312,344,377,409,0,9,9,9,9,0,,,,,2,0,2,0,0,49,49,34,,,,,num_3,1.1028569000773132,num_3,0.45,1,0.30000000000000004,1,10.81288,36.04293,return,2.3067048999946564,,,,,,,7,22,female,up_down_width,2023_Aug_17_0941,exp1,2021.2.3,60.011078031551406,
,,,,,,,,,,,,,,,,5,8.6,9.3,10,10.7,11.4,0.7,0.29999999999999993,0.4,3.1999999999999997,10,initial,36.05,310,335,361,386,411,9,9,9,9,9,,,,,2,0,2,0,0,50,50,46,,,,,num_4,2.209761699894443,num_4,0.1,0.8,0.3,0.7,10.81288,25.23005,return,2.838228699984029,,,,,,,7,22,female,up_down_width,2023_Aug_17_0941,exp1,2021.2.3,60.011078031551406,
,,,,,,,,,,,,,,,,4,8.65,9.55,10.45,11.35,0,0.9,0.8,0.1,2.8000000000000003,10,initial,36.05,312,344,377,409,0,9,9,9,9,0,,,,,2,0,2,0,0,51,51,30,,,,,num_4,4.444963600020856,num_4,0.1,0.3,0.10000000000000002,0.5,3.60429,18.02146,return,4.490793500095606,,,,,,,7,22,female,up_down_width,2023_Aug_17_0941,exp1,2021.2.3,60.011078031551406,
,,,,,,,,,,,,,,,,4,8.65,9.55,10.45,11.35,0,0.9,0.65,0.25,2.95,10,initial,36.05,312,344,377,409,0,9,9,9,9,0,,,,,2,0,2,0,0,52,52,32,,,,,num_5,2.077102900017053,num_5,0.1,0.4,0.15000000000000002,0.55,5.40644,19.82361,return,4.518749100156128,,,,,,,7,22,female,up_down_width,2023_Aug_17_0941,exp1,2021.2.3,60.011078031551406,
,,,,,,,,,,,,,,,,3,9.1,10,10.9,0,0,0.9,0.8,0.1,1.9000000000000001,10,initial,36.05,328,361,393,0,0,9,9,9,0,0,,,,,2,0,2,0,0,53,53,12,,,,,num_2,1.195013899821788,num_2,0.3,1.6,0.15000000000000002,1.0,5.40644,36.04293,return,2.9707616998348385,,,,,,,7,22,female,up_down_width,2023_Aug_17_0941,exp1,2021.2.3,60.011078031551406,
,,,,,,,,,,,,,,,,,,,,,,,,,,,,,,,,,,,,,,,,,,,2,0,2,0,,,,,,,,,,,,,,,,,,,,,,1739.6297328998335,None,1739.6297328998335,None,7,22,female,up_down_width,2023_Aug_17_0941,exp1,2021.2.3,60.011078031551406,
,,,,,,,,,,,,,,,,4,8.95,9.65,10.35,11.05,0,0.7,0.6,0.1,2.1999999999999997,10,initial,36.05,323,348,373,398,0,9,9,9,9,0,,,,,3,0,3,0,0,0,0,24,,,,,num_4,2.1870282001327723,num_4,0.2,0.5,0.10000000000000002,0.6,3.60429,21.62576,return,4.466126200044528,,,,,,,7,22,female,up_down_width,2023_Aug_17_0941,exp1,2021.2.3,60.011078031551406,
,,,,,,,,,,,,,,,,5,9.25,9.625,10,10.375,10.75,0.375,0.125,0.25,1.75,10,match,36.05,333,347,361,374,388,9,9,9,9,9,,,,,3,0,3,0,0,1,1,21,,,,,num_3,1.1125729999039322,num_3,0.35,0.9,0.25,0.75,9.01073,27.0322,return,4.98648769990541,,,,,,,7,22,female,up_down_width,2023_Aug_17_0941,exp1,2021.2.3,60.011078031551406,
,,,,,,,,,,,,,,,,5,8.6,9.3,10,10.7,11.4,0.7,0.44999999999999996,0.25,3.05,10,initial,36.05,310,335,361,386,411,9,9,9,9,9,,,,,3,0,3,0,0,2,2,44,,,,,num_4,1.3662349001970142,num_4,0.2,0.3,0.25,0.6,9.01073,21.62576,return,3.1500902001280338,,,,,,,7,22,female,up_down_width,2023_Aug_17_0941,exp1,2021.2.3,60.011078031551406,
,,,,,,,,,,,,,,,,5,8.65,9.325,10,10.675,11.35,0.6749999999999999,0.575,0.1,2.8,10,match,36.05,312,336,361,385,409,9,9,9,9,9,,,,,3,0,3,0,0,3,3,31,,,,,num_4,1.879772299900651,num_4,0.1,0.6,0.2,0.6,7.20859,21.62576,return,1.4360925001092255,,,,,,,7,22,female,up_down_width,2023_Aug_17_0941,exp1,2021.2.3,60.011078031551406,
,,,,,,,,,,,,,,,,4,9.25,9.75,10.25,10.75,0,0.5,0.4,0.1,1.6,10,initial,36.05,333,351,370,388,0,9,9,9,9,0,,,,,3,0,3,0,0,4,4,18,,,,,num_3,1.0770020000636578,num_3,0.4,0.7,0.15000000000000008,0.7,5.40644,25.23005,return,1.558546399930492,,,,,,,7,22,female,up_down_width,2023_Aug_17_0941,exp1,2021.2.3,60.011078031551406,
,,,,,,,,,,,,,,,,3,9.3,10,10.7,0,0,0.7,0.44999999999999996,0.25,1.65,10,initial,36.05,335,361,386,0,0,9,9,9,0,0,,,,,3,0,3,0,0,5,5,8,,,,,num_3,1.5389686999842525,num_3,0.15,1.2,0.25,0.65,9.01073,23.4279,return,4.070071300026029,,,,,,,7,22,female,up_down_width,2023_Aug_17_0941,exp1,2021.2.3,60.011078031551406,
,,,,,,,,,,,,,,,,5,9,9.5,10,10.5,11,0.5,0.09999999999999998,0.4,2.4,10,initial,36.05,324,342,361,379,397,9,9,9,9,9,,,,,3,0,3,0,0,6,6,40,,,,,num_4,1.2181850001215935,num_4,0.1,0.5,0.3,0.5,10.81288,18.02146,return,1.4902087999507785,,,,,,,7,22,female,up_down_width,2023_Aug_17_0941,exp1,2021.2.3,60.011078031551406,
,,,,,,,,,,,,,,,,3,8.2,10,11.8,0,0,1.8000000000000003,1.7000000000000002,0.1,3.7,10,match,36.05,296,361,425,0,0,9,9,9,0,0,,,,,3,0,3,0,0,7,7,49,,,,,num_2,0.9978057001717389,num_2,0.15,1.6,0.2,1.9,7.20859,68.48156,return,3.422036100178957,,,,,,,7,22,female,up_down_width,2023_Aug_17_0941,exp1,2021.2.3,60.011078031551406,
,,,,,,,,,,,,,,,,4,8.65,9.55,10.45,11.35,0,0.9,0.8,0.1,2.8000000000000003,10,initial,36.05,312,344,377,409,0,9,9,9,9,0,,,,,3,0,3,0,0,8,8,30,,,,,num_3,1.025002600159496,num_3,0.15,1.1,0.09999999999999999,1.1,3.60429,39.64722,return,2.4531542998738587,,,,,,,7,22,female,up_down_width,2023_Aug_17_0941,exp1,2021.2.3,60.011078031551406,
,,,,,,,,,,,,,,,,4,9.3,9.766666666666667,10.233333333333333,10.7,0,0.4666666666666667,0.3666666666666667,0.1,1.5,10,match,36.05,335,352,369,386,0,9,9,9,9,0,,,,,3,0,3,0,0,9,9,7,,,,,num_3,1.3328943999949843,num_3,0.1,0.6,0.1,0.6,3.60429,21.62576,return,0.9424280000384897,,,,,,,7,22,female,up_down_width,2023_Aug_17_0941,exp1,2021.2.3,60.011078031551406,
,,,,,,,,,,,,,,,,4,8.65,9.55,10.45,11.35,0,0.9,0.5,0.4,3.1,10,initial,36.05,312,344,377,409,0,9,9,9,9,0,,,,,3,0,3,0,0,10,10,34,,,,,num_4,1.0718912999145687,num_4,0.15,0.7,0.3,0.9,10.81288,32.43864,return,3.76338450005278,,,,,,,7,22,female,up_down_width,2023_Aug_17_0941,exp1,2021.2.3,60.011078031551406,
,,,,,,,,,,,,,,,,3,9.3,10,10.7,0,0,0.7,0.6,0.1,1.5,10,initial,36.05,335,361,386,0,0,9,9,9,0,0,,,,,3,0,3,0,0,11,11,6,,,,,num_3,2.963676300132647,num_3,0.35,1,0.15000000000000002,0.7,5.40644,25.23005,return,2.7660844998899847,,,,,,,7,22,female,up_down_width,2023_Aug_17_0941,exp1,2021.2.3,60.011078031551406,
,,,,,,,,,,,,,,,,5,9,9.5,10,10.5,11,0.5,0.4,0.1,2.1,10,initial,36.05,324,342,361,379,397,9,9,9,9,9,,,,,3,0,3,0,0,12,12,36,,,,,num_4,1.0379945000167936,num_4,0.45,0.5,0.15000000000000008,0.5,5.40644,18.02146,return,3.6351020999718457,,,,,,,7,22,female,up_down_width,2023_Aug_17_0941,exp1,2021.2.3,60.011078031551406,
,,,,,,,,,,,,,,,,5,9.175,9.5875,10,10.4125,10.825,0.4125,0.16249999999999998,0.25,1.9,10,match,36.05,331,346,361,375,390,9,9,9,9,9,,,,,3,0,3,0,0,13,13,23,,,,,num_3,2.741728400113061,num_3,0.4,1.3,0.30000000000000004,0.75,10.81288,27.0322,return,6.564822799991816,,,,,,,7,22,female,up_down_width,2023_Aug_17_0941,exp1,2021.2.3,60.011078031551406,
,,,,,,,,,,,,,,,,3,9,10,11,0,0,1,0.75,0.25,2.25,10,match,36.05,324,361,397,0,0,9,9,9,0,0,,,,,3,0,3,0,0,14,14,39,,,,,num_3,1.3769660000689328,num_3,0.4,0.7,0.30000000000000004,0.8,10.81288,28.83434,return,5.89768259995617,,,,,,,7,22,female,up_down_width,2023_Aug_17_0941,exp1,2021.2.3,60.011078031551406,
,,,,,,,,,,,,,,,,3,8.6,10,11.4,0,0,1.4,1.2999999999999998,0.1,2.9,10,match,36.05,310,361,411,0,0,9,9,9,0,0,,,,,3,0,3,0,0,15,15,43,,,,,num_2,1.1683543999679387,num_2,0.2,1.6,0.2,1.6,7.20859,57.66869,return,2.2855789000168443,,,,,,,7,22,female,up_down_width,2023_Aug_17_0941,exp1,2021.2.3,60.011078031551406,
,,,,,,,,,,,,,,,,5,8.95,9.475,10,10.525,11.05,0.525,0.42500000000000004,0.1,2.2,10,match,36.05,323,342,361,379,398,9,9,9,9,9,,,,,3,0,3,0,0,16,16,25,,,,,num_4,3.901444199960679,num_4,0.1,0.7,0.1,0.7,3.60429,25.23005,return,0.8145963000133634,,,,,,,7,22,female,up_down_width,2023_Aug_17_0941,exp1,2021.2.3,60.011078031551406,
,,,,,,,,,,,,,,,,4,9.25,9.75,10.25,10.75,0,0.5,0.25,0.25,1.75,10,initial,36.05,333,351,370,388,0,9,9,9,9,0,,,,,3,0,3,0,0,17,17,20,,,,,num_3,1.186953900149092,num_3,0.2,0.7,0.2,0.7,7.20859,25.23005,return,1.3148999998811632,,,,,,,7,22,female,up_down_width,2023_Aug_17_0941,exp1,2021.2.3,60.011078031551406,
,,,,,,,,,,,,,,,,3,8.6,10,11.4,0,0,1.4,1.15,0.25,3.05,10,match,36.05,310,361,411,0,0,9,9,9,0,0,,,,,3,0,3,0,0,18,18,45,,,,,num_2,1.0923067999538034,num_2,0.4,1.6,0.20000000000000007,1.8,7.20859,64.87727,return,2.7115853000432253,,,,,,,7,22,female,up_down_width,2023_Aug_17_0941,exp1,2021.2.3,60.011078031551406,
,,,,,,,,,,,,,,,,5,8.95,9.475,10,10.525,11.05,0.525,0.125,0.4,2.5,10,match,36.05,323,342,361,379,398,9,9,9,9,9,,,,,3,0,3,0,0,19,19,29,,,,,num_3,4.0598182999528944,num_3,0.4,0.5,0.30000000000000004,0.45,10.81288,16.21932,return,2.4249080000445247,,,,,,,7,22,female,up_down_width,2023_Aug_17_0941,exp1,2021.2.3,60.011078031551406,
,,,,,,,,,,,,,,,,5,9,9.5,10,10.5,11,0.5,0.25,0.25,2.25,10,initial,36.05,324,342,361,379,397,9,9,9,9,9,,,,,3,0,3,0,0,20,20,38,,,,,num_4,1.1818258999846876,num_4,0.4,0.5,0.35000000000000003,0.6,12.61502,21.62576,return,3.3101919998880476,,,,,,,7,22,female,up_down_width,2023_Aug_17_0941,exp1,2021.2.3,60.011078031551406,
,,,,,,,,,,,,,,,,5,9.25,9.625,10,10.375,10.75,0.375,0.275,0.1,1.6,10,match,36.05,333,347,361,374,388,9,9,9,9,9,,,,,3,0,3,0,0,21,21,19,,,,,num_4,1.0836549000814557,num_4,0.15,0.9,0.15,0.4,5.40644,14.41717,return,2.2537209999281913,,,,,,,7,22,female,up_down_width,2023_Aug_17_0941,exp1,2021.2.3,60.011078031551406,
,,,,,,,,,,,,,,,,4,9.1,9.7,10.3,10.9,0,0.5999999999999999,0.3499999999999999,0.25,2.05,10,match,36.05,328,350,371,393,0,9,9,9,9,0,,,,,3,0,3,0,0,22,22,15,,,,,num_4,1.265388899948448,num_4,0.4,0.7,0.20000000000000007,0.4,7.20859,14.41717,return,3.180454099783674,,,,,,,7,22,female,up_down_width,2023_Aug_17_0941,exp1,2021.2.3,60.011078031551406,
,,,,,,,,,,,,,,,,3,9.1,10,10.9,0,0,0.9,0.65,0.25,2.05,10,initial,36.05,328,361,393,0,0,9,9,9,0,0,,,,,3,0,3,0,0,23,23,14,,,,,num_3,1.1097156999167055,num_3,0.15,0.6,0.2,0.55,7.20859,19.82361,return,3.4967203999403864,,,,,,,7,22,female,up_down_width,2023_Aug_17_0941,exp1,2021.2.3,60.011078031551406,
,,,,,,,,,,,,,,,,3,9,10,11,0,0,1,0.9,0.1,2.1,10,match,36.05,324,361,397,0,0,9,9,9,0,0,,,,,3,0,3,0,0,24,24,37,,,,,num_2,1.0590691999532282,num_2,0.2,1.6,0.10000000000000002,1.7,3.60429,61.27298,return,2.664576700190082,,,,,,,7,22,female,up_down_width,2023_Aug_17_0941,exp1,2021.2.3,60.011078031551406,
,,,,,,,,,,,,,,,,4,9.1,9.7,10.3,10.9,0,0.6,0.5,0.1,1.9,10,match,36.05,328,350,371,393,0,9,9,9,9,0,,,,,3,0,3,0,0,25,25,13,,,,,num_3,3.8855080001521856,num_3,0.2,0.4,0.10000000000000002,0.5,3.60429,18.02146,return,2.9753130997996777,,,,,,,7,22,female,up_down_width,2023_Aug_17_0941,exp1,2021.2.3,60.011078031551406,
,,,,,,,,,,,,,,,,5,8.65,9.325,10,10.675,11.35,0.675,0.42500000000000004,0.25,2.95,10,match,36.05,312,336,361,385,409,9,9,9,9,9,,,,,3,0,3,0,0,26,26,33,,,,,num_4,1.004154099849984,num_4,0.25,0.7,0.15000000000000002,0.8,5.40644,28.83434,return,2.8506260998547077,,,,,,,7,22,female,up_down_width,2023_Aug_17_0941,exp1,2021.2.3,60.011078031551406,
,,,,,,,,,,,,,,,,4,9.5,9.833333333333334,10.166666666666666,10.5,0,0.3333333333333333,0.08333333333333333,0.25,1.25,10,match,36.05,342,354,367,379,0,9,9,9,9,0,,,,,3,0,3,0,0,27,27,3,,,,,num_3,1.4798173001036048,num_3,0.3,0.9,0.25,0.45,9.01073,16.21932,return,4.812892399961129,,,,,,,7,22,female,up_down_width,2023_Aug_17_0941,exp1,2021.2.3,60.011078031551406,
,,,,,,,,,,,,,,,,3,9.1,10,10.9,0,0,0.9,0.5,0.4,2.2,10,initial,36.05,328,361,393,0,0,9,9,9,0,0,,,,,3,0,3,0,0,28,28,16,,,,,num_3,1.1016824000980705,num_3,0.25,0.9,0.39999999999999997,0.95,14.41717,34.24078,return,3.264789099805057,,,,,,,7,22,female,up_down_width,2023_Aug_17_0941,exp1,2021.2.3,60.011078031551406,
,,,,,,,,,,,,,,,,4,9.425,9.808333333333334,10.191666666666666,10.575,0,0.3833333333333333,0.1333333333333333,0.25,1.4,10,match,36.05,340,354,367,381,0,9,9,9,9,0,,,,,3,0,3,0,0,29,29,5,,,,,num_3,1.0929428001400083,num_3,0.2,1.3,0.3,0.65,10.81288,23.4279,return,9.093626399990171,,,,,,,7,22,female,up_down_width,2023_Aug_17_0941,exp1,2021.2.3,60.011078031551406,
,,,,,,,,,,,,,,,,3,9.3,10,10.7,0,0,0.7,0.29999999999999993,0.4,1.8,10,initial,36.05,335,361,386,0,0,9,9,9,0,0,,,,,3,0,3,0,0,30,30,10,,,,,num_3,1.5249846000224352,num_3,0.15,1,0.35,0.75,12.61502,27.0322,return,5.380090999882668,,,,,,,7,22,female,up_down_width,2023_Aug_17_0941,exp1,2021.2.3,60.011078031551406,
,,,,,,,,,,,,,,,,5,8.95,9.475,10,10.525,11.05,0.525,0.275,0.25,2.35,10,match,36.05,323,342,361,379,398,9,9,9,9,9,,,,,3,0,3,0,0,31,31,27,,,,,num_4,1.0320629000198096,num_4,0.35,1.0,0.3,0.6,10.81288,21.62576,return,2.94022520002909,,,,,,,7,22,female,up_down_width,2023_Aug_17_0941,exp1,2021.2.3,60.011078031551406,
,,,,,,,,,,,,,,,,4,8.65,9.55,10.45,11.35,0,0.9,0.65,0.25,2.95,10,initial,36.05,312,344,377,409,0,9,9,9,9,0,,,,,3,0,3,0,0,32,32,32,,,,,num_4,3.1131400000303984,num_4,0.2,0.4,0.3,0.8,10.81288,28.83434,return,4.315949599957094,,,,,,,7,22,female,up_down_width,2023_Aug_17_0941,exp1,2021.2.3,60.011078031551406,
,,,,,,,,,,,,,,,,3,9.1,10,10.9,0,0,0.9,0.8,0.1,1.9000000000000001,10,initial,36.05,328,361,393,0,0,9,9,9,0,0,,,,,3,0,3,0,0,33,33,12,,,,,num_2,1.2633019001223147,num_2,0.2,1.6,0.15000000000000002,1.2,5.40644,43.25151,return,1.9344874999951571,,,,,,,7,22,female,up_down_width,2023_Aug_17_0941,exp1,2021.2.3,60.011078031551406,
,,,,,,,,,,,,,,,,5,8.2,9.1,10,10.9,11.8,0.9,0.65,0.25,3.85,10,initial,36.05,296,328,361,393,425,9,9,9,9,9,,,,,3,0,3,0,0,34,34,50,,,,,num_5,1.5477120999712497,num_5,0.15,1.1,0.15,0.85,5.40644,30.63649,return,2.154869999969378,,,,,,,7,22,female,up_down_width,2023_Aug_17_0941,exp1,2021.2.3,60.011078031551406,
,,,,,,,,,,,,,,,,3,9.5,10,10.5,0,0,0.5,0.25,0.25,1.25,10,initial,36.05,342,361,379,0,0,9,9,9,0,0,,,,,3,0,3,0,0,35,35,2,,,,,num_3,1.0688895999919623,num_3,0.1,1.2,0.2,0.5,7.20859,18.02146,return,5.647150999866426,,,,,,,7,22,female,up_down_width,2023_Aug_17_0941,exp1,2021.2.3,60.011078031551406,
,,,,,,,,,,,,,,,,3,9.5,10,10.5,0,0,0.5,0.4,0.1,1.1,10,initial,36.05,342,361,379,0,0,9,9,9,0,0,,,,,3,0,3,0,0,36,36,0,,,,,num_2,1.3435651001054794,num_2,0.45,1.6,0.20000000000000007,0.8,7.20859,28.83434,return,4.518369999947026,,,,,,,7,22,female,up_down_width,2023_Aug_17_0941,exp1,2021.2.3,60.011078031551406,
,,,,,,,,,,,,,,,,5,8.6,9.3,10,10.7,11.4,0.7,0.6,0.1,2.9,10,initial,36.05,310,335,361,386,411,9,9,9,9,9,,,,,3,0,3,0,0,37,37,42,,,,,num_4,1.029179599834606,num_4,0.4,0.6,0.15000000000000008,0.6,5.40644,21.62576,return,2.666609500069171,,,,,,,7,22,female,up_down_width,2023_Aug_17_0941,exp1,2021.2.3,60.011078031551406,
,,,,,,,,,,,,,,,,3,9.5,10,10.5,0,0,0.5,0.09999999999999998,0.4,1.4000000000000001,10,initial,36.05,342,361,379,0,0,9,9,9,0,0,,,,,3,0,3,0,0,38,38,4,,,,,num_3,2.9209243999794126,num_3,0.25,0.7,0.25,0.55,9.01073,19.82361,return,3.602792300051078,,,,,,,7,22,female,up_down_width,2023_Aug_17_0941,exp1,2021.2.3,60.011078031551406,
,,,,,,,,,,,,,,,,3,8.2,10,11.8,0,0,1.8,1.55,0.25,3.85,10,match,36.05,296,361,425,0,0,9,9,9,0,0,,,,,3,0,3,0,0,39,39,51,,,,,num_3,1.2958223999012262,num_3,0.1,0.7,0.2,1.35,7.20859,48.65795,return,5.4340341000352055,,,,,,,7,22,female,up_down_width,2023_Aug_17_0941,exp1,2021.2.3,60.011078031551406,
,,,,,,,,,,,,,,,,3,8.525,10,11.475,0,0,1.475,1.225,0.25,3.2,10,match,36.05,307,361,414,0,0,9,9,9,0,0,,,,,3,0,3,0,0,40,40,47,,,,,num_2,1.2404769000131637,num_2,0.1,1.6,0.3,1.6,10.81288,57.66869,return,3.729807100025937,,,,,,,7,22,female,up_down_width,2023_Aug_17_0941,exp1,2021.2.3,60.011078031551406,
,,,,,,,,,,,,,,,,5,8.65,9.325,10,10.675,11.35,0.675,0.275,0.4,3.1,10,match,36.05,312,336,361,385,409,9,9,9,9,9,,,,,3,0,3,0,0,41,41,35,,,,,num_4,1.1075634001754224,num_4,0.1,0.8,0.3,0.8,10.81288,28.83434,return,2.708064400125295,,,,,,,7,22,female,up_down_width,2023_Aug_17_0941,exp1,2021.2.3,60.011078031551406,
,,,,,,,,,,,,,,,,4,9.25,9.75,10.25,10.75,0,0.5,0.09999999999999998,0.4,1.9,10,initial,36.05,333,351,370,388,0,9,9,9,9,0,,,,,3,0,3,0,0,42,42,22,,,,,num_3,1.0986275998875499,num_3,0.2,1.2,0.39999999999999997,0.75,14.41717,27.0322,return,5.3091130999382585,,,,,,,7,22,female,up_down_width,2023_Aug_17_0941,exp1,2021.2.3,60.011078031551406,
,,,,,,,,,,,,,,,,4,9.3,9.766666666666667,10.233333333333333,10.7,0,0.4666666666666667,0.21666666666666665,0.25,1.65,10,match,36.05,335,352,369,386,0,9,9,9,9,0,,,,,3,0,3,0,0,43,43,9,,,,,num_3,1.135444400133565,num_3,0.25,1.3,0.2,0.65,7.20859,23.4279,return,4.159869199851528,,,,,,,7,22,female,up_down_width,2023_Aug_17_0941,exp1,2021.2.3,60.011078031551406,
,,,,,,,,,,,,,,,,5,8.6,9.3,10,10.7,11.4,0.7,0.29999999999999993,0.4,3.1999999999999997,10,initial,36.05,310,335,361,386,411,9,9,9,9,9,,,,,3,0,3,0,0,44,44,46,,,,,num_4,1.2029565998818725,num_4,0.25,0.5,0.35,0.7,12.61502,25.23005,return,2.480049300007522,,,,,,,7,22,female,up_down_width,2023_Aug_17_0941,exp1,2021.2.3,60.011078031551406,
,,,,,,,,,,,,,,,,3,8.2,10,11.8,0,0,1.7999999999999998,1.4,0.4,4,10,match,36.05,296,361,425,0,0,9,9,9,0,0,,,,,3,0,3,0,0,45,45,53,,,,,num_2,1.1790090000722557,num_2,0.2,1.6,0.3,1.6,10.81288,57.66869,return,1.2904416001401842,,,,,,,7,22,female,up_down_width,2023_Aug_17_0941,exp1,2021.2.3,60.011078031551406,
,,,,,,,,,,,,,,,,4,9.5,9.833333333333334,10.166666666666666,10.5,0,0.33333333333333337,0.23333333333333336,0.1,1.1,10,match,36.05,342,354,367,379,0,9,9,9,9,0,,,,,3,0,3,0,0,46,46,1,,,,,num_3,1.0277437998447567,num_3,0.25,0.6,0.2,0.6,7.20859,21.62576,return,1.9779495000839233,,,,,,,7,22,female,up_down_width,2023_Aug_17_0941,exp1,2021.2.3,60.011078031551406,
,,,,,,,,,,,,,,,,4,8.95,9.65,10.35,11.05,0,0.7,0.29999999999999993,0.4,2.5,10,initial,36.05,323,348,373,398,0,9,9,9,9,0,,,,,3,0,3,0,0,47,47,28,,,,,num_4,1.1710091000422835,num_4,0.3,1.3,0.25,0.7,9.01073,25.23005,return,4.627221800154075,,,,,,,7,22,female,up_down_width,2023_Aug_17_0941,exp1,2021.2.3,60.011078031551406,
,,,,,,,,,,,,,,,,5,8.2,9.1,10,10.9,11.8,0.9,0.5,0.4,4,10,initial,36.05,296,328,361,393,425,9,9,9,9,9,,,,,3,0,3,0,0,48,48,52,,,,,num_4,1.6963949999772012,num_4,0.35,0.7,0.25,0.7,9.01073,25.23005,return,4.085107499966398,,,,,,,7,22,female,up_down_width,2023_Aug_17_0941,exp1,2021.2.3,60.011078031551406,
,,,,,,,,,,,,,,,,4,9.1,9.7,10.3,10.9,0,0.6000000000000001,0.20000000000000004,0.4,2.2,10,match,36.05,328,350,371,393,0,9,9,9,9,0,,,,,3,0,3,0,0,49,49,17,,,,,num_4,1.7689324000384659,num_4,0.3,0.3,0.2,0.6,7.20859,21.62576,return,4.069564100122079,,,,,,,7,22,female,up_down_width,2023_Aug_17_0941,exp1,2021.2.3,60.011078031551406,
,,,,,,,,,,,,,,,,5,8.2,9.1,10,10.9,11.8,0.9,0.8,0.1,3.7,10,initial,36.05,296,328,361,393,425,9,9,9,9,9,,,,,3,0,3,0,0,50,50,48,,,,,num_5,1.5889102998189628,num_5,0.15,0.7,0.09999999999999999,0.8,3.60429,28.83434,return,2.0860077999532223,,,,,,,7,22,female,up_down_width,2023_Aug_17_0941,exp1,2021.2.3,60.011078031551406,
,,,,,,,,,,,,,,,,4,8.95,9.65,10.35,11.05,0,0.7,0.44999999999999996,0.25,2.3499999999999996,10,initial,36.05,323,348,373,398,0,9,9,9,9,0,,,,,3,0,3,0,0,51,51,26,,,,,num_3,3.0957792999688536,num_3,0.15,1.2,0.2,0.8,7.20859,28.83434,return,3.7864840000402182,,,,,,,7,22,female,up_down_width,2023_Aug_17_0941,exp1,2021.2.3,60.011078031551406,
,,,,,,,,,,,,,,,,4,9.3,9.766666666666667,10.233333333333333,10.7,0,0.4666666666666667,0.06666666666666665,0.4,1.8,10,match,36.05,335,352,369,386,0,9,9,9,9,0,,,,,3,0,3,0,0,52,52,11,,,,,num_3,1.078373699914664,num_3,0.3,0.8,0.39999999999999997,0.65,14.41717,23.4279,return,2.0750524001196027,,,,,,,7,22,female,up_down_width,2023_Aug_17_0941,exp1,2021.2.3,60.011078031551406,
,,,,,,,,,,,,,,,,3,9,10,11,0,0,0.9999999999999999,0.5999999999999999,0.4,2.4,10,match,36.05,324,361,397,0,0,9,9,9,0,0,,,,,3,0,3,0,0,53,53,41,,,,,num_2,1.1518224999308586,num_2,0.2,1.6,0.35,0.8,12.61502,28.83434,return,3.6159034001175314,,,,,,,7,22,female,up_down_width,2023_Aug_17_0941,exp1,2021.2.3,60.011078031551406,
,,,,,,,,,,,,,,,,,,,,,,,,,,,,,,,,,,,,,,,,,,,3,0,3,0,,,,,,,,,,,,,,,,,,,,,,2150.9127779998817,None,2150.9127779998817,None,7,22,female,up_down_width,2023_Aug_17_0941,exp1,2021.2.3,60.011078031551406,
,,,,,,,,,,,,,,,,5,8.6,9.3,10,10.7,11.4,0.7,0.6,0.1,2.9,10,initial,36.05,310,335,361,386,411,9,9,9,9,9,,,,,4,0,4,0,0,0,0,42,,,,,num_4,1.1862623000051826,num_4,0.2,1.0,0.15000000000000002,0.6,5.40644,21.62576,return,2.6406465999316424,,,,,,,7,22,female,up_down_width,2023_Aug_17_0941,exp1,2021.2.3,60.011078031551406,
,,,,,,,,,,,,,,,,5,8.95,9.475,10,10.525,11.05,0.525,0.42500000000000004,0.1,2.2,10,match,36.05,323,342,361,379,398,9,9,9,9,9,,,,,4,0,4,0,0,1,1,25,,,,,num_4,0.948304400080815,num_4,0.15,1.1,0.15,0.6,5.40644,21.62576,return,2.2359550001565367,,,,,,,7,22,female,up_down_width,2023_Aug_17_0941,exp1,2021.2.3,60.011078031551406,
,,,,,,,,,,,,,,,,4,9.1,9.7,10.3,10.9,0,0.6000000000000001,0.20000000000000004,0.4,2.2,10,match,36.05,328,350,371,393,0,9,9,9,9,0,,,,,4,0,4,0,0,2,2,17,,,,,num_3,1.252975300187245,num_3,0.4,1,0.30000000000000004,0.75,10.81288,27.0322,return,2.2392103001475334,,,,,,,7,22,female,up_down_width,2023_Aug_17_0941,exp1,2021.2.3,60.011078031551406,
,,,,,,,,,,,,,,,,4,8.65,9.55,10.45,11.35,0,0.9,0.5,0.4,3.1,10,initial,36.05,312,344,377,409,0,9,9,9,9,0,,,,,4,0,4,0,0,3,3,34,,,,,num_4,1.3383853000123054,num_4,0.15,1.0,0.3,0.7,10.81288,25.23005,return,2.8979828997980803,,,,,,,7,22,female,up_down_width,2023_Aug_17_0941,exp1,2021.2.3,60.011078031551406,
,,,,,,,,,,,,,,,,5,9,9.5,10,10.5,11,0.5,0.09999999999999998,0.4,2.4,10,initial,36.05,324,342,361,379,397,9,9,9,9,9,,,,,4,0,4,0,0,4,4,40,,,,,num_4,1.494641900062561,num_4,0.35,0.7,0.35,0.7,12.61502,25.23005,return,1.4209044999442995,,,,,,,7,22,female,up_down_width,2023_Aug_17_0941,exp1,2021.2.3,60.011078031551406,
,,,,,,,,,,,,,,,,3,9,10,11,0,0,1,0.75,0.25,2.25,10,match,36.05,324,361,397,0,0,9,9,9,0,0,,,,,4,0,4,0,0,5,5,39,,,,,num_2,1.0180545998737216,num_2,0.3,1.6,0.3,1.1,10.81288,39.64722,return,3.859458499820903,,,,,,,7,22,female,up_down_width,2023_Aug_17_0941,exp1,2021.2.3,60.011078031551406,
,,,,,,,,,,,,,,,,4,9.25,9.75,10.25,10.75,0,0.5,0.25,0.25,1.75,10,initial,36.05,333,351,370,388,0,9,9,9,9,0,,,,,4,0,4,0,0,6,6,20,,,,,num_3,1.1544283998664469,num_3,0.45,0.9,0.30000000000000004,0.6,10.81288,21.62576,return,5.875028100097552,,,,,,,7,22,female,up_down_width,2023_Aug_17_0941,exp1,2021.2.3,60.011078031551406,
,,,,,,,,,,,,,,,,5,8.65,9.325,10,10.675,11.35,0.675,0.275,0.4,3.1,10,match,36.05,312,336,361,385,409,9,9,9,9,9,,,,,4,0,4,0,0,7,7,35,,,,,num_4,1.060635499889031,num_4,0.35,0.5,0.39999999999999997,0.7,14.41717,25.23005,return,3.2087363000027835,,,,,,,7,22,female,up_down_width,2023_Aug_17_0941,exp1,2021.2.3,60.011078031551406,
,,,,,,,,,,,,,,,,3,9.5,10,10.5,0,0,0.5,0.4,0.1,1.1,10,initial,36.05,342,361,379,0,0,9,9,9,0,0,,,,,4,0,4,0,0,8,8,0,,,,,num_2,2.3091913000680506,num_2,0.2,1.6,0.15000000000000002,1.1,5.40644,39.64722,return,2.375706900143996,,,,,,,7,22,female,up_down_width,2023_Aug_17_0941,exp1,2021.2.3,60.011078031551406,
,,,,,,,,,,,,,,,,4,9.1,9.7,10.3,10.9,0,0.6,0.5,0.1,1.9,10,match,36.05,328,350,371,393,0,9,9,9,9,0,,,,,4,0,4,0,0,9,9,13,,,,,num_3,1.279075400205329,num_3,0.2,0.5,0.10000000000000002,0.55,3.60429,19.82361,return,3.5477592998649925,,,,,,,7,22,female,up_down_width,2023_Aug_17_0941,exp1,2021.2.3,60.011078031551406,
,,,,,,,,,,,,,,,,5,8.95,9.475,10,10.525,11.05,0.525,0.125,0.4,2.5,10,match,36.05,323,342,361,379,398,9,9,9,9,9,,,,,4,0,4,0,0,10,10,29,,,,,num_3,1.139753800118342,num_3,0.25,0.8,0.3,0.6,10.81288,21.62576,return,3.748466799966991,,,,,,,7,22,female,up_down_width,2023_Aug_17_0941,exp1,2021.2.3,60.011078031551406,
,,,,,,,,,,,,,,,,3,9.5,10,10.5,0,0,0.5,0.25,0.25,1.25,10,initial,36.05,342,361,379,0,0,9,9,9,0,0,,,,,4,0,4,0,0,11,11,2,,,,,num_2,1.041863199789077,num_2,0.2,1.6,0.3,0.8,10.81288,28.83434,return,4.165365100139752,,,,,,,7,22,female,up_down_width,2023_Aug_17_0941,exp1,2021.2.3,60.011078031551406,
,,,,,,,,,,,,,,,,5,9,9.5,10,10.5,11,0.5,0.4,0.1,2.1,10,initial,36.05,324,342,361,379,397,9,9,9,9,9,,,,,4,0,4,0,0,12,12,36,,,,,num_4,1.171036700019613,num_4,0.3,0.5,0.2,0.6,7.20859,21.62576,return,3.298880900023505,,,,,,,7,22,female,up_down_width,2023_Aug_17_0941,exp1,2021.2.3,60.011078031551406,
,,,,,,,,,,,,,,,,5,8.6,9.3,10,10.7,11.4,0.7,0.29999999999999993,0.4,3.1999999999999997,10,initial,36.05,310,335,361,386,411,9,9,9,9,9,,,,,4,0,4,0,0,13,13,46,,,,,num_4,1.2316115000285208,num_4,0.2,0.6,0.3,0.6,10.81288,21.62576,return,1.3619584999978542,,,,,,,7,22,female,up_down_width,2023_Aug_17_0941,exp1,2021.2.3,60.011078031551406,
,,,,,,,,,,,,,,,,4,9.25,9.75,10.25,10.75,0,0.5,0.4,0.1,1.6,10,initial,36.05,333,351,370,388,0,9,9,9,9,0,,,,,4,0,4,0,0,14,14,18,,,,,num_3,1.5916703001130372,num_3,0.35,1.1,0.2,0.75,7.20859,27.0322,return,3.431167700095102,,,,,,,7,22,female,up_down_width,2023_Aug_17_0941,exp1,2021.2.3,60.011078031551406,
,,,,,,,,,,,,,,,,5,8.65,9.325,10,10.675,11.35,0.6749999999999999,0.575,0.1,2.8,10,match,36.05,312,336,361,385,409,9,9,9,9,9,,,,,4,0,4,0,0,15,15,31,,,,,num_4,0.9123664998915046,num_4,0.35,0.4,0.10000000000000002,0.7,3.60429,25.23005,return,5.626329699996859,,,,,,,7,22,female,up_down_width,2023_Aug_17_0941,exp1,2021.2.3,60.011078031551406,
,,,,,,,,,,,,,,,,3,9,10,11,0,0,0.9999999999999999,0.5999999999999999,0.4,2.4,10,match,36.05,324,361,397,0,0,9,9,9,0,0,,,,,4,0,4,0,0,16,16,41,,,,,num_3,1.6164666002150625,num_3,0.2,0.5,0.3,0.7,10.81288,25.23005,return,2.7369564999826252,,,,,,,7,22,female,up_down_width,2023_Aug_17_0941,exp1,2021.2.3,60.011078031551406,
,,,,,,,,,,,,,,,,5,8.6,9.3,10,10.7,11.4,0.7,0.44999999999999996,0.25,3.05,10,initial,36.05,310,335,361,386,411,9,9,9,9,9,,,,,4,0,4,0,0,17,17,44,,,,,num_4,0.9521502000279725,num_4,0.4,0.8,0.25000000000000006,0.6,9.01073,21.62576,return,5.535255700116977,,,,,,,7,22,female,up_down_width,2023_Aug_17_0941,exp1,2021.2.3,60.011078031551406,
,,,,,,,,,,,,,,,,4,9.25,9.75,10.25,10.75,0,0.5,0.09999999999999998,0.4,1.9,10,initial,36.05,333,351,370,388,0,9,9,9,9,0,,,,,4,0,4,0,0,18,18,22,,,,,num_3,1.0846423998009413,num_3,0.25,0.8,0.3,0.55,10.81288,19.82361,return,3.694441600004211,,,,,,,7,22,female,up_down_width,2023_Aug_17_0941,exp1,2021.2.3,60.011078031551406,
,,,,,,,,,,,,,,,,4,9.5,9.833333333333334,10.166666666666666,10.5,0,0.3333333333333333,0.08333333333333333,0.25,1.25,10,match,36.05,342,354,367,379,0,9,9,9,9,0,,,,,4,0,4,0,0,19,19,3,,,,,num_3,1.138444600161165,num_3,0.25,1.3,0.25,0.5,9.01073,18.02146,return,6.497737600002438,,,,,,,7,22,female,up_down_width,2023_Aug_17_0941,exp1,2021.2.3,60.011078031551406,
,,,,,,,,,,,,,,,,3,8.525,10,11.475,0,0,1.475,1.225,0.25,3.2,10,match,36.05,307,361,414,0,0,9,9,9,0,0,,,,,4,0,4,0,0,20,20,47,,,,,num_3,1.5281726000830531,num_3,0.4,0.7,0.25000000000000006,1.1,9.01073,39.64722,return,5.033887000055984,,,,,,,7,22,female,up_down_width,2023_Aug_17_0941,exp1,2021.2.3,60.011078031551406,
,,,,,,,,,,,,,,,,3,9.1,10,10.9,0,0,0.9,0.5,0.4,2.2,10,initial,36.05,328,361,393,0,0,9,9,9,0,0,,,,,4,0,4,0,0,21,21,16,,,,,num_2,1.0216598000843078,num_2,0.3,1.6,0.35,1.2,12.61502,43.25151,return,3.523265899857506,,,,,,,7,22,female,up_down_width,2023_Aug_17_0941,exp1,2021.2.3,60.011078031551406,
,,,,,,,,,,,,,,,,4,8.65,9.55,10.45,11.35,0,0.9,0.65,0.25,2.95,10,initial,36.05,312,344,377,409,0,9,9,9,9,0,,,,,4,0,4,0,0,22,22,32,,,,,num_3,1.5029954998753965,num_3,0.45,1.1,0.30000000000000004,1.1,10.81288,39.64722,return,2.7839504000730813,,,,,,,7,22,female,up_down_width,2023_Aug_17_0941,exp1,2021.2.3,60.011078031551406,
,,,,,,,,,,,,,,,,5,8.2,9.1,10,10.9,11.8,0.9,0.8,0.1,3.7,10,initial,36.05,296,328,361,393,425,9,9,9,9,9,,,,,4,0,4,0,0,23,23,48,,,,,num_4,1.0811425000429153,num_4,0.15,0.4,0.25,0.8,9.01073,28.83434,return,2.6059028999879956,,,,,,,7,22,female,up_down_width,2023_Aug_17_0941,exp1,2021.2.3,60.011078031551406,
,,,,,,,,,,,,,,,,4,8.95,9.65,10.35,11.05,0,0.7,0.29999999999999993,0.4,2.5,10,initial,36.05,323,348,373,398,0,9,9,9,9,0,,,,,4,0,4,0,0,24,24,28,,,,,num_3,1.2771398001350462,num_3,0.1,0.6,0.3,0.65,10.81288,23.4279,return,3.2256623001303524,,,,,,,7,22,female,up_down_width,2023_Aug_17_0941,exp1,2021.2.3,60.011078031551406,
,,,,,,,,,,,,,,,,3,9.5,10,10.5,0,0,0.5,0.09999999999999998,0.4,1.4000000000000001,10,initial,36.05,342,361,379,0,0,9,9,9,0,0,,,,,4,0,4,0,0,25,25,4,,,,,num_3,1.2741578000131994,num_3,0.3,0.5,0.3,0.65,10.81288,23.4279,return,3.8305670998524874,,,,,,,7,22,female,up_down_width,2023_Aug_17_0941,exp1,2021.2.3,60.011078031551406,
,,,,,,,,,,,,,,,,3,9,10,11,0,0,1,0.9,0.1,2.1,10,match,36.05,324,361,397,0,0,9,9,9,0,0,,,,,4,0,4,0,0,26,26,37,,,,,num_2,1.1337686001788825,num_2,0.3,1.6,0.2,0.9,7.20859,32.43864,return,3.9506635998841375,,,,,,,7,22,female,up_down_width,2023_Aug_17_0941,exp1,2021.2.3,60.011078031551406,
,,,,,,,,,,,,,,,,3,9.1,10,10.9,0,0,0.9,0.8,0.1,1.9000000000000001,10,initial,36.05,328,361,393,0,0,9,9,9,0,0,,,,,4,0,4,0,0,27,27,12,,,,,num_2,1.1783344999421388,num_2,0.3,1.6,0.15000000000000002,0.7,5.40644,25.23005,return,3.9465363000053912,,,,,,,7,22,female,up_down_width,2023_Aug_17_0941,exp1,2021.2.3,60.011078031551406,
,,,,,,,,,,,,,,,,5,9,9.5,10,10.5,11,0.5,0.25,0.25,2.25,10,initial,36.05,324,342,361,379,397,9,9,9,9,9,,,,,4,0,4,0,0,28,28,38,,,,,num_3,1.0071765999309719,num_3,0.2,0.9,0.2,0.5,7.20859,18.02146,return,3.587450300110504,,,,,,,7,22,female,up_down_width,2023_Aug_17_0941,exp1,2021.2.3,60.011078031551406,
,,,,,,,,,,,,,,,,3,9.3,10,10.7,0,0,0.7,0.29999999999999993,0.4,1.8,10,initial,36.05,335,361,386,0,0,9,9,9,0,0,,,,,4,0,4,0,0,29,29,10,,,,,num_2,1.0065460000187159,num_2,0.4,1.6,0.35000000000000003,0.7,12.61502,25.23005,return,4.722909700125456,,,,,,,7,22,female,up_down_width,2023_Aug_17_0941,exp1,2021.2.3,60.011078031551406,
,,,,,,,,,,,,,,,,3,9.3,10,10.7,0,0,0.7,0.6,0.1,1.5,10,initial,36.05,335,361,386,0,0,9,9,9,0,0,,,,,4,0,4,0,0,30,30,6,,,,,num_2,1.006598599953577,num_2,0.35,1.6,0.15000000000000002,0.6,5.40644,21.62576,return,3.766126199858263,,,,,,,7,22,female,up_down_width,2023_Aug_17_0941,exp1,2021.2.3,60.011078031551406,
,,,,,,,,,,,,,,,,4,9.1,9.7,10.3,10.9,0,0.5999999999999999,0.3499999999999999,0.25,2.05,10,match,36.05,328,350,371,393,0,9,9,9,9,0,,,,,4,0,4,0,0,31,31,15,,,,,num_3,0.9550556999165565,num_3,0.45,0.6,0.25000000000000006,0.6,9.01073,21.62576,return,2.677411299897358,,,,,,,7,22,female,up_down_width,2023_Aug_17_0941,exp1,2021.2.3,60.011078031551406,
,,,,,,,,,,,,,,,,4,8.65,9.55,10.45,11.35,0,0.9,0.8,0.1,2.8000000000000003,10,initial,36.05,312,344,377,409,0,9,9,9,9,0,,,,,4,0,4,0,0,32,32,30,,,,,num_3,1.0173671999946237,num_3,0.15,0.5,0.15,0.85,5.40644,30.63649,return,2.272561299847439,,,,,,,7,22,female,up_down_width,2023_Aug_17_0941,exp1,2021.2.3,60.011078031551406,
,,,,,,,,,,,,,,,,4,9.425,9.808333333333334,10.191666666666666,10.575,0,0.3833333333333333,0.1333333333333333,0.25,1.4,10,match,36.05,340,354,367,381,0,9,9,9,9,0,,,,,4,0,4,0,0,33,33,5,,,,,num_3,0.9772469000890851,num_3,0.2,1.3,0.2,0.6,7.20859,21.62576,return,4.808738299878314,,,,,,,7,22,female,up_down_width,2023_Aug_17_0941,exp1,2021.2.3,60.011078031551406,
,,,,,,,,,,,,,,,,5,8.2,9.1,10,10.9,11.8,0.9,0.65,0.25,3.85,10,initial,36.05,296,328,361,393,425,9,9,9,9,9,,,,,4,0,4,0,0,34,34,50,,,,,num_4,0.986958600115031,num_4,0.35,0.7,0.35,1.0,12.61502,36.04293,return,2.1785168999340385,,,,,,,7,22,female,up_down_width,2023_Aug_17_0941,exp1,2021.2.3,60.011078031551406,
,,,,,,,,,,,,,,,,3,9.3,10,10.7,0,0,0.7,0.44999999999999996,0.25,1.65,10,initial,36.05,335,361,386,0,0,9,9,9,0,0,,,,,4,0,4,0,0,35,35,8,,,,,num_3,1.0735619000624865,num_3,0.1,0.5,0.25,0.45,9.01073,16.21932,return,1.8150220999959856,,,,,,,7,22,female,up_down_width,2023_Aug_17_0941,exp1,2021.2.3,60.011078031551406,
,,,,,,,,,,,,,,,,5,8.95,9.475,10,10.525,11.05,0.525,0.275,0.25,2.35,10,match,36.05,323,342,361,379,398,9,9,9,9,9,,,,,4,0,4,0,0,36,36,27,,,,,num_4,0.9159601000137627,num_4,0.1,0.9,0.2,0.5,7.20859,18.02146,return,2.14199070003815,,,,,,,7,22,female,up_down_width,2023_Aug_17_0941,exp1,2021.2.3,60.011078031551406,
,,,,,,,,,,,,,,,,3,8.6,10,11.4,0,0,1.4,1.15,0.25,3.05,10,match,36.05,310,361,411,0,0,9,9,9,0,0,,,,,4,0,4,0,0,37,37,45,,,,,num_2,1.1529947998933494,num_2,0.45,1.6,0.30000000000000004,1.9,10.81288,68.48156,return,2.049670800101012,,,,,,,7,22,female,up_down_width,2023_Aug_17_0941,exp1,2021.2.3,60.011078031551406,
,,,,,,,,,,,,,,,,4,9.3,9.766666666666667,10.233333333333333,10.7,0,0.4666666666666667,0.3666666666666667,0.1,1.5,10,match,36.05,335,352,369,386,0,9,9,9,9,0,,,,,4,0,4,0,0,38,38,7,,,,,num_3,1.1287121998611838,num_3,0.25,0.9,0.2,0.7,7.20859,25.23005,return,3.0342496000230312,,,,,,,7,22,female,up_down_width,2023_Aug_17_0941,exp1,2021.2.3,60.011078031551406,
,,,,,,,,,,,,,,,,4,9.3,9.766666666666667,10.233333333333333,10.7,0,0.4666666666666667,0.21666666666666665,0.25,1.65,10,match,36.05,335,352,369,386,0,9,9,9,9,0,,,,,4,0,4,0,0,39,39,9,,,,,num_3,1.11802770011127,num_3,0.15,1.3,0.15,0.6,5.40644,21.62576,return,6.912272900110111,,,,,,,7,22,female,up_down_width,2023_Aug_17_0941,exp1,2021.2.3,60.011078031551406,
,,,,,,,,,,,,,,,,3,8.2,10,11.8,0,0,1.8,1.55,0.25,3.85,10,match,36.05,296,361,425,0,0,9,9,9,0,0,,,,,4,0,4,0,0,40,40,51,,,,,num_3,2.312461399938911,num_3,0.45,1.3,0.25000000000000006,1.55,9.01073,55.86654,return,4.746323599945754,,,,,,,7,22,female,up_down_width,2023_Aug_17_0941,exp1,2021.2.3,60.011078031551406,
,,,,,,,,,,,,,,,,5,9.175,9.5875,10,10.4125,10.825,0.4125,0.16249999999999998,0.25,1.9,10,match,36.05,331,346,361,375,390,9,9,9,9,9,,,,,4,0,4,0,0,41,41,23,,,,,num_4,0.9897374999709427,num_4,0.15,0.9,0.2,0.5,7.20859,18.02146,return,3.237346300156787,,,,,,,7,22,female,up_down_width,2023_Aug_17_0941,exp1,2021.2.3,60.011078031551406,
,,,,,,,,,,,,,,,,5,8.65,9.325,10,10.675,11.35,0.675,0.42500000000000004,0.25,2.95,10,match,36.05,312,336,361,385,409,9,9,9,9,9,,,,,4,0,4,0,0,42,42,33,,,,,num_4,1.1084654000587761,num_4,0.15,0.9,0.3,0.6,10.81288,21.62576,return,2.0718752001412213,,,,,,,7,22,female,up_down_width,2023_Aug_17_0941,exp1,2021.2.3,60.011078031551406,
,,,,,,,,,,,,,,,,3,9.1,10,10.9,0,0,0.9,0.65,0.25,2.05,10,initial,36.05,328,361,393,0,0,9,9,9,0,0,,,,,4,0,4,0,0,43,43,14,,,,,num_2,1.1170294000767171,num_2,0.15,1.6,0.25,0.8,9.01073,28.83434,return,3.568771000020206,,,,,,,7,22,female,up_down_width,2023_Aug_17_0941,exp1,2021.2.3,60.011078031551406,
,,,,,,,,,,,,,,,,4,8.95,9.65,10.35,11.05,0,0.7,0.6,0.1,2.1999999999999997,10,initial,36.05,323,348,373,398,0,9,9,9,9,0,,,,,4,0,4,0,0,44,44,24,,,,,num_4,1.889914299827069,num_4,0.25,1.0,0.15000000000000002,0.6,5.40644,21.62576,return,3.3337542000226676,,,,,,,7,22,female,up_down_width,2023_Aug_17_0941,exp1,2021.2.3,60.011078031551406,
,,,,,,,,,,,,,,,,5,9.25,9.625,10,10.375,10.75,0.375,0.275,0.1,1.6,10,match,36.05,333,347,361,374,388,9,9,9,9,9,,,,,4,0,4,0,0,45,45,19,,,,,num_3,1.3987133000046015,num_3,0.45,0.6,0.25000000000000006,0.5,9.01073,18.02146,return,2.572622099891305,,,,,,,7,22,female,up_down_width,2023_Aug_17_0941,exp1,2021.2.3,60.011078031551406,
,,,,,,,,,,,,,,,,3,8.6,10,11.4,0,0,1.4,1.2999999999999998,0.1,2.9,10,match,36.05,310,361,411,0,0,9,9,9,0,0,,,,,4,0,4,0,0,46,46,43,,,,,num_3,1.1232656000647694,num_3,0.35,1.3,0.15000000000000002,1.5,5.40644,54.06439,return,3.3662630999460816,,,,,,,7,22,female,up_down_width,2023_Aug_17_0941,exp1,2021.2.3,60.011078031551406,
,,,,,,,,,,,,,,,,3,8.2,10,11.8,0,0,1.8000000000000003,1.7000000000000002,0.1,3.7,10,match,36.05,296,361,425,0,0,9,9,9,0,0,,,,,4,0,4,0,0,47,47,49,,,,,num_2,0.8529497999697924,num_2,0.4,1.6,0.20000000000000007,2.2,7.20859,79.29444,return,4.114762099925429,,,,,,,7,22,female,up_down_width,2023_Aug_17_0941,exp1,2021.2.3,60.011078031551406,
,,,,,,,,,,,,,,,,5,9.25,9.625,10,10.375,10.75,0.375,0.125,0.25,1.75,10,match,36.05,333,347,361,374,388,9,9,9,9,9,,,,,4,0,4,0,0,48,48,21,,,,,num_3,1.1681905000004917,num_3,0.25,1.2,0.2,0.7,7.20859,25.23005,return,3.454373100074008,,,,,,,7,22,female,up_down_width,2023_Aug_17_0941,exp1,2021.2.3,60.011078031551406,
,,,,,,,,,,,,,,,,4,9.5,9.833333333333334,10.166666666666666,10.5,0,0.33333333333333337,0.23333333333333336,0.1,1.1,10,match,36.05,342,354,367,379,0,9,9,9,9,0,,,,,4,0,4,0,0,49,49,1,,,,,num_3,1.191698299953714,num_3,0.35,0.5,0.2,0.4,7.20859,14.41717,return,2.871053700102493,,,,,,,7,22,female,up_down_width,2023_Aug_17_0941,exp1,2021.2.3,60.011078031551406,
,,,,,,,,,,,,,,,,4,9.3,9.766666666666667,10.233333333333333,10.7,0,0.4666666666666667,0.06666666666666665,0.4,1.8,10,match,36.05,335,352,369,386,0,9,9,9,9,0,,,,,4,0,4,0,0,50,50,11,,,,,num_3,1.1051398001145571,num_3,0.4,0.9,0.30000000000000004,0.6,10.81288,21.62576,return,3.66705509996973,,,,,,,7,22,female,up_down_width,2023_Aug_17_0941,exp1,2021.2.3,60.011078031551406,
,,,,,,,,,,,,,,,,4,8.95,9.65,10.35,11.05,0,0.7,0.44999999999999996,0.25,2.3499999999999996,10,initial,36.05,323,348,373,398,0,9,9,9,9,0,,,,,4,0,4,0,0,51,51,26,,,,,num_3,1.0817849000450224,num_3,0.1,0.4,0.25,0.55,9.01073,19.82361,return,2.7010894999839365,,,,,,,7,22,female,up_down_width,2023_Aug_17_0941,exp1,2021.2.3,60.011078031551406,
,,,,,,,,,,,,,,,,5,8.2,9.1,10,10.9,11.8,0.9,0.5,0.4,4,10,initial,36.05,296,328,361,393,425,9,9,9,9,9,,,,,4,0,4,0,0,52,52,52,,,,,num_4,1.154403799911961,num_4,0.1,1.1,0.44999999999999996,1.1,16.21932,39.64722,return,1.9069841001182795,,,,,,,7,22,female,up_down_width,2023_Aug_17_0941,exp1,2021.2.3,60.011078031551406,
,,,,,,,,,,,,,,,,3,8.2,10,11.8,0,0,1.7999999999999998,1.4,0.4,4,10,match,36.05,296,361,425,0,0,9,9,9,0,0,,,,,4,0,4,0,0,53,53,53,,,,,num_2,0.9852672999259084,num_2,0.2,1.6,0.39999999999999997,1.6,14.41717,57.66869,return,1.2634523999877274,,,,,,,7,22,female,up_down_width,2023_Aug_17_0941,exp1,2021.2.3,60.011078031551406,
,,,,,,,,,,,,,,,,,,,,,,,,,,,,,,,,,,,,,,,,,,,4,0,4,0,,,,,,,,,,,,,,,,,,,,,,2571.3792294999585,None,2571.3792294999585,None,7,22,female,up_down_width,2023_Aug_17_0941,exp1,2021.2.3,60.011078031551406,
,,,,,,,,,,,,,,,,3,9.3,10,10.7,0,0,0.7,0.6,0.1,1.5,10,initial,36.05,335,361,386,0,0,9,9,9,0,0,,,,,5,0,5,0,0,0,0,6,,,,,num_2,1.0042341002263129,num_2,0.25,1.6,0.2,1.1,7.20859,39.64722,return,2.2905388998333365,,,,,,,7,22,female,up_down_width,2023_Aug_17_0941,exp1,2021.2.3,60.011078031551406,
,,,,,,,,,,,,,,,,5,8.2,9.1,10,10.9,11.8,0.9,0.65,0.25,3.85,10,initial,36.05,296,328,361,393,425,9,9,9,9,9,,,,,5,0,5,0,0,1,1,50,,,,,num_4,0.8527402998879552,num_4,0.1,0.5,0.25,0.8,9.01073,28.83434,return,2.4661401999183,,,,,,,7,22,female,up_down_width,2023_Aug_17_0941,exp1,2021.2.3,60.011078031551406,
,,,,,,,,,,,,,,,,5,8.95,9.475,10,10.525,11.05,0.525,0.275,0.25,2.35,10,match,36.05,323,342,361,379,398,9,9,9,9,9,,,,,5,0,5,0,0,2,2,27,,,,,num_4,0.8631543000228703,num_4,0.15,0.3,0.3,0.6,10.81288,21.62576,return,3.005056600086391,,,,,,,7,22,female,up_down_width,2023_Aug_17_0941,exp1,2021.2.3,60.011078031551406,
,,,,,,,,,,,,,,,,3,9.3,10,10.7,0,0,0.7,0.29999999999999993,0.4,1.8,10,initial,36.05,335,361,386,0,0,9,9,9,0,0,,,,,5,0,5,0,0,3,3,10,,,,,num_2,0.8965274000074714,num_2,0.15,1.6,0.35,0.7,12.61502,25.23005,return,4.718187399907038,,,,,,,7,22,female,up_down_width,2023_Aug_17_0941,exp1,2021.2.3,60.011078031551406,
,,,,,,,,,,,,,,,,5,9,9.5,10,10.5,11,0.5,0.4,0.1,2.1,10,initial,36.05,324,342,361,379,397,9,9,9,9,9,,,,,5,0,5,0,0,4,4,36,,,,,num_4,1.031999200116843,num_4,0.15,1.2,0.3,0.5,10.81288,18.02146,return,5.678016600199044,,,,,,,7,22,female,up_down_width,2023_Aug_17_0941,exp1,2021.2.3,60.011078031551406,
,,,,,,,,,,,,,,,,5,9.25,9.625,10,10.375,10.75,0.375,0.275,0.1,1.6,10,match,36.05,333,347,361,374,388,9,9,9,9,9,,,,,5,0,5,0,0,5,5,19,,,,,num_4,0.9929079997818917,num_4,0.35,1.0,0.2,0.4,7.20859,14.41717,return,3.608766100136563,,,,,,,7,22,female,up_down_width,2023_Aug_17_0941,exp1,2021.2.3,60.011078031551406,
,,,,,,,,,,,,,,,,3,9,10,11,0,0,0.9999999999999999,0.5999999999999999,0.4,2.4,10,match,36.05,324,361,397,0,0,9,9,9,0,0,,,,,5,0,5,0,0,6,6,41,,,,,num_2,0.9924624999985099,num_2,0.15,1.6,0.44999999999999996,1.0,16.21932,36.04293,return,2.760360899847001,,,,,,,7,22,female,up_down_width,2023_Aug_17_0941,exp1,2021.2.3,60.011078031551406,
,,,,,,,,,,,,,,,,3,8.2,10,11.8,0,0,1.8000000000000003,1.7000000000000002,0.1,3.7,10,match,36.05,296,361,425,0,0,9,9,9,0,0,,,,,5,0,5,0,0,7,7,49,,,,,num_2,1.2259050998836756,num_2,0.4,1.6,0.25000000000000006,1.3,9.01073,46.85581,return,4.583371500018984,,,,,,,7,22,female,up_down_width,2023_Aug_17_0941,exp1,2021.2.3,60.011078031551406,
,,,,,,,,,,,,,,,,3,8.525,10,11.475,0,0,1.475,1.225,0.25,3.2,10,match,36.05,307,361,414,0,0,9,9,9,0,0,,,,,5,0,5,0,0,8,8,47,,,,,num_2,1.1489794000517577,num_2,0.35,1.6,0.3,2.0,10.81288,72.08586,return,3.055131600005552,,,,,,,7,22,female,up_down_width,2023_Aug_17_0941,exp1,2021.2.3,60.011078031551406,
,,,,,,,,,,,,,,,,4,9.425,9.808333333333334,10.191666666666666,10.575,0,0.3833333333333333,0.1333333333333333,0.25,1.4,10,match,36.05,340,354,367,381,0,9,9,9,9,0,,,,,5,0,5,0,0,9,9,5,,,,,num_3,1.0892046000808477,num_3,0.2,1.2,0.3,0.6,10.81288,21.62576,return,3.651372899999842,,,,,,,7,22,female,up_down_width,2023_Aug_17_0941,exp1,2021.2.3,60.011078031551406,
,,,,,,,,,,,,,,,,5,8.95,9.475,10,10.525,11.05,0.525,0.42500000000000004,0.1,2.2,10,match,36.05,323,342,361,379,398,9,9,9,9,9,,,,,5,0,5,0,0,10,10,25,,,,,num_4,0.9472491999622434,num_4,0.45,0.5,0.25000000000000006,0.5,9.01073,18.02146,return,3.452417999971658,,,,,,,7,22,female,up_down_width,2023_Aug_17_0941,exp1,2021.2.3,60.011078031551406,
,,,,,,,,,,,,,,,,3,9.1,10,10.9,0,0,0.9,0.8,0.1,1.9000000000000001,10,initial,36.05,328,361,393,0,0,9,9,9,0,0,,,,,5,0,5,0,0,11,11,12,,,,,num_2,1.0868589000310749,num_2,0.35,1.6,0.2,0.9,7.20859,32.43864,return,3.0587538999971002,,,,,,,7,22,female,up_down_width,2023_Aug_17_0941,exp1,2021.2.3,60.011078031551406,
,,,,,,,,,,,,,,,,5,9.175,9.5875,10,10.4125,10.825,0.4125,0.16249999999999998,0.25,1.9,10,match,36.05,331,346,361,375,390,9,9,9,9,9,,,,,5,0,5,0,0,12,12,23,,,,,num_3,0.9924427999649197,num_3,0.15,0.4,0.25,0.5,9.01073,18.02146,return,2.8558608999010175,,,,,,,7,22,female,up_down_width,2023_Aug_17_0941,exp1,2021.2.3,60.011078031551406,
,,,,,,,,,,,,,,,,4,9.3,9.766666666666667,10.233333333333333,10.7,0,0.4666666666666667,0.06666666666666665,0.4,1.8,10,match,36.05,335,352,369,386,0,9,9,9,9,0,,,,,5,0,5,0,0,13,13,11,,,,,num_3,0.9356873000506312,num_3,0.2,0.3,0.3,0.5,10.81288,18.02146,return,2.2554844000842422,,,,,,,7,22,female,up_down_width,2023_Aug_17_0941,exp1,2021.2.3,60.011078031551406,
,,,,,,,,,,,,,,,,5,9,9.5,10,10.5,11,0.5,0.09999999999999998,0.4,2.4,10,initial,36.05,324,342,361,379,397,9,9,9,9,9,,,,,5,0,5,0,0,14,14,40,,,,,num_4,0.9051345998886973,num_4,0.35,0.4,0.35,0.6,12.61502,21.62576,return,2.8059536998625845,,,,,,,7,22,female,up_down_width,2023_Aug_17_0941,exp1,2021.2.3,60.011078031551406,
,,,,,,,,,,,,,,,,3,8.2,10,11.8,0,0,1.8,1.55,0.25,3.85,10,match,36.05,296,361,425,0,0,9,9,9,0,0,,,,,5,0,5,0,0,15,15,51,,,,,num_2,1.0822756001725793,num_2,0.15,1.6,0.3,1.8,10.81288,64.87727,return,2.1907794000580907,,,,,,,7,22,female,up_down_width,2023_Aug_17_0941,exp1,2021.2.3,60.011078031551406,
,,,,,,,,,,,,,,,,4,8.65,9.55,10.45,11.35,0,0.9,0.65,0.25,2.95,10,initial,36.05,312,344,377,409,0,9,9,9,9,0,,,,,5,0,5,0,0,16,16,32,,,,,num_4,1.1233725999481976,num_4,0.25,0.8,0.35,1.0,12.61502,36.04293,return,1.5578989000059664,,,,,,,7,22,female,up_down_width,2023_Aug_17_0941,exp1,2021.2.3,60.011078031551406,
,,,,,,,,,,,,,,,,4,8.95,9.65,10.35,11.05,0,0.7,0.29999999999999993,0.4,2.5,10,initial,36.05,323,348,373,398,0,9,9,9,9,0,,,,,5,0,5,0,0,17,17,28,,,,,num_4,1.3671558999922127,num_4,0.3,0.5,0.35,0.8,12.61502,28.83434,return,2.9603960001841187,,,,,,,7,22,female,up_down_width,2023_Aug_17_0941,exp1,2021.2.3,60.011078031551406,
,,,,,,,,,,,,,,,,5,8.65,9.325,10,10.675,11.35,0.675,0.275,0.4,3.1,10,match,36.05,312,336,361,385,409,9,9,9,9,9,,,,,5,0,5,0,0,18,18,35,,,,,num_4,1.061913900077343,num_4,0.15,0.6,0.25,0.8,9.01073,28.83434,return,3.97764559998177,,,,,,,7,22,female,up_down_width,2023_Aug_17_0941,exp1,2021.2.3,60.011078031551406,
,,,,,,,,,,,,,,,,4,9.25,9.75,10.25,10.75,0,0.5,0.25,0.25,1.75,10,initial,36.05,333,351,370,388,0,9,9,9,9,0,,,,,5,0,5,0,0,19,19,20,,,,,num_4,0.9078997001051903,num_4,0.35,1.2,0.25,0.7,9.01073,25.23005,return,2.8557747998274863,,,,,,,7,22,female,up_down_width,2023_Aug_17_0941,exp1,2021.2.3,60.011078031551406,
,,,,,,,,,,,,,,,,5,8.6,9.3,10,10.7,11.4,0.7,0.6,0.1,2.9,10,initial,36.05,310,335,361,386,411,9,9,9,9,9,,,,,5,0,5,0,0,20,20,42,,,,,num_4,0.9010749000590295,num_4,0.4,1.2,0.10000000000000007,0.7,3.60429,25.23005,return,4.065173400100321,,,,,,,7,22,female,up_down_width,2023_Aug_17_0941,exp1,2021.2.3,60.011078031551406,
,,,,,,,,,,,,,,,,4,8.95,9.65,10.35,11.05,0,0.7,0.6,0.1,2.1999999999999997,10,initial,36.05,323,348,373,398,0,9,9,9,9,0,,,,,5,0,5,0,0,21,21,24,,,,,num_4,1.03059359989129,num_4,0.45,1.1,0.15000000000000008,0.6,5.40644,21.62576,return,3.5828797998838127,,,,,,,7,22,female,up_down_width,2023_Aug_17_0941,exp1,2021.2.3,60.011078031551406,
,,,,,,,,,,,,,,,,4,8.65,9.55,10.45,11.35,0,0.9,0.5,0.4,3.1,10,initial,36.05,312,344,377,409,0,9,9,9,9,0,,,,,5,0,5,0,0,22,22,34,,,,,num_3,1.481762999901548,num_3,0.35,0.6,0.35,0.8,12.61502,28.83434,return,4.5097771000582725,,,,,,,7,22,female,up_down_width,2023_Aug_17_0941,exp1,2021.2.3,60.011078031551406,
,,,,,,,,,,,,,,,,3,9.5,10,10.5,0,0,0.5,0.09999999999999998,0.4,1.4000000000000001,10,initial,36.05,342,361,379,0,0,9,9,9,0,0,,,,,5,0,5,0,0,23,23,4,,,,,num_2,1.8139035999774933,num_2,0.1,1.6,0.35,0.5,12.61502,18.02146,return,5.149682099930942,,,,,,,7,22,female,up_down_width,2023_Aug_17_0941,exp1,2021.2.3,60.011078031551406,
,,,,,,,,,,,,,,,,5,8.6,9.3,10,10.7,11.4,0.7,0.29999999999999993,0.4,3.1999999999999997,10,initial,36.05,310,335,361,386,411,9,9,9,9,9,,,,,5,0,5,0,0,24,24,46,,,,,num_4,0.8849859000183642,num_4,0.4,0.8,0.4,0.8,14.41717,28.83434,return,0.8641492000315338,,,,,,,7,22,female,up_down_width,2023_Aug_17_0941,exp1,2021.2.3,60.011078031551406,
,,,,,,,,,,,,,,,,5,9.25,9.625,10,10.375,10.75,0.375,0.125,0.25,1.75,10,match,36.05,333,347,361,374,388,9,9,9,9,9,,,,,5,0,5,0,0,25,25,21,,,,,num_4,1.205167000181973,num_4,0.4,1.0,0.25000000000000006,0.5,9.01073,18.02146,return,2.5317031999584287,,,,,,,7,22,female,up_down_width,2023_Aug_17_0941,exp1,2021.2.3,60.011078031551406,
