amount_p,posx1_p,posx2_p,posx3_p,posx4_p,posx5_p,center_to_center_p,edge_to_edge_p,w_p,stim_lengt_p,eccentricity_p,line1_p,line2_p,line3_p,line4_p,line5_p,amount,posx1,posx2,posx3,posx4,posx5,center_to_center,edge_to_edge,w,stim_length,eccentricity,trial_type,deg_to_pix_index,posx1_in_pix,posx2_in_pix,posx3_in_pix,posx4_in_pix,posx5_in_pix,line1,line2,line3,line4,line5,trials.thisRepN,trials.thisTrialN,trials.thisN,trials.thisIndex,blocks.thisRepN,blocks.thisTrialN,blocks.thisN,blocks.thisIndex,loop.thisRepN,loop.thisTrialN,loop.thisN,loop.thisIndex,key_resp_3.keys,key_resp_3.rt,key_resp_3.started,key_resp_3.stopped,key_resp.keys,key_resp.rt,response,starting_width_deg,starting_space_deg,response_width_degree,response_spacing_degree,response_width_pixel,response_spacing_pixel,next_5.keys,next_5.rt,key_resp_4.keys,key_resp_4.rt,text_3.started,text_3.stopped,text_4.started,text_4.stopped,participant,age,gender,resp_group,date,expName,psychopyVersion,frameRate,
,,,,,,,,,,,,,,,,,,,,,,,,,,,,,,,,,,,,,,,,,,,,,,,,,,,c,201.27269139999407,24.100584900006652,None,,,,,,,,,,,,,,,,,,8,22,female,up_down_width,2023_Aug_23_1358,exp1,2021.2.3,60.112843830676155,
5,9,9.5,10,10.5,11,0.5,0.09999999999999998,0.4,2.4,10,9,9,9,9,9,,,,,,,,,,,,,,,,,,,,,,,,0,0,0,8,,,,,,,,,,,,,num_4,3.525366200003191,num_4,0.1,1.2,0.25,1.2,9.01073,43.25151,return,9.207492700006696,,,,,,,8,22,female,up_down_width,2023_Aug_23_1358,exp1,2021.2.3,60.112843830676155,
4,9.5,9.833333333333334,10.166666666666666,10.5,0,0.33333333333333337,0.23333333333333336,0.1,1.1,10,9,9,9,9,0,,,,,,,,,,,,,,,,,,,,,,,,0,1,1,3,,,,,,,,,,,,,num_3,6.111482799999067,num_3,0.15,1.3,0.15,1.4,5.40644,50.4601,return,6.825897600007011,,,,,,,8,22,female,up_down_width,2023_Aug_23_1358,exp1,2021.2.3,60.112843830676155,
3,9.5,10,10.5,0,0,0.5,0.4,0.1,1.1,10,9,9,9,0,0,,,,,,,,,,,,,,,,,,,,,,,,0,2,2,0,,,,,,,,,,,,,num_3,2.7294589999946766,num_3,0.2,0.5,0.15000000000000002,0.55,5.40644,19.82361,return,8.682664899999509,,,,,,,8,22,female,up_down_width,2023_Aug_23_1358,exp1,2021.2.3,60.112843830676155,
3,9,10,11,0,0,1,0.9,0.1,2.1,10,9,9,9,0,0,,,,,,,,,,,,,,,,,,,,,,,,0,3,3,1,,,,,,,,,,,,,num_3,2.6361468999966746,num_3,0.2,1,0.10000000000000002,0.9,3.60429,32.43864,return,7.343797800000175,,,,,,,8,22,female,up_down_width,2023_Aug_23_1358,exp1,2021.2.3,60.112843830676155,
3,8.2,10,11.8,0,0,1.7999999999999998,1.4,0.4,4,10,9,9,9,0,0,,,,,,,,,,,,,,,,,,,,,,,,0,4,4,2,,,,,,,,,,,,,num_2,3.9732890000013867,num_2,0.25,1.6,0.3,1.1,10.81288,39.64722,return,10.789272499998333,,,,,,,8,22,female,up_down_width,2023_Aug_23_1358,exp1,2021.2.3,60.112843830676155,
5,9.25,9.625,10,10.375,10.75,0.375,0.125,0.25,1.75,10,9,9,9,9,9,,,,,,,,,,,,,,,,,,,,,,,,0,5,5,6,,,,,,,,,,,,,num_4,3.0318073999951594,num_4,0.35,0.8,0.35,0.8,12.61502,28.83434,return,1.211682599998312,,,,,,,8,22,female,up_down_width,2023_Aug_23_1358,exp1,2021.2.3,60.112843830676155,
5,8.6,9.3,10,10.7,11.4,0.7,0.29999999999999993,0.4,3.1999999999999997,10,9,9,9,9,9,,,,,,,,,,,,,,,,,,,,,,,,0,6,6,7,,,,,,,,,,,,,num_4,1.7699163000070257,num_4,0.15,0.7,0.2,0.6,7.20859,21.62576,return,8.671449999994365,,,,,,,8,22,female,up_down_width,2023_Aug_23_1358,exp1,2021.2.3,60.112843830676155,
4,9.25,9.75,10.25,10.75,0,0.5,0.25,0.25,1.75,10,9,9,9,9,0,,,,,,,,,,,,,,,,,,,,,,,,0,7,7,4,,,,,,,,,,,,,num_3,2.911621599996579,num_3,0.35,1.1,0.25,0.9,9.01073,32.43864,return,8.457495900001959,,,,,,,8,22,female,up_down_width,2023_Aug_23_1358,exp1,2021.2.3,60.112843830676155,
4,8.65,9.55,10.45,11.35,0,0.9,0.5,0.4,3.1,10,9,9,9,9,0,,,,,,,,,,,,,,,,,,,,,,,,0,8,8,5,,,,,,,,,,,,,num_3,3.188168799999403,num_3,0.25,0.5,0.2,0.75,7.20859,27.0322,return,6.271907299989834,,,,,,,8,22,female,up_down_width,2023_Aug_23_1358,exp1,2021.2.3,60.112843830676155,
,,,,,,,,,,,,,,,,,,,,,,,,,,,,,,,,,,,,,,,,,,,,,,,,,,,,,,,,,,,,,,,,,,c,26.847120400008862,,,,,8,22,female,up_down_width,2023_Aug_23_1358,exp1,2021.2.3,60.112843830676155,
,,,,,,,,,,,,,,,,4,9.25,9.75,10.25,10.75,0,0.5,0.09999999999999998,0.4,1.9,10,initial,36.05,333,351,370,388,0,9,9,9,9,0,,,,,0,0,0,0,0,0,0,22,,,,,num_3,1.5712392999994336,num_3,0.2,1.1,0.35,0.85,12.61502,30.63649,return,6.944080899993423,,,,,,,8,22,female,up_down_width,2023_Aug_23_1358,exp1,2021.2.3,60.112843830676155,
,,,,,,,,,,,,,,,,3,9,10,11,0,0,1,0.75,0.25,2.25,10,match,36.05,324,361,397,0,0,9,9,9,0,0,,,,,0,0,0,0,0,1,1,39,,,,,num_3,2.1904802000062773,num_3,0.3,0.9,0.2,1.0,7.20859,36.04293,return,7.409453399988706,,,,,,,8,22,female,up_down_width,2023_Aug_23_1358,exp1,2021.2.3,60.112843830676155,
,,,,,,,,,,,,,,,,3,8.2,10,11.8,0,0,1.7999999999999998,1.4,0.4,4,10,match,36.05,296,361,425,0,0,9,9,9,0,0,,,,,0,0,0,0,0,2,2,53,,,,,num_2,2.5662114000006113,num_2,0.2,1.6,0.44999999999999996,1.6,16.21932,57.66869,return,3.9190279000031296,,,,,,,8,22,female,up_down_width,2023_Aug_23_1358,exp1,2021.2.3,60.112843830676155,
,,,,,,,,,,,,,,,,5,8.65,9.325,10,10.675,11.35,0.6749999999999999,0.575,0.1,2.8,10,match,36.05,312,336,361,385,409,9,9,9,9,9,,,,,0,0,0,0,0,3,3,31,,,,,num_4,2.059590799995931,num_4,0.3,0.3,0.2,0.6,7.20859,21.62576,return,11.27245820000826,,,,,,,8,22,female,up_down_width,2023_Aug_23_1358,exp1,2021.2.3,60.112843830676155,
,,,,,,,,,,,,,,,,4,9.3,9.766666666666667,10.233333333333333,10.7,0,0.4666666666666667,0.06666666666666665,0.4,1.8,10,match,36.05,335,352,369,386,0,9,9,9,9,0,,,,,0,0,0,0,0,4,4,11,,,,,num_4,2.342248400003882,num_4,0.25,1.1,0.35,0.6,12.61502,21.62576,return,4.9516972999990685,,,,,,,8,22,female,up_down_width,2023_Aug_23_1358,exp1,2021.2.3,60.112843830676155,
,,,,,,,,,,,,,,,,3,9.1,10,10.9,0,0,0.9,0.8,0.1,1.9000000000000001,10,initial,36.05,328,361,393,0,0,9,9,9,0,0,,,,,0,0,0,0,0,5,5,12,,,,,num_3,1.6633491000102367,num_3,0.45,1.1,0.20000000000000007,0.75,7.20859,27.0322,return,4.762927400006447,,,,,,,8,22,female,up_down_width,2023_Aug_23_1358,exp1,2021.2.3,60.112843830676155,
,,,,,,,,,,,,,,,,4,8.95,9.65,10.35,11.05,0,0.7,0.44999999999999996,0.25,2.3499999999999996,10,initial,36.05,323,348,373,398,0,9,9,9,9,0,,,,,0,0,0,0,0,6,6,26,,,,,num_3,3.0134813000040594,num_3,0.15,1.1,0.15,0.75,5.40644,27.0322,return,4.9727499000000535,,,,,,,8,22,female,up_down_width,2023_Aug_23_1358,exp1,2021.2.3,60.112843830676155,
,,,,,,,,,,,,,,,,5,8.65,9.325,10,10.675,11.35,0.675,0.275,0.4,3.1,10,match,36.05,312,336,361,385,409,9,9,9,9,9,,,,,0,0,0,0,0,7,7,35,,,,,num_4,1.6946349000063492,num_4,0.1,1.1,0.25,0.6,9.01073,21.62576,return,4.599966399997356,,,,,,,8,22,female,up_down_width,2023_Aug_23_1358,exp1,2021.2.3,60.112843830676155,
,,,,,,,,,,,,,,,,4,9.5,9.833333333333334,10.166666666666666,10.5,0,0.33333333333333337,0.23333333333333336,0.1,1.1,10,match,36.05,342,354,367,379,0,9,9,9,9,0,,,,,0,0,0,0,0,8,8,1,,,,,num_4,1.8675798999902327,num_4,0.15,0.8,0.15,0.6,5.40644,21.62576,return,2.8139434000040637,,,,,,,8,22,female,up_down_width,2023_Aug_23_1358,exp1,2021.2.3,60.112843830676155,
,,,,,,,,,,,,,,,,4,8.65,9.55,10.45,11.35,0,0.9,0.5,0.4,3.1,10,initial,36.05,312,344,377,409,0,9,9,9,9,0,,,,,0,0,0,0,0,9,9,34,,,,,num_3,1.8080169999884674,num_3,0.2,1,0.3,0.7,10.81288,25.23005,return,3.890835199999856,,,,,,,8,22,female,up_down_width,2023_Aug_23_1358,exp1,2021.2.3,60.112843830676155,
,,,,,,,,,,,,,,,,4,9.425,9.808333333333334,10.191666666666666,10.575,0,0.3833333333333333,0.1333333333333333,0.25,1.4,10,match,36.05,340,354,367,381,0,9,9,9,9,0,,,,,0,0,0,0,0,10,10,5,,,,,num_3,1.3838447000016458,num_3,0.35,0.7,0.3,0.7,10.81288,25.23005,return,4.1916057000053115,,,,,,,8,22,female,up_down_width,2023_Aug_23_1358,exp1,2021.2.3,60.112843830676155,
,,,,,,,,,,,,,,,,4,9.3,9.766666666666667,10.233333333333333,10.7,0,0.4666666666666667,0.3666666666666667,0.1,1.5,10,match,36.05,335,352,369,386,0,9,9,9,9,0,,,,,0,0,0,0,0,11,11,7,,,,,num_4,1.4834782000107225,num_4,0.25,1.1,0.15000000000000002,0.6,5.40644,21.62576,return,3.726063100009924,,,,,,,8,22,female,up_down_width,2023_Aug_23_1358,exp1,2021.2.3,60.112843830676155,
,,,,,,,,,,,,,,,,4,9.5,9.833333333333334,10.166666666666666,10.5,0,0.3333333333333333,0.08333333333333333,0.25,1.25,10,match,36.05,342,354,367,379,0,9,9,9,9,0,,,,,0,0,0,0,0,12,12,3,,,,,num_4,1.3623685000056867,num_4,0.35,0.8,0.35,0.6,12.61502,21.62576,return,4.392564499998116,,,,,,,8,22,female,up_down_width,2023_Aug_23_1358,exp1,2021.2.3,60.112843830676155,
,,,,,,,,,,,,,,,,3,9.1,10,10.9,0,0,0.9,0.5,0.4,2.2,10,initial,36.05,328,361,393,0,0,9,9,9,0,0,,,,,0,0,0,0,0,13,13,16,,,,,num_3,1.57045859999198,num_3,0.3,1.3,0.25,0.55,9.01073,19.82361,return,6.098361399999703,,,,,,,8,22,female,up_down_width,2023_Aug_23_1358,exp1,2021.2.3,60.112843830676155,
,,,,,,,,,,,,,,,,3,8.2,10,11.8,0,0,1.8000000000000003,1.7000000000000002,0.1,3.7,10,match,36.05,296,361,425,0,0,9,9,9,0,0,,,,,0,0,0,0,0,14,14,49,,,,,num_2,1.490325999999186,num_2,0.2,1.6,0.10000000000000002,1.8,3.60429,64.87727,return,5.142996299997321,,,,,,,8,22,female,up_down_width,2023_Aug_23_1358,exp1,2021.2.3,60.112843830676155,
,,,,,,,,,,,,,,,,3,8.525,10,11.475,0,0,1.475,1.225,0.25,3.2,10,match,36.05,307,361,414,0,0,9,9,9,0,0,,,,,0,0,0,0,0,15,15,47,,,,,num_2,1.2639027999975951,num_2,0.15,1.6,0.15,1.6,5.40644,57.66869,return,1.2836420000094222,,,,,,,8,22,female,up_down_width,2023_Aug_23_1358,exp1,2021.2.3,60.112843830676155,
,,,,,,,,,,,,,,,,3,9.5,10,10.5,0,0,0.5,0.25,0.25,1.25,10,initial,36.05,342,361,379,0,0,9,9,9,0,0,,,,,0,0,0,0,0,16,16,2,,,,,num_3,1.1940885000076378,num_3,0.35,1.2,0.39999999999999997,0.95,14.41717,34.24078,return,4.376833100002841,,,,,,,8,22,female,up_down_width,2023_Aug_23_1358,exp1,2021.2.3,60.112843830676155,
,,,,,,,,,,,,,,,,4,8.65,9.55,10.45,11.35,0,0.9,0.65,0.25,2.95,10,initial,36.05,312,344,377,409,0,9,9,9,9,0,,,,,0,0,0,0,0,17,17,32,,,,,num_3,1.4661467999976594,num_3,0.3,0.9,0.25,0.9,9.01073,32.43864,return,2.799340800003847,,,,,,,8,22,female,up_down_width,2023_Aug_23_1358,exp1,2021.2.3,60.112843830676155,
,,,,,,,,,,,,,,,,5,8.95,9.475,10,10.525,11.05,0.525,0.42500000000000004,0.1,2.2,10,match,36.05,323,342,361,379,398,9,9,9,9,9,,,,,0,0,0,0,0,18,18,25,,,,,num_3,1.6827469999989262,num_3,0.2,1,0.15000000000000002,0.8,5.40644,28.83434,return,3.6924087000079453,,,,,,,8,22,female,up_down_width,2023_Aug_23_1358,exp1,2021.2.3,60.112843830676155,
,,,,,,,,,,,,,,,,5,9.25,9.625,10,10.375,10.75,0.375,0.275,0.1,1.6,10,match,36.05,333,347,361,374,388,9,9,9,9,9,,,,,0,0,0,0,0,19,19,19,,,,,num_3,1.6753689000033773,num_3,0.1,0.6,0.1,0.6,3.60429,21.62576,return,0.7589694999915082,,,,,,,8,22,female,up_down_width,2023_Aug_23_1358,exp1,2021.2.3,60.112843830676155,
,,,,,,,,,,,,,,,,4,8.95,9.65,10.35,11.05,0,0.7,0.29999999999999993,0.4,2.5,10,initial,36.05,323,348,373,398,0,9,9,9,9,0,,,,,0,0,0,0,0,20,20,28,,,,,num_3,1.5098137000022689,num_3,0.35,1.1,0.3,1.05,10.81288,37.84507,return,2.9953214999986812,,,,,,,8,22,female,up_down_width,2023_Aug_23_1358,exp1,2021.2.3,60.112843830676155,
,,,,,,,,,,,,,,,,5,8.95,9.475,10,10.525,11.05,0.525,0.125,0.4,2.5,10,match,36.05,323,342,361,379,398,9,9,9,9,9,,,,,0,0,0,0,0,21,21,29,,,,,num_4,1.8637655999918934,num_4,0.3,0.3,0.2,0.3,7.20859,10.81288,return,3.290182900003856,,,,,,,8,22,female,up_down_width,2023_Aug_23_1358,exp1,2021.2.3,60.112843830676155,
,,,,,,,,,,,,,,,,3,9.5,10,10.5,0,0,0.5,0.4,0.1,1.1,10,initial,36.05,342,361,379,0,0,9,9,9,0,0,,,,,0,0,0,0,0,22,22,0,,,,,num_3,1.4238422000053106,num_3,0.2,0.5,0.15000000000000002,0.5,5.40644,18.02146,return,1.5892805000039516,,,,,,,8,22,female,up_down_width,2023_Aug_23_1358,exp1,2021.2.3,60.112843830676155,
,,,,,,,,,,,,,,,,5,8.2,9.1,10,10.9,11.8,0.9,0.8,0.1,3.7,10,initial,36.05,296,328,361,393,425,9,9,9,9,9,,,,,0,0,0,0,0,23,23,48,,,,,num_4,1.5549238000094192,num_4,0.45,1.0,0.15000000000000008,1.0,5.40644,36.04293,return,2.6596248999994714,,,,,,,8,22,female,up_down_width,2023_Aug_23_1358,exp1,2021.2.3,60.112843830676155,
,,,,,,,,,,,,,,,,4,9.25,9.75,10.25,10.75,0,0.5,0.4,0.1,1.6,10,initial,36.05,333,351,370,388,0,9,9,9,9,0,,,,,0,0,0,0,0,24,24,18,,,,,num_3,1.8243981999985408,num_3,0.15,0.6,0.15000000000000002,0.6,5.40644,21.62576,return,6.486269899993204,,,,,,,8,22,female,up_down_width,2023_Aug_23_1358,exp1,2021.2.3,60.112843830676155,
,,,,,,,,,,,,,,,,5,8.65,9.325,10,10.675,11.35,0.675,0.42500000000000004,0.25,2.95,10,match,36.05,312,336,361,385,409,9,9,9,9,9,,,,,0,0,0,0,0,25,25,33,,,,,num_3,1.3927556999988155,num_3,0.2,0.4,0.15000000000000002,0.5,5.40644,18.02146,return,3.3593307999981334,,,,,,,8,22,female,up_down_width,2023_Aug_23_1358,exp1,2021.2.3,60.112843830676155,
,,,,,,,,,,,,,,,,5,9,9.5,10,10.5,11,0.5,0.09999999999999998,0.4,2.4,10,initial,36.05,324,342,361,379,397,9,9,9,9,9,,,,,0,0,0,0,0,26,26,40,,,,,num_4,1.042910899996059,num_4,0.3,1.0,0.25,0.6,9.01073,21.62576,return,5.332481799996458,,,,,,,8,22,female,up_down_width,2023_Aug_23_1358,exp1,2021.2.3,60.112843830676155,
,,,,,,,,,,,,,,,,3,8.6,10,11.4,0,0,1.4,1.15,0.25,3.05,10,match,36.05,310,361,411,0,0,9,9,9,0,0,,,,,0,0,0,0,0,27,27,45,,,,,num_3,1.404079300002195,num_3,0.2,0.5,0.2,0.6,7.20859,21.62576,return,2.735528899997007,,,,,,,8,22,female,up_down_width,2023_Aug_23_1358,exp1,2021.2.3,60.112843830676155,
,,,,,,,,,,,,,,,,4,9.25,9.75,10.25,10.75,0,0.5,0.25,0.25,1.75,10,initial,36.05,333,351,370,388,0,9,9,9,9,0,,,,,0,0,0,0,0,28,28,20,,,,,num_3,1.22421879999456,num_3,0.25,1.1,0.25,0.55,9.01073,19.82361,return,6.87066300000879,,,,,,,8,22,female,up_down_width,2023_Aug_23_1358,exp1,2021.2.3,60.112843830676155,
,,,,,,,,,,,,,,,,5,8.2,9.1,10,10.9,11.8,0.9,0.65,0.25,3.85,10,initial,36.05,296,328,361,393,425,9,9,9,9,9,,,,,0,0,0,0,0,29,29,50,,,,,num_4,1.620186800006195,num_4,0.15,0.7,0.2,0.5,7.20859,18.02146,return,3.938398900005268,,,,,,,8,22,female,up_down_width,2023_Aug_23_1358,exp1,2021.2.3,60.112843830676155,
,,,,,,,,,,,,,,,,3,9,10,11,0,0,0.9999999999999999,0.5999999999999999,0.4,2.4,10,match,36.05,324,361,397,0,0,9,9,9,0,0,,,,,0,0,0,0,0,30,30,41,,,,,num_3,1.2699161999917123,num_3,0.3,0.7,0.3,0.7,10.81288,25.23005,return,1.0704221000050893,,,,,,,8,22,female,up_down_width,2023_Aug_23_1358,exp1,2021.2.3,60.112843830676155,
,,,,,,,,,,,,,,,,5,8.2,9.1,10,10.9,11.8,0.9,0.5,0.4,4,10,initial,36.05,296,328,361,393,425,9,9,9,9,9,,,,,0,0,0,0,0,31,31,52,,,,,num_4,1.7579256999888457,num_4,0.1,1.0,0.35,0.6,12.61502,21.62576,return,3.446244700011448,,,,,,,8,22,female,up_down_width,2023_Aug_23_1358,exp1,2021.2.3,60.112843830676155,
,,,,,,,,,,,,,,,,5,8.95,9.475,10,10.525,11.05,0.525,0.275,0.25,2.35,10,match,36.05,323,342,361,379,398,9,9,9,9,9,,,,,0,0,0,0,0,32,32,27,,,,,num_4,1.1936397999961628,num_4,0.25,0.5,0.25,0.5,9.01073,18.02146,return,1.3211210999870673,,,,,,,8,22,female,up_down_width,2023_Aug_23_1358,exp1,2021.2.3,60.112843830676155,
,,,,,,,,,,,,,,,,5,9.175,9.5875,10,10.4125,10.825,0.4125,0.16249999999999998,0.25,1.9,10,match,36.05,331,346,361,375,390,9,9,9,9,9,,,,,0,0,0,0,0,33,33,23,,,,,num_4,1.6129471000022022,num_4,0.15,0.5,0.2,0.5,7.20859,18.02146,return,1.7075897000031546,,,,,,,8,22,female,up_down_width,2023_Aug_23_1358,exp1,2021.2.3,60.112843830676155,
,,,,,,,,,,,,,,,,3,9,10,11,0,0,1,0.9,0.1,2.1,10,match,36.05,324,361,397,0,0,9,9,9,0,0,,,,,0,0,0,0,0,34,34,37,,,,,num_3,1.2324678000004496,num_3,0.35,0.6,0.2,0.6,7.20859,21.62576,return,4.5264832000102615,,,,,,,8,22,female,up_down_width,2023_Aug_23_1358,exp1,2021.2.3,60.112843830676155,
,,,,,,,,,,,,,,,,4,9.3,9.766666666666667,10.233333333333333,10.7,0,0.4666666666666667,0.21666666666666665,0.25,1.65,10,match,36.05,335,352,369,386,0,9,9,9,9,0,,,,,0,0,0,0,0,35,35,9,,,,,num_4,1.6647520999977132,num_4,0.35,1.1,0.25,0.5,9.01073,18.02146,return,4.40624039999966,,,,,,,8,22,female,up_down_width,2023_Aug_23_1358,exp1,2021.2.3,60.112843830676155,
,,,,,,,,,,,,,,,,4,9.1,9.7,10.3,10.9,0,0.6,0.5,0.1,1.9,10,match,36.05,328,350,371,393,0,9,9,9,9,0,,,,,0,0,0,0,0,36,36,13,,,,,num_3,1.647865599996294,num_3,0.35,0.7,0.15000000000000002,0.55,5.40644,19.82361,return,2.7489158999960637,,,,,,,8,22,female,up_down_width,2023_Aug_23_1358,exp1,2021.2.3,60.112843830676155,
,,,,,,,,,,,,,,,,3,8.2,10,11.8,0,0,1.8,1.55,0.25,3.85,10,match,36.05,296,361,425,0,0,9,9,9,0,0,,,,,0,0,0,0,0,37,37,51,,,,,num_2,1.490440599998692,num_2,0.4,1.6,0.20000000000000007,1.7,7.20859,61.27298,return,2.3417907999973977,,,,,,,8,22,female,up_down_width,2023_Aug_23_1358,exp1,2021.2.3,60.112843830676155,
,,,,,,,,,,,,,,,,4,9.1,9.7,10.3,10.9,0,0.6000000000000001,0.20000000000000004,0.4,2.2,10,match,36.05,328,350,371,393,0,9,9,9,9,0,,,,,0,0,0,0,0,38,38,17,,,,,num_3,1.3847507999889785,num_3,0.1,0.5,0.25,0.45,9.01073,16.21932,return,3.072935400006827,,,,,,,8,22,female,up_down_width,2023_Aug_23_1358,exp1,2021.2.3,60.112843830676155,
,,,,,,,,,,,,,,,,5,9.25,9.625,10,10.375,10.75,0.375,0.125,0.25,1.75,10,match,36.05,333,347,361,374,388,9,9,9,9,9,,,,,0,0,0,0,0,39,39,21,,,,,num_4,1.2390761999995448,num_4,0.4,1.1,0.20000000000000007,0.5,7.20859,18.02146,return,4.24055089999456,,,,,,,8,22,female,up_down_width,2023_Aug_23_1358,exp1,2021.2.3,60.112843830676155,
,,,,,,,,,,,,,,,,3,9.3,10,10.7,0,0,0.7,0.44999999999999996,0.25,1.65,10,initial,36.05,335,361,386,0,0,9,9,9,0,0,,,,,0,0,0,0,0,40,40,8,,,,,num_3,1.3619031999987783,num_3,0.1,1.3,0.25,0.5,9.01073,18.02146,return,6.8871822000073735,,,,,,,8,22,female,up_down_width,2023_Aug_23_1358,exp1,2021.2.3,60.112843830676155,
,,,,,,,,,,,,,,,,5,9,9.5,10,10.5,11,0.5,0.25,0.25,2.25,10,initial,36.05,324,342,361,379,397,9,9,9,9,9,,,,,0,0,0,0,0,41,41,38,,,,,num_4,1.455636799990316,num_4,0.25,1.1,0.35,0.6,12.61502,21.62576,return,5.284547899995232,,,,,,,8,22,female,up_down_width,2023_Aug_23_1358,exp1,2021.2.3,60.112843830676155,
,,,,,,,,,,,,,,,,3,9.3,10,10.7,0,0,0.7,0.6,0.1,1.5,10,initial,36.05,335,361,386,0,0,9,9,9,0,0,,,,,0,0,0,0,0,42,42,6,,,,,num_3,1.5758999999961816,num_3,0.15,1.3,0.2,0.5,7.20859,18.02146,return,5.720377599995118,,,,,,,8,22,female,up_down_width,2023_Aug_23_1358,exp1,2021.2.3,60.112843830676155,
,,,,,,,,,,,,,,,,3,9.1,10,10.9,0,0,0.9,0.65,0.25,2.05,10,initial,36.05,328,361,393,0,0,9,9,9,0,0,,,,,0,0,0,0,0,43,43,14,,,,,num_2,1.6612604999972973,num_2,0.35,1.6,0.3,0.6,10.81288,21.62576,return,4.900998900004197,,,,,,,8,22,female,up_down_width,2023_Aug_23_1358,exp1,2021.2.3,60.112843830676155,
,,,,,,,,,,,,,,,,4,9.1,9.7,10.3,10.9,0,0.5999999999999999,0.3499999999999999,0.25,2.05,10,match,36.05,328,350,371,393,0,9,9,9,9,0,,,,,0,0,0,0,0,44,44,15,,,,,num_4,0.9901879999961238,num_4,0.35,0.8,0.25,0.4,9.01073,14.41717,return,3.205766400002176,,,,,,,8,22,female,up_down_width,2023_Aug_23_1358,exp1,2021.2.3,60.112843830676155,
,,,,,,,,,,,,,,,,3,9.3,10,10.7,0,0,0.7,0.29999999999999993,0.4,1.8,10,initial,36.05,335,361,386,0,0,9,9,9,0,0,,,,,0,0,0,0,0,45,45,10,,,,,num_2,1.2949579999985872,num_2,0.1,1.6,0.3,0.6,10.81288,21.62576,return,5.498942799997167,,,,,,,8,22,female,up_down_width,2023_Aug_23_1358,exp1,2021.2.3,60.112843830676155,
,,,,,,,,,,,,,,,,4,8.65,9.55,10.45,11.35,0,0.9,0.8,0.1,2.8000000000000003,10,initial,36.05,312,344,377,409,0,9,9,9,9,0,,,,,0,0,0,0,0,46,46,30,,,,,num_3,1.1687552000075812,num_3,0.25,0.5,0.15000000000000002,0.65,5.40644,23.4279,return,3.490019700009725,,,,,,,8,22,female,up_down_width,2023_Aug_23_1358,exp1,2021.2.3,60.112843830676155,
,,,,,,,,,,,,,,,,5,8.6,9.3,10,10.7,11.4,0.7,0.6,0.1,2.9,10,initial,36.05,310,335,361,386,411,9,9,9,9,9,,,,,0,0,0,0,0,47,47,42,,,,,num_4,1.2081464999937452,num_4,0.15,0.3,0.09999999999999999,0.5,3.60429,18.02146,return,3.5086467000073753,,,,,,,8,22,female,up_down_width,2023_Aug_23_1358,exp1,2021.2.3,60.112843830676155,
,,,,,,,,,,,,,,,,5,9,9.5,10,10.5,11,0.5,0.4,0.1,2.1,10,initial,36.05,324,342,361,379,397,9,9,9,9,9,,,,,0,0,0,0,0,48,48,36,,,,,num_4,1.2748021000006702,num_4,0.4,0.7,0.15000000000000008,0.6,5.40644,21.62576,return,3.20543170000019,,,,,,,8,22,female,up_down_width,2023_Aug_23_1358,exp1,2021.2.3,60.112843830676155,
,,,,,,,,,,,,,,,,5,8.6,9.3,10,10.7,11.4,0.7,0.44999999999999996,0.25,3.05,10,initial,36.05,310,335,361,386,411,9,9,9,9,9,,,,,0,0,0,0,0,49,49,44,,,,,num_4,0.9986158999963664,num_4,0.35,1.2,0.2,0.7,7.20859,25.23005,return,5.18154649999633,,,,,,,8,22,female,up_down_width,2023_Aug_23_1358,exp1,2021.2.3,60.112843830676155,
,,,,,,,,,,,,,,,,4,8.95,9.65,10.35,11.05,0,0.7,0.6,0.1,2.1999999999999997,10,initial,36.05,323,348,373,398,0,9,9,9,9,0,,,,,0,0,0,0,0,50,50,24,,,,,num_4,1.2333265000052052,num_4,0.1,0.6,0.1,0.6,3.60429,21.62576,return,0.8146125999919605,,,,,,,8,22,female,up_down_width,2023_Aug_23_1358,exp1,2021.2.3,60.112843830676155,
,,,,,,,,,,,,,,,,3,9.5,10,10.5,0,0,0.5,0.09999999999999998,0.4,1.4000000000000001,10,initial,36.05,342,361,379,0,0,9,9,9,0,0,,,,,0,0,0,0,0,51,51,4,,,,,num_3,1.7332655999925919,num_3,0.35,1.1,0.2,0.6,7.20859,21.62576,return,5.055171600004542,,,,,,,8,22,female,up_down_width,2023_Aug_23_1358,exp1,2021.2.3,60.112843830676155,
,,,,,,,,,,,,,,,,5,8.6,9.3,10,10.7,11.4,0.7,0.29999999999999993,0.4,3.1999999999999997,10,initial,36.05,310,335,361,386,411,9,9,9,9,9,,,,,0,0,0,0,0,52,52,46,,,,,num_4,1.371350599991274,num_4,0.3,0.8,0.3,0.6,10.81288,21.62576,return,4.018998900006409,,,,,,,8,22,female,up_down_width,2023_Aug_23_1358,exp1,2021.2.3,60.112843830676155,
,,,,,,,,,,,,,,,,3,8.6,10,11.4,0,0,1.4,1.2999999999999998,0.1,2.9,10,match,36.05,310,361,411,0,0,9,9,9,0,0,,,,,0,0,0,0,0,53,53,43,,,,,num_3,1.31143119999615,num_3,0.2,1,0.25,0.75,9.01073,27.0322,return,6.362518900001305,,,,,,,8,22,female,up_down_width,2023_Aug_23_1358,exp1,2021.2.3,60.112843830676155,
,,,,,,,,,,,,,,,,,,,,,,,,,,,,,,,,,,,,,,,,,,,0,0,0,0,,,,,,,,,,,,,,,,,,,,,,764.8711211000045,None,764.8711211000045,None,8,22,female,up_down_width,2023_Aug_23_1358,exp1,2021.2.3,60.112843830676155,
,,,,,,,,,,,,,,,,3,9.3,10,10.7,0,0,0.7,0.44999999999999996,0.25,1.65,10,initial,36.05,335,361,386,0,0,9,9,9,0,0,,,,,1,0,1,0,0,0,0,8,,,,,num_3,1.3782073999900604,num_3,0.35,0.8,0.3,0.7,10.81288,25.23005,return,3.8013923999969848,,,,,,,8,22,female,up_down_width,2023_Aug_23_1358,exp1,2021.2.3,60.112843830676155,
,,,,,,,,,,,,,,,,3,9.3,10,10.7,0,0,0.7,0.29999999999999993,0.4,1.8,10,initial,36.05,335,361,386,0,0,9,9,9,0,0,,,,,1,0,1,0,0,1,1,10,,,,,num_4,1.4650202000048012,num_4,0.2,0.9,0.35,0.7,12.61502,25.23005,return,3.1013227999937953,,,,,,,8,22,female,up_down_width,2023_Aug_23_1358,exp1,2021.2.3,60.112843830676155,
,,,,,,,,,,,,,,,,5,9,9.5,10,10.5,11,0.5,0.25,0.25,2.25,10,initial,36.05,324,342,361,379,397,9,9,9,9,9,,,,,1,0,1,0,0,2,2,38,,,,,num_4,1.0223154999985127,num_4,0.25,1.1,0.25,0.6,9.01073,21.62576,return,4.244567499990808,,,,,,,8,22,female,up_down_width,2023_Aug_23_1358,exp1,2021.2.3,60.112843830676155,
,,,,,,,,,,,,,,,,4,9.5,9.833333333333334,10.166666666666666,10.5,0,0.3333333333333333,0.08333333333333333,0.25,1.25,10,match,36.05,342,354,367,379,0,9,9,9,9,0,,,,,1,0,1,0,0,3,3,3,,,,,num_3,2.2528365000034682,num_3,0.45,1.3,0.25000000000000006,0.6,9.01073,21.62576,return,5.533894300009706,,,,,,,8,22,female,up_down_width,2023_Aug_23_1358,exp1,2021.2.3,60.112843830676155,
,,,,,,,,,,,,,,,,3,9,10,11,0,0,1,0.75,0.25,2.25,10,match,36.05,324,361,397,0,0,9,9,9,0,0,,,,,1,0,1,0,0,4,4,39,,,,,num_3,1.5891143000044394,num_3,0.2,1.2,0.25,0.85,9.01073,30.63649,return,4.1164801999984775,,,,,,,8,22,female,up_down_width,2023_Aug_23_1358,exp1,2021.2.3,60.112843830676155,
,,,,,,,,,,,,,,,,4,9.1,9.7,10.3,10.9,0,0.5999999999999999,0.3499999999999999,0.25,2.05,10,match,36.05,328,350,371,393,0,9,9,9,9,0,,,,,1,0,1,0,0,5,5,15,,,,,num_4,1.0102208000025712,num_4,0.15,1.3,0.25,0.6,9.01073,21.62576,return,4.919602100009797,,,,,,,8,22,female,up_down_width,2023_Aug_23_1358,exp1,2021.2.3,60.112843830676155,
,,,,,,,,,,,,,,,,3,9,10,11,0,0,0.9999999999999999,0.5999999999999999,0.4,2.4,10,match,36.05,324,361,397,0,0,9,9,9,0,0,,,,,1,0,1,0,0,6,6,41,,,,,num_3,1.2366286000033142,num_3,0.4,0.9,0.35000000000000003,0.9,12.61502,32.43864,return,5.070926100001088,,,,,,,8,22,female,up_down_width,2023_Aug_23_1358,exp1,2021.2.3,60.112843830676155,
,,,,,,,,,,,,,,,,4,8.95,9.65,10.35,11.05,0,0.7,0.6,0.1,2.1999999999999997,10,initial,36.05,323,348,373,398,0,9,9,9,9,0,,,,,1,0,1,0,0,7,7,24,,,,,num_4,0.9993908000033116,num_4,0.4,1.3,0.20000000000000007,0.7,7.20859,25.23005,return,6.317521599994507,,,,,,,8,22,female,up_down_width,2023_Aug_23_1358,exp1,2021.2.3,60.112843830676155,
,,,,,,,,,,,,,,,,4,9.1,9.7,10.3,10.9,0,0.6000000000000001,0.20000000000000004,0.4,2.2,10,match,36.05,328,350,371,393,0,9,9,9,9,0,,,,,1,0,1,0,0,8,8,17,,,,,num_4,2.1309705000021495,num_4,0.15,0.4,0.25,0.7,9.01073,25.23005,return,3.580222299991874,,,,,,,8,22,female,up_down_width,2023_Aug_23_1358,exp1,2021.2.3,60.112843830676155,
,,,,,,,,,,,,,,,,5,8.65,9.325,10,10.675,11.35,0.675,0.275,0.4,3.1,10,match,36.05,312,336,361,385,409,9,9,9,9,9,,,,,1,0,1,0,0,9,9,35,,,,,num_4,1.0762959999992745,num_4,0.3,1.3,0.3,0.7,10.81288,25.23005,return,5.223447500000475,,,,,,,8,22,female,up_down_width,2023_Aug_23_1358,exp1,2021.2.3,60.112843830676155,
,,,,,,,,,,,,,,,,3,9.3,10,10.7,0,0,0.7,0.6,0.1,1.5,10,initial,36.05,335,361,386,0,0,9,9,9,0,0,,,,,1,0,1,0,0,10,10,6,,,,,num_3,3.4654104999935953,num_3,0.1,0.6,0.15000000000000002,0.6,5.40644,21.62576,return,1.7256794999993872,,,,,,,8,22,female,up_down_width,2023_Aug_23_1358,exp1,2021.2.3,60.112843830676155,
,,,,,,,,,,,,,,,,5,9.25,9.625,10,10.375,10.75,0.375,0.275,0.1,1.6,10,match,36.05,333,347,361,374,388,9,9,9,9,9,,,,,1,0,1,0,0,11,11,19,,,,,num_4,1.2795749999932013,num_4,0.35,1.2,0.3,0.7,10.81288,25.23005,return,6.153861300001154,,,,,,,8,22,female,up_down_width,2023_Aug_23_1358,exp1,2021.2.3,60.112843830676155,
,,,,,,,,,,,,,,,,4,8.65,9.55,10.45,11.35,0,0.9,0.65,0.25,2.95,10,initial,36.05,312,344,377,409,0,9,9,9,9,0,,,,,1,0,1,0,0,12,12,32,,,,,num_4,1.5581910999899264,num_4,0.15,1.1,0.2,0.6,7.20859,21.62576,return,3.893576000002213,,,,,,,8,22,female,up_down_width,2023_Aug_23_1358,exp1,2021.2.3,60.112843830676155,
,,,,,,,,,,,,,,,,4,9.5,9.833333333333334,10.166666666666666,10.5,0,0.33333333333333337,0.23333333333333336,0.1,1.1,10,match,36.05,342,354,367,379,0,9,9,9,9,0,,,,,1,0,1,0,0,13,13,1,,,,,num_3,1.7777101999963634,num_3,0.1,0.9,0.2,0.65,7.20859,23.4279,return,5.029534999994212,,,,,,,8,22,female,up_down_width,2023_Aug_23_1358,exp1,2021.2.3,60.112843830676155,
,,,,,,,,,,,,,,,,3,8.2,10,11.8,0,0,1.8,1.55,0.25,3.85,10,match,36.05,296,361,425,0,0,9,9,9,0,0,,,,,1,0,1,0,0,14,14,51,,,,,num_3,1.3347311999968952,num_3,0.15,0.4,0.2,1.1,7.20859,39.64722,return,7.0558805000036955,,,,,,,8,22,female,up_down_width,2023_Aug_23_1358,exp1,2021.2.3,60.112843830676155,
,,,,,,,,,,,,,,,,5,8.65,9.325,10,10.675,11.35,0.6749999999999999,0.575,0.1,2.8,10,match,36.05,312,336,361,385,409,9,9,9,9,9,,,,,1,0,1,0,0,15,15,31,,,,,num_4,1.1667430000088643,num_4,0.2,0.6,0.15000000000000002,1.0,5.40644,36.04293,return,5.006528199999593,,,,,,,8,22,female,up_down_width,2023_Aug_23_1358,exp1,2021.2.3,60.112843830676155,
,,,,,,,,,,,,,,,,4,9.25,9.75,10.25,10.75,0,0.5,0.4,0.1,1.6,10,initial,36.05,333,351,370,388,0,9,9,9,9,0,,,,,1,0,1,0,0,16,16,18,,,,,num_4,1.3795347999985097,num_4,0.25,1.1,0.2,0.9,7.20859,32.43864,return,3.994470999998157,,,,,,,8,22,female,up_down_width,2023_Aug_23_1358,exp1,2021.2.3,60.112843830676155,
,,,,,,,,,,,,,,,,3,8.2,10,11.8,0,0,1.8000000000000003,1.7000000000000002,0.1,3.7,10,match,36.05,296,361,425,0,0,9,9,9,0,0,,,,,1,0,1,0,0,17,17,49,,,,,num_3,1.4482611999992514,num_3,0.1,0.8,0.1,1.2,3.60429,43.25151,return,5.611399900008109,,,,,,,8,22,female,up_down_width,2023_Aug_23_1358,exp1,2021.2.3,60.112843830676155,
,,,,,,,,,,,,,,,,4,8.95,9.65,10.35,11.05,0,0.7,0.44999999999999996,0.25,2.3499999999999996,10,initial,36.05,323,348,373,398,0,9,9,9,9,0,,,,,1,0,1,0,0,18,18,26,,,,,num_2,2.397364499993273,num_2,0.45,1.6,0.30000000000000004,1.1,10.81288,39.64722,return,9.212342500002705,,,,,,,8,22,female,up_down_width,2023_Aug_23_1358,exp1,2021.2.3,60.112843830676155,
,,,,,,,,,,,,,,,,3,9.5,10,10.5,0,0,0.5,0.25,0.25,1.25,10,initial,36.05,342,361,379,0,0,9,9,9,0,0,,,,,1,0,1,0,0,19,19,2,,,,,num_2,1.3089370999950916,num_2,0.15,1.6,0.3,0.9,10.81288,32.43864,return,4.054786600012449,,,,,,,8,22,female,up_down_width,2023_Aug_23_1358,exp1,2021.2.3,60.112843830676155,
,,,,,,,,,,,,,,,,4,8.65,9.55,10.45,11.35,0,0.9,0.5,0.4,3.1,10,initial,36.05,312,344,377,409,0,9,9,9,9,0,,,,,1,0,1,0,0,20,20,34,,,,,num_3,1.6756045000074664,num_3,0.35,0.6,0.25,0.8,9.01073,28.83434,return,8.11886859999504,,,,,,,8,22,female,up_down_width,2023_Aug_23_1358,exp1,2021.2.3,60.112843830676155,
,,,,,,,,,,,,,,,,4,9.3,9.766666666666667,10.233333333333333,10.7,0,0.4666666666666667,0.06666666666666665,0.4,1.8,10,match,36.05,335,352,369,386,0,9,9,9,9,0,,,,,1,0,1,0,0,21,21,11,,,,,num_2,2.3796561999915866,num_2,0.15,1.6,0.3,0.6,10.81288,21.62576,return,7.5462813999911305,,,,,,,8,22,female,up_down_width,2023_Aug_23_1358,exp1,2021.2.3,60.112843830676155,
,,,,,,,,,,,,,,,,4,8.95,9.65,10.35,11.05,0,0.7,0.29999999999999993,0.4,2.5,10,initial,36.05,323,348,373,398,0,9,9,9,9,0,,,,,1,0,1,0,0,22,22,28,,,,,num_3,2.080268399993656,num_3,0.1,1.2,0.25,0.55,9.01073,19.82361,return,7.402737999989768,,,,,,,8,22,female,up_down_width,2023_Aug_23_1358,exp1,2021.2.3,60.112843830676155,
,,,,,,,,,,,,,,,,5,8.2,9.1,10,10.9,11.8,0.9,0.5,0.4,4,10,initial,36.05,296,328,361,393,425,9,9,9,9,9,,,,,1,0,1,0,0,23,23,52,,,,,num_3,1.595010800010641,num_3,0.3,1,0.39999999999999997,0.8,14.41717,28.83434,return,4.184970300004352,,,,,,,8,22,female,up_down_width,2023_Aug_23_1358,exp1,2021.2.3,60.112843830676155,
,,,,,,,,,,,,,,,,4,9.3,9.766666666666667,10.233333333333333,10.7,0,0.4666666666666667,0.3666666666666667,0.1,1.5,10,match,36.05,335,352,369,386,0,9,9,9,9,0,,,,,1,0,1,0,0,24,24,7,,,,,num_3,1.9295396000088658,num_3,0.15,0.5,0.15,0.5,5.40644,18.02146,return,0.8581567999935942,,,,,,,8,22,female,up_down_width,2023_Aug_23_1358,exp1,2021.2.3,60.112843830676155,
,,,,,,,,,,,,,,,,4,9.1,9.7,10.3,10.9,0,0.6,0.5,0.1,1.9,10,match,36.05,328,350,371,393,0,9,9,9,9,0,,,,,1,0,1,0,0,25,25,13,,,,,num_3,2.8736636999965413,num_3,0.15,0.7,0.15,0.7,5.40644,25.23005,return,1.988642800002708,,,,,,,8,22,female,up_down_width,2023_Aug_23_1358,exp1,2021.2.3,60.112843830676155,
,,,,,,,,,,,,,,,,5,8.2,9.1,10,10.9,11.8,0.9,0.8,0.1,3.7,10,initial,36.05,296,328,361,393,425,9,9,9,9,9,,,,,1,0,1,0,0,26,26,48,,,,,num_3,2.264283600001363,num_3,0.15,1.2,0.15,1.15,5.40644,41.44937,return,2.1078967999928864,,,,,,,8,22,female,up_down_width,2023_Aug_23_1358,exp1,2021.2.3,60.112843830676155,
,,,,,,,,,,,,,,,,5,8.95,9.475,10,10.525,11.05,0.525,0.275,0.25,2.35,10,match,36.05,323,342,361,379,398,9,9,9,9,9,,,,,1,0,1,0,0,27,27,27,,,,,num_3,2.644984700003988,num_3,0.1,1.1,0.2,0.55,7.20859,19.82361,return,4.745014200001606,,,,,,,8,22,female,up_down_width,2023_Aug_23_1358,exp1,2021.2.3,60.112843830676155,
,,,,,,,,,,,,,,,,4,9.425,9.808333333333334,10.191666666666666,10.575,0,0.3833333333333333,0.1333333333333333,0.25,1.4,10,match,36.05,340,354,367,381,0,9,9,9,9,0,,,,,1,0,1,0,0,28,28,5,,,,,num_3,1.7049254000012297,num_3,0.1,0.6,0.2,0.45,7.20859,16.21932,return,4.864598699990893,,,,,,,8,22,female,up_down_width,2023_Aug_23_1358,exp1,2021.2.3,60.112843830676155,
,,,,,,,,,,,,,,,,3,9.1,10,10.9,0,0,0.9,0.5,0.4,2.2,10,initial,36.05,328,361,393,0,0,9,9,9,0,0,,,,,1,0,1,0,0,29,29,16,,,,,num_3,3.4316589000081876,num_3,0.1,0.3,0.25,0.5,9.01073,18.02146,return,6.381140800003777,,,,,,,8,22,female,up_down_width,2023_Aug_23_1358,exp1,2021.2.3,60.112843830676155,
,,,,,,,,,,,,,,,,5,8.95,9.475,10,10.525,11.05,0.525,0.42500000000000004,0.1,2.2,10,match,36.05,323,342,361,379,398,9,9,9,9,9,,,,,1,0,1,0,0,30,30,25,,,,,num_3,2.8208695000066655,num_3,0.4,1.2,0.25000000000000006,0.65,9.01073,23.4279,return,5.954133699997328,,,,,,,8,22,female,up_down_width,2023_Aug_23_1358,exp1,2021.2.3,60.112843830676155,
,,,,,,,,,,,,,,,,5,9,9.5,10,10.5,11,0.5,0.09999999999999998,0.4,2.4,10,initial,36.05,324,342,361,379,397,9,9,9,9,9,,,,,1,0,1,0,0,31,31,40,,,,,num_3,1.909612700008438,num_3,0.35,0.9,0.3,0.6,10.81288,21.62576,return,4.919345300004352,,,,,,,8,22,female,up_down_width,2023_Aug_23_1358,exp1,2021.2.3,60.112843830676155,
,,,,,,,,,,,,,,,,3,9.1,10,10.9,0,0,0.9,0.65,0.25,2.05,10,initial,36.05,328,361,393,0,0,9,9,9,0,0,,,,,1,0,1,0,0,32,32,14,,,,,num_2,1.8040973000024678,num_2,0.4,1.6,0.30000000000000004,0.6,10.81288,21.62576,return,7.394574599995394,,,,,,,8,22,female,up_down_width,2023_Aug_23_1358,exp1,2021.2.3,60.112843830676155,
,,,,,,,,,,,,,,,,5,8.65,9.325,10,10.675,11.35,0.675,0.42500000000000004,0.25,2.95,10,match,36.05,312,336,361,385,409,9,9,9,9,9,,,,,1,0,1,0,0,33,33,33,,,,,num_3,2.033634399995208,num_3,0.1,0.5,0.2,0.45,7.20859,16.21932,return,2.398365000000922,,,,,,,8,22,female,up_down_width,2023_Aug_23_1358,exp1,2021.2.3,60.112843830676155,
,,,,,,,,,,,,,,,,5,8.2,9.1,10,10.9,11.8,0.9,0.65,0.25,3.85,10,initial,36.05,296,328,361,393,425,9,9,9,9,9,,,,,1,0,1,0,0,34,34,50,,,,,num_3,1.6343741999880876,num_3,0.15,0.6,0.2,0.6,7.20859,21.62576,return,1.6794414000032702,,,,,,,8,22,female,up_down_width,2023_Aug_23_1358,exp1,2021.2.3,60.112843830676155,
,,,,,,,,,,,,,,,,3,9,10,11,0,0,1,0.9,0.1,2.1,10,match,36.05,324,361,397,0,0,9,9,9,0,0,,,,,1,0,1,0,0,35,35,37,,,,,num_1,1.3415428000007523,num_1,0.35,9999,0.39999999999999997,9999,14.41717,360393.24009,return,4.3897930000093766,,,,,,,8,22,female,up_down_width,2023_Aug_23_1358,exp1,2021.2.3,60.112843830676155,
,,,,,,,,,,,,,,,,5,8.95,9.475,10,10.525,11.05,0.525,0.125,0.4,2.5,10,match,36.05,323,342,361,379,398,9,9,9,9,9,,,,,1,0,1,0,0,36,36,29,,,,,num_3,1.8694815000053495,num_3,0.1,1.1,0.3,0.75,10.81288,27.0322,return,4.352944900005241,,,,,,,8,22,female,up_down_width,2023_Aug_23_1358,exp1,2021.2.3,60.112843830676155,
,,,,,,,,,,,,,,,,5,9.175,9.5875,10,10.4125,10.825,0.4125,0.16249999999999998,0.25,1.9,10,match,36.05,331,346,361,375,390,9,9,9,9,9,,,,,1,0,1,0,0,37,37,23,,,,,num_4,1.5963310000079218,num_4,0.25,1.0,0.3,0.6,10.81288,21.62576,return,4.443712000007508,,,,,,,8,22,female,up_down_width,2023_Aug_23_1358,exp1,2021.2.3,60.112843830676155,
,,,,,,,,,,,,,,,,3,9.5,10,10.5,0,0,0.5,0.09999999999999998,0.4,1.4000000000000001,10,initial,36.05,342,361,379,0,0,9,9,9,0,0,,,,,1,0,1,0,0,38,38,4,,,,,num_2,1.362294100006693,num_2,0.2,1.6,0.25,0.4,9.01073,14.41717,return,5.194279000003007,,,,,,,8,22,female,up_down_width,2023_Aug_23_1358,exp1,2021.2.3,60.112843830676155,
,,,,,,,,,,,,,,,,3,8.525,10,11.475,0,0,1.475,1.225,0.25,3.2,10,match,36.05,307,361,414,0,0,9,9,9,0,0,,,,,1,0,1,0,0,39,39,47,,,,,num_2,1.195666200001142,num_2,0.3,1.6,0.3,1.2,10.81288,43.25151,return,2.2492455000028713,,,,,,,8,22,female,up_down_width,2023_Aug_23_1358,exp1,2021.2.3,60.112843830676155,
,,,,,,,,,,,,,,,,5,8.6,9.3,10,10.7,11.4,0.7,0.29999999999999993,0.4,3.1999999999999997,10,initial,36.05,310,335,361,386,411,9,9,9,9,9,,,,,1,0,1,0,0,40,40,46,,,,,num_3,1.4576443999976618,num_3,0.45,1.2,0.45,0.8,16.21932,28.83434,return,5.364808300000732,,,,,,,8,22,female,up_down_width,2023_Aug_23_1358,exp1,2021.2.3,60.112843830676155,
,,,,,,,,,,,,,,,,3,9.1,10,10.9,0,0,0.9,0.8,0.1,1.9000000000000001,10,initial,36.05,328,361,393,0,0,9,9,9,0,0,,,,,1,0,1,0,0,41,41,12,,,,,num_2,1.3143157000013161,num_2,0.1,1.6,0.2,0.7,7.20859,25.23005,return,4.636144100004458,,,,,,,8,22,female,up_down_width,2023_Aug_23_1358,exp1,2021.2.3,60.112843830676155,
,,,,,,,,,,,,,,,,4,8.65,9.55,10.45,11.35,0,0.9,0.8,0.1,2.8000000000000003,10,initial,36.05,312,344,377,409,0,9,9,9,9,0,,,,,1,0,1,0,0,42,42,30,,,,,num_3,1.2037715999904322,num_3,0.15,0.3,0.15,0.45,5.40644,16.21932,return,5.822950100002345,,,,,,,8,22,female,up_down_width,2023_Aug_23_1358,exp1,2021.2.3,60.112843830676155,
,,,,,,,,,,,,,,,,4,9.25,9.75,10.25,10.75,0,0.5,0.25,0.25,1.75,10,initial,36.05,333,351,370,388,0,9,9,9,9,0,,,,,1,0,1,0,0,43,43,20,,,,,num_3,1.1388659999938682,num_3,0.2,1,0.25,0.6,9.01073,21.62576,return,3.6524618999974336,,,,,,,8,22,female,up_down_width,2023_Aug_23_1358,exp1,2021.2.3,60.112843830676155,
,,,,,,,,,,,,,,,,5,9.25,9.625,10,10.375,10.75,0.375,0.125,0.25,1.75,10,match,36.05,333,347,361,374,388,9,9,9,9,9,,,,,1,0,1,0,0,44,44,21,,,,,num_4,1.3168164999951841,num_4,0.3,0.8,0.25,0.5,9.01073,18.02146,return,3.6150756999995792,,,,,,,8,22,female,up_down_width,2023_Aug_23_1358,exp1,2021.2.3,60.112843830676155,
,,,,,,,,,,,,,,,,5,8.6,9.3,10,10.7,11.4,0.7,0.6,0.1,2.9,10,initial,36.05,310,335,361,386,411,9,9,9,9,9,,,,,1,0,1,0,0,45,45,42,,,,,num_4,1.1316837000049418,num_4,0.45,0.5,0.15000000000000008,0.6,5.40644,21.62576,return,5.883516900008544,,,,,,,8,22,female,up_down_width,2023_Aug_23_1358,exp1,2021.2.3,60.112843830676155,
,,,,,,,,,,,,,,,,3,9.5,10,10.5,0,0,0.5,0.4,0.1,1.1,10,initial,36.05,342,361,379,0,0,9,9,9,0,0,,,,,1,0,1,0,0,46,46,0,,,,,num_2,1.3167741000070237,num_2,0.35,1.6,0.2,0.5,7.20859,18.02146,return,5.470890899989172,,,,,,,8,22,female,up_down_width,2023_Aug_23_1358,exp1,2021.2.3,60.112843830676155,
,,,,,,,,,,,,,,,,5,9,9.5,10,10.5,11,0.5,0.4,0.1,2.1,10,initial,36.05,324,342,361,379,397,9,9,9,9,9,,,,,1,0,1,0,0,47,47,36,,,,,num_3,1.0140743000083603,num_3,0.15,0.8,0.15,0.5,5.40644,18.02146,return,3.228029499994591,,,,,,,8,22,female,up_down_width,2023_Aug_23_1358,exp1,2021.2.3,60.112843830676155,
,,,,,,,,,,,,,,,,3,8.6,10,11.4,0,0,1.4,1.2999999999999998,0.1,2.9,10,match,36.05,310,361,411,0,0,9,9,9,0,0,,,,,1,0,1,0,0,48,48,43,,,,,num_2,2.499450199989951,num_2,0.45,1.6,0.25000000000000006,0.7,9.01073,25.23005,return,5.966170300001977,,,,,,,8,22,female,up_down_width,2023_Aug_23_1358,exp1,2021.2.3,60.112843830676155,
,,,,,,,,,,,,,,,,4,9.3,9.766666666666667,10.233333333333333,10.7,0,0.4666666666666667,0.21666666666666665,0.25,1.65,10,match,36.05,335,352,369,386,0,9,9,9,9,0,,,,,1,0,1,0,0,49,49,9,,,,,num_4,1.7888040999969235,num_4,0.3,1.0,0.2,0.6,7.20859,21.62576,return,3.892439800009015,,,,,,,8,22,female,up_down_width,2023_Aug_23_1358,exp1,2021.2.3,60.112843830676155,
,,,,,,,,,,,,,,,,3,8.6,10,11.4,0,0,1.4,1.15,0.25,3.05,10,match,36.05,310,361,411,0,0,9,9,9,0,0,,,,,1,0,1,0,0,50,50,45,,,,,num_2,1.3013075000053504,num_2,0.45,1.6,0.25000000000000006,0.6,9.01073,21.62576,return,7.791567199994461,,,,,,,8,22,female,up_down_width,2023_Aug_23_1358,exp1,2021.2.3,60.112843830676155,
,,,,,,,,,,,,,,,,5,8.6,9.3,10,10.7,11.4,0.7,0.44999999999999996,0.25,3.05,10,initial,36.05,310,335,361,386,411,9,9,9,9,9,,,,,1,0,1,0,0,51,51,44,,,,,num_3,1.4923031000071205,num_3,0.3,0.7,0.2,0.55,7.20859,19.82361,return,3.7834902000031434,,,,,,,8,22,female,up_down_width,2023_Aug_23_1358,exp1,2021.2.3,60.112843830676155,
,,,,,,,,,,,,,,,,4,9.25,9.75,10.25,10.75,0,0.5,0.09999999999999998,0.4,1.9,10,initial,36.05,333,351,370,388,0,9,9,9,9,0,,,,,1,0,1,0,0,52,52,22,,,,,num_4,1.3027961000043433,num_4,0.3,1.0,0.25,0.5,9.01073,18.02146,return,3.7288480999995954,,,,,,,8,22,female,up_down_width,2023_Aug_23_1358,exp1,2021.2.3,60.112843830676155,
,,,,,,,,,,,,,,,,3,8.2,10,11.8,0,0,1.7999999999999998,1.4,0.4,4,10,match,36.05,296,361,425,0,0,9,9,9,0,0,,,,,1,0,1,0,0,53,53,53,,,,,num_2,1.2088656999985687,num_2,0.15,1.6,0.35,0.8,12.61502,28.83434,return,4.183040999996592,,,,,,,8,22,female,up_down_width,2023_Aug_23_1358,exp1,2021.2.3,60.112843830676155,
,,,,,,,,,,,,,,,,,,,,,,,,,,,,,,,,,,,,,,,,,,,1,0,1,0,,,,,,,,,,,,,,,,,,,,,,1283.9509178000008,None,1283.9509178000008,None,8,22,female,up_down_width,2023_Aug_23_1358,exp1,2021.2.3,60.112843830676155,
,,,,,,,,,,,,,,,,3,8.525,10,11.475,0,0,1.475,1.225,0.25,3.2,10,match,36.05,307,361,414,0,0,9,9,9,0,0,,,,,2,0,2,0,0,0,0,47,,,,,num_2,1.0874598999944283,num_2,0.3,1.6,0.35,0.9,12.61502,32.43864,return,3.4427187999972375,,,,,,,8,22,female,up_down_width,2023_Aug_23_1358,exp1,2021.2.3,60.112843830676155,
,,,,,,,,,,,,,,,,3,9.3,10,10.7,0,0,0.7,0.44999999999999996,0.25,1.65,10,initial,36.05,335,361,386,0,0,9,9,9,0,0,,,,,2,0,2,0,0,1,1,8,,,,,num_2,1.7335071999987122,num_2,0.45,1.6,0.30000000000000004,0.9,10.81288,32.43864,return,5.2757315000053495,,,,,,,8,22,female,up_down_width,2023_Aug_23_1358,exp1,2021.2.3,60.112843830676155,
,,,,,,,,,,,,,,,,5,8.2,9.1,10,10.9,11.8,0.9,0.65,0.25,3.85,10,initial,36.05,296,328,361,393,425,9,9,9,9,9,,,,,2,0,2,0,0,2,2,50,,,,,num_3,1.7310385000018869,num_3,0.45,0.8,0.30000000000000004,0.65,10.81288,23.4279,return,3.867960799994762,,,,,,,8,22,female,up_down_width,2023_Aug_23_1358,exp1,2021.2.3,60.112843830676155,
,,,,,,,,,,,,,,,,5,8.2,9.1,10,10.9,11.8,0.9,0.8,0.1,3.7,10,initial,36.05,296,328,361,393,425,9,9,9,9,9,,,,,2,0,2,0,0,3,3,48,,,,,num_4,1.3803719999996247,num_4,0.4,0.7,0.15000000000000008,0.5,5.40644,18.02146,return,4.2361292999994475,,,,,,,8,22,female,up_down_width,2023_Aug_23_1358,exp1,2021.2.3,60.112843830676155,
,,,,,,,,,,,,,,,,4,8.65,9.55,10.45,11.35,0,0.9,0.5,0.4,3.1,10,initial,36.05,312,344,377,409,0,9,9,9,9,0,,,,,2,0,2,0,0,4,4,34,,,,,num_3,1.3668335999973351,num_3,0.25,1,0.35,0.75,12.61502,27.0322,return,2.7520660999871325,,,,,,,8,22,female,up_down_width,2023_Aug_23_1358,exp1,2021.2.3,60.112843830676155,
,,,,,,,,,,,,,,,,5,9.25,9.625,10,10.375,10.75,0.375,0.125,0.25,1.75,10,match,36.05,333,347,361,374,388,9,9,9,9,9,,,,,2,0,2,0,0,5,5,21,,,,,num_4,1.3001051999890478,num_4,0.45,1.1,0.4,0.6,14.41717,21.62576,return,4.28740599998855,,,,,,,8,22,female,up_down_width,2023_Aug_23_1358,exp1,2021.2.3,60.112843830676155,
,,,,,,,,,,,,,,,,3,9.1,10,10.9,0,0,0.9,0.8,0.1,1.9000000000000001,10,initial,36.05,328,361,393,0,0,9,9,9,0,0,,,,,2,0,2,0,0,6,6,12,,,,,num_2,1.1686870999983512,num_2,0.4,1.6,0.25000000000000006,0.6,9.01073,21.62576,return,6.017312600000878,,,,,,,8,22,female,up_down_width,2023_Aug_23_1358,exp1,2021.2.3,60.112843830676155,
,,,,,,,,,,,,,,,,3,9.5,10,10.5,0,0,0.5,0.4,0.1,1.1,10,initial,36.05,342,361,379,0,0,9,9,9,0,0,,,,,2,0,2,0,0,7,7,0,,,,,num_3,1.1067461999919033,num_3,0.2,1.3,0.15000000000000002,0.55,5.40644,19.82361,return,5.714771200000541,,,,,,,8,22,female,up_down_width,2023_Aug_23_1358,exp1,2021.2.3,60.112843830676155,
,,,,,,,,,,,,,,,,5,9,9.5,10,10.5,11,0.5,0.09999999999999998,0.4,2.4,10,initial,36.05,324,342,361,379,397,9,9,9,9,9,,,,,2,0,2,0,0,8,8,40,,,,,num_4,1.2518362999981036,num_4,0.2,1.3,0.25,0.5,9.01073,18.02146,return,3.599790699998266,,,,,,,8,22,female,up_down_width,2023_Aug_23_1358,exp1,2021.2.3,60.112843830676155,
,,,,,,,,,,,,,,,,3,9,10,11,0,0,0.9999999999999999,0.5999999999999999,0.4,2.4,10,match,36.05,324,361,397,0,0,9,9,9,0,0,,,,,2,0,2,0,0,9,9,41,,,,,num_3,1.809530900005484,num_3,0.35,1.1,0.3,0.7,10.81288,25.23005,return,4.26462139999785,,,,,,,8,22,female,up_down_width,2023_Aug_23_1358,exp1,2021.2.3,60.112843830676155,
,,,,,,,,,,,,,,,,4,9.425,9.808333333333334,10.191666666666666,10.575,0,0.3833333333333333,0.1333333333333333,0.25,1.4,10,match,36.05,340,354,367,381,0,9,9,9,9,0,,,,,2,0,2,0,0,10,10,5,,,,,num_4,1.0464355000003707,num_4,0.45,1.0,0.30000000000000004,0.6,10.81288,21.62576,return,3.6444425999943633,,,,,,,8,22,female,up_down_width,2023_Aug_23_1358,exp1,2021.2.3,60.112843830676155,
,,,,,,,,,,,,,,,,3,9.3,10,10.7,0,0,0.7,0.6,0.1,1.5,10,initial,36.05,335,361,386,0,0,9,9,9,0,0,,,,,2,0,2,0,0,11,11,6,,,,,num_2,1.3462741999974241,num_2,0.45,1.6,0.20000000000000007,0.5,7.20859,18.02146,return,6.283618600005866,,,,,,,8,22,female,up_down_width,2023_Aug_23_1358,exp1,2021.2.3,60.112843830676155,
,,,,,,,,,,,,,,,,5,8.95,9.475,10,10.525,11.05,0.525,0.275,0.25,2.35,10,match,36.05,323,342,361,379,398,9,9,9,9,9,,,,,2,0,2,0,0,12,12,27,,,,,num_3,1.4888542999979109,num_3,0.4,0.9,0.25000000000000006,0.65,9.01073,23.4279,return,5.793703999996069,,,,,,,8,22,female,up_down_width,2023_Aug_23_1358,exp1,2021.2.3,60.112843830676155,
,,,,,,,,,,,,,,,,5,8.6,9.3,10,10.7,11.4,0.7,0.44999999999999996,0.25,3.05,10,initial,36.05,310,335,361,386,411,9,9,9,9,9,,,,,2,0,2,0,0,13,13,44,,,,,num_3,1.5987106999964453,num_3,0.3,0.5,0.2,0.65,7.20859,23.4279,return,7.165645400003996,,,,,,,8,22,female,up_down_width,2023_Aug_23_1358,exp1,2021.2.3,60.112843830676155,
,,,,,,,,,,,,,,,,4,9.1,9.7,10.3,10.9,0,0.5999999999999999,0.3499999999999999,0.25,2.05,10,match,36.05,328,350,371,393,0,9,9,9,9,0,,,,,2,0,2,0,0,14,14,15,,,,,num_3,1.4201159999938682,num_3,0.4,0.5,0.25000000000000006,0.8,9.01073,28.83434,return,6.787989899996319,,,,,,,8,22,female,up_down_width,2023_Aug_23_1358,exp1,2021.2.3,60.112843830676155,
,,,,,,,,,,,,,,,,5,8.65,9.325,10,10.675,11.35,0.675,0.42500000000000004,0.25,2.95,10,match,36.05,312,336,361,385,409,9,9,9,9,9,,,,,2,0,2,0,0,15,15,33,,,,,num_3,1.603327700009686,num_3,0.15,1,0.25,0.85,9.01073,30.63649,return,3.5544102000130806,,,,,,,8,22,female,up_down_width,2023_Aug_23_1358,exp1,2021.2.3,60.112843830676155,
,,,,,,,,,,,,,,,,3,8.2,10,11.8,0,0,1.8,1.55,0.25,3.85,10,match,36.05,296,361,425,0,0,9,9,9,0,0,,,,,2,0,2,0,0,16,16,51,,,,,num_2,1.6129682999890065,num_2,0.45,1.6,0.25000000000000006,1.8,9.01073,64.87727,return,6.12416230000963,,,,,,,8,22,female,up_down_width,2023_Aug_23_1358,exp1,2021.2.3,60.112843830676155,
,,,,,,,,,,,,,,,,3,8.6,10,11.4,0,0,1.4,1.2999999999999998,0.1,2.9,10,match,36.05,310,361,411,0,0,9,9,9,0,0,,,,,2,0,2,0,0,17,17,43,,,,,num_2,1.9167954000004102,num_2,0.45,1.6,0.15000000000000008,1.6,5.40644,57.66869,return,3.1030388999934075,,,,,,,8,22,female,up_down_width,2023_Aug_23_1358,exp1,2021.2.3,60.112843830676155,
,,,,,,,,,,,,,,,,3,9,10,11,0,0,1,0.9,0.1,2.1,10,match,36.05,324,361,397,0,0,9,9,9,0,0,,,,,2,0,2,0,0,18,18,37,,,,,num_2,1.210288499991293,num_2,0.4,1.6,0.15000000000000008,1.6,5.40644,57.66869,return,2.600705199991353,,,,,,,8,22,female,up_down_width,2023_Aug_23_1358,exp1,2021.2.3,60.112843830676155,
,,,,,,,,,,,,,,,,3,8.6,10,11.4,0,0,1.4,1.15,0.25,3.05,10,match,36.05,310,361,411,0,0,9,9,9,0,0,,,,,2,0,2,0,0,19,19,45,,,,,num_2,0.9677729999966687,num_2,0.45,1.6,0.15000000000000008,1.5,5.40644,54.06439,return,3.6490350000094622,,,,,,,8,22,female,up_down_width,2023_Aug_23_1358,exp1,2021.2.3,60.112843830676155,
,,,,,,,,,,,,,,,,4,9.3,9.766666666666667,10.233333333333333,10.7,0,0.4666666666666667,0.21666666666666665,0.25,1.65,10,match,36.05,335,352,369,386,0,9,9,9,9,0,,,,,2,0,2,0,0,20,20,9,,,,,num_3,1.3742188999895006,num_3,0.15,1.3,0.35,0.65,12.61502,23.4279,return,6.582749799999874,,,,,,,8,22,female,up_down_width,2023_Aug_23_1358,exp1,2021.2.3,60.112843830676155,
,,,,,,,,,,,,,,,,5,8.95,9.475,10,10.525,11.05,0.525,0.125,0.4,2.5,10,match,36.05,323,342,361,379,398,9,9,9,9,9,,,,,2,0,2,0,0,21,21,29,,,,,num_3,1.3654716000019107,num_3,0.35,1.3,0.39999999999999997,0.55,14.41717,19.82361,return,7.468951400005608,,,,,,,8,22,female,up_down_width,2023_Aug_23_1358,exp1,2021.2.3,60.112843830676155,
,,,,,,,,,,,,,,,,3,9,10,11,0,0,1,0.75,0.25,2.25,10,match,36.05,324,361,397,0,0,9,9,9,0,0,,,,,2,0,2,0,0,22,22,39,,,,,num_3,1.2422517000086373,num_3,0.35,0.8,0.3,0.85,10.81288,30.63649,return,6.760193699999945,,,,,,,8,22,female,up_down_width,2023_Aug_23_1358,exp1,2021.2.3,60.112843830676155,
,,,,,,,,,,,,,,,,4,9.1,9.7,10.3,10.9,0,0.6,0.5,0.1,1.9,10,match,36.05,328,350,371,393,0,9,9,9,9,0,,,,,2,0,2,0,0,23,23,13,,,,,num_3,1.3976594999985537,num_3,0.3,1.2,0.25,0.9,9.01073,32.43864,return,3.5286424000078114,,,,,,,8,22,female,up_down_width,2023_Aug_23_1358,exp1,2021.2.3,60.112843830676155,
,,,,,,,,,,,,,,,,5,8.2,9.1,10,10.9,11.8,0.9,0.5,0.4,4,10,initial,36.05,296,328,361,393,425,9,9,9,9,9,,,,,2,0,2,0,0,24,24,52,,,,,num_4,1.3950334999972256,num_4,0.2,0.4,0.35,0.9,12.61502,32.43864,return,5.0498267999937525,,,,,,,8,22,female,up_down_width,2023_Aug_23_1358,exp1,2021.2.3,60.112843830676155,
,,,,,,,,,,,,,,,,3,8.2,10,11.8,0,0,1.7999999999999998,1.4,0.4,4,10,match,36.05,296,361,425,0,0,9,9,9,0,0,,,,,2,0,2,0,0,25,25,53,,,,,num_2,1.4488392999919597,num_2,0.4,1.6,0.4,1.6,14.41717,57.66869,return,1.9502028999995673,,,,,,,8,22,female,up_down_width,2023_Aug_23_1358,exp1,2021.2.3,60.112843830676155,
,,,,,,,,,,,,,,,,3,9.1,10,10.9,0,0,0.9,0.5,0.4,2.2,10,initial,36.05,328,361,393,0,0,9,9,9,0,0,,,,,2,0,2,0,0,26,26,16,,,,,num_3,1.1327811000082875,num_3,0.45,0.8,0.25000000000000006,0.8,9.01073,28.83434,return,2.636797500003013,,,,,,,8,22,female,up_down_width,2023_Aug_23_1358,exp1,2021.2.3,60.112843830676155,
,,,,,,,,,,,,,,,,5,8.6,9.3,10,10.7,11.4,0.7,0.29999999999999993,0.4,3.1999999999999997,10,initial,36.05,310,335,361,386,411,9,9,9,9,9,,,,,2,0,2,0,0,27,27,46,,,,,num_3,1.5020870000007562,num_3,0.25,1.1,0.35,0.85,12.61502,30.63649,return,4.670220799991512,,,,,,,8,22,female,up_down_width,2023_Aug_23_1358,exp1,2021.2.3,60.112843830676155,
,,,,,,,,,,,,,,,,5,8.6,9.3,10,10.7,11.4,0.7,0.6,0.1,2.9,10,initial,36.05,310,335,361,386,411,9,9,9,9,9,,,,,2,0,2,0,0,28,28,42,,,,,num_3,1.5796335000050021,num_3,0.1,1,0.15000000000000002,1,5.40644,36.04293,return,1.2730369000055362,,,,,,,8,22,female,up_down_width,2023_Aug_23_1358,exp1,2021.2.3,60.112843830676155,
,,,,,,,,,,,,,,,,4,8.95,9.65,10.35,11.05,0,0.7,0.6,0.1,2.1999999999999997,10,initial,36.05,323,348,373,398,0,9,9,9,9,0,,,,,2,0,2,0,0,29,29,24,,,,,num_3,1.8969976999942446,num_3,0.2,0.5,0.2,0.6,7.20859,21.62576,return,7.021104899991769,,,,,,,8,22,female,up_down_width,2023_Aug_23_1358,exp1,2021.2.3,60.112843830676155,
,,,,,,,,,,,,,,,,3,9.3,10,10.7,0,0,0.7,0.29999999999999993,0.4,1.8,10,initial,36.05,335,361,386,0,0,9,9,9,0,0,,,,,2,0,2,0,0,30,30,10,,,,,num_3,1.6641717000020435,num_3,0.25,1.2,0.25,0.65,9.01073,23.4279,return,5.928988400002709,,,,,,,8,22,female,up_down_width,2023_Aug_23_1358,exp1,2021.2.3,60.112843830676155,
,,,,,,,,,,,,,,,,4,9.1,9.7,10.3,10.9,0,0.6000000000000001,0.20000000000000004,0.4,2.2,10,match,36.05,328,350,371,393,0,9,9,9,9,0,,,,,2,0,2,0,0,31,31,17,,,,,num_3,1.388969999999972,num_3,0.45,0.8,0.4,0.75,14.41717,27.0322,return,2.324126499996055,,,,,,,8,22,female,up_down_width,2023_Aug_23_1358,exp1,2021.2.3,60.112843830676155,
,,,,,,,,,,,,,,,,3,9.1,10,10.9,0,0,0.9,0.65,0.25,2.05,10,initial,36.05,328,361,393,0,0,9,9,9,0,0,,,,,2,0,2,0,0,32,32,14,,,,,num_3,1.700079200003529,num_3,0.4,1.2,0.25000000000000006,0.65,9.01073,23.4279,return,5.663201899995329,,,,,,,8,22,female,up_down_width,2023_Aug_23_1358,exp1,2021.2.3,60.112843830676155,
,,,,,,,,,,,,,,,,4,9.3,9.766666666666667,10.233333333333333,10.7,0,0.4666666666666667,0.3666666666666667,0.1,1.5,10,match,36.05,335,352,369,386,0,9,9,9,9,0,,,,,2,0,2,0,0,33,33,7,,,,,num_3,1.4213760999991791,num_3,0.25,1.1,0.15000000000000002,0.6,5.40644,21.62576,return,4.082849900005385,,,,,,,8,22,female,up_down_width,2023_Aug_23_1358,exp1,2021.2.3,60.112843830676155,
,,,,,,,,,,,,,,,,5,9,9.5,10,10.5,11,0.5,0.25,0.25,2.25,10,initial,36.05,324,342,361,379,397,9,9,9,9,9,,,,,2,0,2,0,0,34,34,38,,,,,num_4,1.2732523000013316,num_4,0.15,1.0,0.15,0.4,5.40644,14.41717,return,4.1668379999900935,,,,,,,8,22,female,up_down_width,2023_Aug_23_1358,exp1,2021.2.3,60.112843830676155,
,,,,,,,,,,,,,,,,5,9,9.5,10,10.5,11,0.5,0.4,0.1,2.1,10,initial,36.05,324,342,361,379,397,9,9,9,9,9,,,,,2,0,2,0,0,35,35,36,,,,,num_4,1.9750613999931375,num_4,0.45,1.2,0.15000000000000008,0.5,5.40644,18.02146,return,14.742736900007003,,,,,,,8,22,female,up_down_width,2023_Aug_23_1358,exp1,2021.2.3,60.112843830676155,
,,,,,,,,,,,,,,,,3,9.5,10,10.5,0,0,0.5,0.25,0.25,1.25,10,initial,36.05,342,361,379,0,0,9,9,9,0,0,,,,,2,0,2,0,0,36,36,2,,,,,num_3,1.6215555999951903,num_3,0.1,0.5,0.2,0.6,7.20859,21.62576,return,3.4430042000021785,,,,,,,8,22,female,up_down_width,2023_Aug_23_1358,exp1,2021.2.3,60.112843830676155,
,,,,,,,,,,,,,,,,5,9.175,9.5875,10,10.4125,10.825,0.4125,0.16249999999999998,0.25,1.9,10,match,36.05,331,346,361,375,390,9,9,9,9,9,,,,,2,0,2,0,0,37,37,23,,,,,num_3,2.3424168000055943,num_3,0.45,0.6,0.30000000000000004,0.55,10.81288,19.82361,return,2.647661599999992,,,,,,,8,22,female,up_down_width,2023_Aug_23_1358,exp1,2021.2.3,60.112843830676155,
,,,,,,,,,,,,,,,,3,8.2,10,11.8,0,0,1.8000000000000003,1.7000000000000002,0.1,3.7,10,match,36.05,296,361,425,0,0,9,9,9,0,0,,,,,2,0,2,0,0,38,38,49,,,,,num_3,1.5401883000013186,num_3,0.1,0.5,0.15000000000000002,0.55,5.40644,19.82361,return,2.4856767999881413,,,,,,,8,22,female,up_down_width,2023_Aug_23_1358,exp1,2021.2.3,60.112843830676155,
,,,,,,,,,,,,,,,,5,9.25,9.625,10,10.375,10.75,0.375,0.275,0.1,1.6,10,match,36.05,333,347,361,374,388,9,9,9,9,9,,,,,2,0,2,0,0,39,39,19,,,,,num_3,1.5769800000125542,num_3,0.45,1.3,0.25000000000000006,0.75,9.01073,27.0322,return,6.21682659999351,,,,,,,8,22,female,up_down_width,2023_Aug_23_1358,exp1,2021.2.3,60.112843830676155,
,,,,,,,,,,,,,,,,4,8.65,9.55,10.45,11.35,0,0.9,0.8,0.1,2.8000000000000003,10,initial,36.05,312,344,377,409,0,9,9,9,9,0,,,,,2,0,2,0,0,40,40,30,,,,,num_3,1.1549750999984099,num_3,0.4,1.1,0.20000000000000007,0.65,7.20859,23.4279,return,4.930477200003224,,,,,,,8,22,female,up_down_width,2023_Aug_23_1358,exp1,2021.2.3,60.112843830676155,
,,,,,,,,,,,,,,,,5,8.95,9.475,10,10.525,11.05,0.525,0.42500000000000004,0.1,2.2,10,match,36.05,323,342,361,379,398,9,9,9,9,9,,,,,2,0,2,0,0,41,41,25,,,,,num_3,1.3487022000044817,num_3,0.2,1.1,0.15000000000000002,0.55,5.40644,19.82361,return,4.043262399995001,,,,,,,8,22,female,up_down_width,2023_Aug_23_1358,exp1,2021.2.3,60.112843830676155,
,,,,,,,,,,,,,,,,4,9.5,9.833333333333334,10.166666666666666,10.5,0,0.33333333333333337,0.23333333333333336,0.1,1.1,10,match,36.05,342,354,367,379,0,9,9,9,9,0,,,,,2,0,2,0,0,42,42,1,,,,,num_3,2.0369302999897627,num_3,0.3,1.1,0.2,0.6,7.20859,21.62576,return,5.842449200004921,,,,,,,8,22,female,up_down_width,2023_Aug_23_1358,exp1,2021.2.3,60.112843830676155,
,,,,,,,,,,,,,,,,4,9.25,9.75,10.25,10.75,0,0.5,0.09999999999999998,0.4,1.9,10,initial,36.05,333,351,370,388,0,9,9,9,9,0,,,,,2,0,2,0,0,43,43,22,,,,,num_3,2.27696279999509,num_3,0.15,0.5,0.25,0.45,9.01073,16.21932,return,3.001017899994622,,,,,,,8,22,female,up_down_width,2023_Aug_23_1358,exp1,2021.2.3,60.112843830676155,
,,,,,,,,,,,,,,,,4,9.25,9.75,10.25,10.75,0,0.5,0.4,0.1,1.6,10,initial,36.05,333,351,370,388,0,9,9,9,9,0,,,,,2,0,2,0,0,44,44,18,,,,,num_2,1.1056515999953263,num_2,0.15,1.6,0.2,0.4,7.20859,14.41717,return,6.531630400000722,,,,,,,8,22,female,up_down_width,2023_Aug_23_1358,exp1,2021.2.3,60.112843830676155,
,,,,,,,,,,,,,,,,4,8.95,9.65,10.35,11.05,0,0.7,0.44999999999999996,0.25,2.3499999999999996,10,initial,36.05,323,348,373,398,0,9,9,9,9,0,,,,,2,0,2,0,0,45,45,26,,,,,num_3,2.1875563000066904,num_3,0.2,1,0.25,0.65,9.01073,23.4279,return,3.634645600002841,,,,,,,8,22,female,up_down_width,2023_Aug_23_1358,exp1,2021.2.3,60.112843830676155,
,,,,,,,,,,,,,,,,4,9.3,9.766666666666667,10.233333333333333,10.7,0,0.4666666666666667,0.06666666666666665,0.4,1.8,10,match,36.05,335,352,369,386,0,9,9,9,9,0,,,,,2,0,2,0,0,46,46,11,,,,,num_3,1.1661917999881553,num_3,0.4,0.5,0.35000000000000003,0.45,12.61502,16.21932,return,2.8475824000051944,,,,,,,8,22,female,up_down_width,2023_Aug_23_1358,exp1,2021.2.3,60.112843830676155,
,,,,,,,,,,,,,,,,4,9.25,9.75,10.25,10.75,0,0.5,0.25,0.25,1.75,10,initial,36.05,333,351,370,388,0,9,9,9,9,0,,,,,2,0,2,0,0,47,47,20,,,,,num_4,1.603571199986618,num_4,0.3,0.6,0.3,0.6,10.81288,21.62576,return,0.7863726000068709,,,,,,,8,22,female,up_down_width,2023_Aug_23_1358,exp1,2021.2.3,60.112843830676155,
,,,,,,,,,,,,,,,,5,8.65,9.325,10,10.675,11.35,0.675,0.275,0.4,3.1,10,match,36.05,312,336,361,385,409,9,9,9,9,9,,,,,2,0,2,0,0,48,48,35,,,,,num_3,1.4916572000074666,num_3,0.35,1.3,0.3,0.5,10.81288,18.02146,return,6.309690299996873,,,,,,,8,22,female,up_down_width,2023_Aug_23_1358,exp1,2021.2.3,60.112843830676155,
,,,,,,,,,,,,,,,,4,8.95,9.65,10.35,11.05,0,0.7,0.29999999999999993,0.4,2.5,10,initial,36.05,323,348,373,398,0,9,9,9,9,0,,,,,2,0,2,0,0,49,49,28,,,,,num_4,2.0269261000066763,num_4,0.2,1.2,0.2,0.5,7.20859,18.02146,return,4.056977700005518,,,,,,,8,22,female,up_down_width,2023_Aug_23_1358,exp1,2021.2.3,60.112843830676155,
,,,,,,,,,,,,,,,,3,9.5,10,10.5,0,0,0.5,0.09999999999999998,0.4,1.4000000000000001,10,initial,36.05,342,361,379,0,0,9,9,9,0,0,,,,,2,0,2,0,0,50,50,4,,,,,num_2,1.8269660999940243,num_2,0.1,1.6,0.25,0.5,9.01073,18.02146,return,7.494814499994391,,,,,,,8,22,female,up_down_width,2023_Aug_23_1358,exp1,2021.2.3,60.112843830676155,
,,,,,,,,,,,,,,,,4,9.5,9.833333333333334,10.166666666666666,10.5,0,0.3333333333333333,0.08333333333333333,0.25,1.25,10,match,36.05,342,354,367,379,0,9,9,9,9,0,,,,,2,0,2,0,0,51,51,3,,,,,num_3,1.2860101999976905,num_3,0.15,0.7,0.3,0.55,10.81288,19.82361,return,3.3276398000016343,,,,,,,8,22,female,up_down_width,2023_Aug_23_1358,exp1,2021.2.3,60.112843830676155,
,,,,,,,,,,,,,,,,4,8.65,9.55,10.45,11.35,0,0.9,0.65,0.25,2.95,10,initial,36.05,312,344,377,409,0,9,9,9,9,0,,,,,2,0,2,0,0,52,52,32,,,,,num_3,1.8128431999939494,num_3,0.4,0.7,0.25000000000000006,0.7,9.01073,25.23005,return,4.189003899999079,,,,,,,8,22,female,up_down_width,2023_Aug_23_1358,exp1,2021.2.3,60.112843830676155,
,,,,,,,,,,,,,,,,5,8.65,9.325,10,10.675,11.35,0.6749999999999999,0.575,0.1,2.8,10,match,36.05,312,336,361,385,409,9,9,9,9,9,,,,,2,0,2,0,0,53,53,31,,,,,num_3,2.9484269000095082,num_3,0.35,0.6,0.2,0.75,7.20859,27.0322,return,5.614214000001084,,,,,,,8,22,female,up_down_width,2023_Aug_23_1358,exp1,2021.2.3,60.112843830676155,
,,,,,,,,,,,,,,,,,,,,,,,,,,,,,,,,,,,,,,,,,,,2,0,2,0,,,,,,,,,,,,,,,,,,,,,,1716.4345349000068,None,1716.4345349000068,None,8,22,female,up_down_width,2023_Aug_23_1358,exp1,2021.2.3,60.112843830676155,
,,,,,,,,,,,,,,,,3,8.525,10,11.475,0,0,1.475,1.225,0.25,3.2,10,match,36.05,307,361,414,0,0,9,9,9,0,0,,,,,3,0,3,0,0,0,0,47,,,,,num_2,1.1537563000019873,num_2,0.15,1.6,0.2,1.7,7.20859,61.27298,return,3.344096700006048,,,,,,,8,22,female,up_down_width,2023_Aug_23_1358,exp1,2021.2.3,60.112843830676155,
,,,,,,,,,,,,,,,,5,8.95,9.475,10,10.525,11.05,0.525,0.125,0.4,2.5,10,match,36.05,323,342,361,379,398,9,9,9,9,9,,,,,3,0,3,0,0,1,1,29,,,,,num_3,1.4390975999995135,num_3,0.3,0.5,0.25,0.5,9.01073,18.02146,return,1.8280161000002408,,,,,,,8,22,female,up_down_width,2023_Aug_23_1358,exp1,2021.2.3,60.112843830676155,
,,,,,,,,,,,,,,,,3,9.5,10,10.5,0,0,0.5,0.25,0.25,1.25,10,initial,36.05,342,361,379,0,0,9,9,9,0,0,,,,,3,0,3,0,0,2,2,2,,,,,num_3,1.0431504000007408,num_3,0.15,1,0.2,0.55,7.20859,19.82361,return,5.560152499994729,,,,,,,8,22,female,up_down_width,2023_Aug_23_1358,exp1,2021.2.3,60.112843830676155,
,,,,,,,,,,,,,,,,4,9.5,9.833333333333334,10.166666666666666,10.5,0,0.33333333333333337,0.23333333333333336,0.1,1.1,10,match,36.05,342,354,367,379,0,9,9,9,9,0,,,,,3,0,3,0,0,3,3,1,,,,,num_3,1.1281004999909783,num_3,0.35,1.2,0.3,0.7,10.81288,25.23005,return,7.753589100000681,,,,,,,8,22,female,up_down_width,2023_Aug_23_1358,exp1,2021.2.3,60.112843830676155,
,,,,,,,,,,,,,,,,5,9,9.5,10,10.5,11,0.5,0.4,0.1,2.1,10,initial,36.05,324,342,361,379,397,9,9,9,9,9,,,,,3,0,3,0,0,4,4,36,,,,,num_3,1.3820794000057504,num_3,0.2,0.6,0.15000000000000002,0.55,5.40644,19.82361,return,2.011189099997864,,,,,,,8,22,female,up_down_width,2023_Aug_23_1358,exp1,2021.2.3,60.112843830676155,
,,,,,,,,,,,,,,,,4,8.95,9.65,10.35,11.05,0,0.7,0.44999999999999996,0.25,2.3499999999999996,10,initial,36.05,323,348,373,398,0,9,9,9,9,0,,,,,3,0,3,0,0,5,5,26,,,,,num_3,1.326231300001382,num_3,0.15,1.3,0.25,0.7,9.01073,25.23005,return,7.941560200008098,,,,,,,8,22,female,up_down_width,2023_Aug_23_1358,exp1,2021.2.3,60.112843830676155,
,,,,,,,,,,,,,,,,4,8.65,9.55,10.45,11.35,0,0.9,0.8,0.1,2.8000000000000003,10,initial,36.05,312,344,377,409,0,9,9,9,9,0,,,,,3,0,3,0,0,6,6,30,,,,,num_3,1.6170221000065794,num_3,0.4,0.6,0.30000000000000004,0.9,10.81288,32.43864,return,5.902377300008084,,,,,,,8,22,female,up_down_width,2023_Aug_23_1358,exp1,2021.2.3,60.112843830676155,
,,,,,,,,,,,,,,,,3,9.3,10,10.7,0,0,0.7,0.6,0.1,1.5,10,initial,36.05,335,361,386,0,0,9,9,9,0,0,,,,,3,0,3,0,0,7,7,6,,,,,num_3,1.4049932999914745,num_3,0.1,1.2,0.1,1.2,3.60429,43.25151,return,0.787627199999406,,,,,,,8,22,female,up_down_width,2023_Aug_23_1358,exp1,2021.2.3,60.112843830676155,
,,,,,,,,,,,,,,,,4,9.3,9.766666666666667,10.233333333333333,10.7,0,0.4666666666666667,0.3666666666666667,0.1,1.5,10,match,36.05,335,352,369,386,0,9,9,9,9,0,,,,,3,0,3,0,0,8,8,7,,,,,num_3,1.111124100003508,num_3,0.35,0.9,0.2,0.85,7.20859,30.63649,return,4.006810899998527,,,,,,,8,22,female,up_down_width,2023_Aug_23_1358,exp1,2021.2.3,60.112843830676155,
,,,,,,,,,,,,,,,,4,8.65,9.55,10.45,11.35,0,0.9,0.65,0.25,2.95,10,initial,36.05,312,344,377,409,0,9,9,9,9,0,,,,,3,0,3,0,0,9,9,32,,,,,num_3,1.094322300006752,num_3,0.25,1.1,0.2,0.8,7.20859,28.83434,return,5.193757700006245,,,,,,,8,22,female,up_down_width,2023_Aug_23_1358,exp1,2021.2.3,60.112843830676155,
,,,,,,,,,,,,,,,,5,9.25,9.625,10,10.375,10.75,0.375,0.125,0.25,1.75,10,match,36.05,333,347,361,374,388,9,9,9,9,9,,,,,3,0,3,0,0,10,10,21,,,,,num_4,4.121678299998166,num_4,0.2,0.4,0.2,0.5,7.20859,18.02146,return,4.085540000000037,,,,,,,8,22,female,up_down_width,2023_Aug_23_1358,exp1,2021.2.3,60.112843830676155,
,,,,,,,,,,,,,,,,3,9.3,10,10.7,0,0,0.7,0.29999999999999993,0.4,1.8,10,initial,36.05,335,361,386,0,0,9,9,9,0,0,,,,,3,0,3,0,0,11,11,10,,,,,num_3,2.0131075999961467,num_3,0.2,1.2,0.25,0.6,9.01073,21.62576,return,4.715450799994869,,,,,,,8,22,female,up_down_width,2023_Aug_23_1358,exp1,2021.2.3,60.112843830676155,
,,,,,,,,,,,,,,,,5,8.65,9.325,10,10.675,11.35,0.675,0.275,0.4,3.1,10,match,36.05,312,336,361,385,409,9,9,9,9,9,,,,,3,0,3,0,0,12,12,35,,,,,num_3,1.7876175999990664,num_3,0.15,1.3,0.2,0.45,7.20859,16.21932,return,7.602921000012429,,,,,,,8,22,female,up_down_width,2023_Aug_23_1358,exp1,2021.2.3,60.112843830676155,
,,,,,,,,,,,,,,,,5,8.95,9.475,10,10.525,11.05,0.525,0.275,0.25,2.35,10,match,36.05,323,342,361,379,398,9,9,9,9,9,,,,,3,0,3,0,0,13,13,27,,,,,num_3,1.2156310000136727,num_3,0.15,0.6,0.2,0.55,7.20859,19.82361,return,2.621462800001609,,,,,,,8,22,female,up_down_width,2023_Aug_23_1358,exp1,2021.2.3,60.112843830676155,
,,,,,,,,,,,,,,,,3,9.5,10,10.5,0,0,0.5,0.09999999999999998,0.4,1.4000000000000001,10,initial,36.05,342,361,379,0,0,9,9,9,0,0,,,,,3,0,3,0,0,14,14,4,,,,,num_3,1.8777077999984613,num_3,0.45,1.2,0.25000000000000006,0.7,9.01073,25.23005,return,6.1506894000049215,,,,,,,8,22,female,up_down_width,2023_Aug_23_1358,exp1,2021.2.3,60.112843830676155,
,,,,,,,,,,,,,,,,5,8.6,9.3,10,10.7,11.4,0.7,0.6,0.1,2.9,10,initial,36.05,310,335,361,386,411,9,9,9,9,9,,,,,3,0,3,0,0,15,15,42,,,,,num_4,1.5797272000054363,num_4,0.35,1.0,0.15000000000000002,0.8,5.40644,28.83434,return,3.3663767999969423,,,,,,,8,22,female,up_down_width,2023_Aug_23_1358,exp1,2021.2.3,60.112843830676155,
,,,,,,,,,,,,,,,,5,8.65,9.325,10,10.675,11.35,0.675,0.42500000000000004,0.25,2.95,10,match,36.05,312,336,361,385,409,9,9,9,9,9,,,,,3,0,3,0,0,16,16,33,,,,,num_3,1.57049630000256,num_3,0.3,1,0.2,0.7,7.20859,25.23005,return,4.8670999000023585,,,,,,,8,22,female,up_down_width,2023_Aug_23_1358,exp1,2021.2.3,60.112843830676155,
,,,,,,,,,,,,,,,,3,9.5,10,10.5,0,0,0.5,0.4,0.1,1.1,10,initial,36.05,342,361,379,0,0,9,9,9,0,0,,,,,3,0,3,0,0,17,17,0,,,,,num_3,1.9742702999938047,num_3,0.2,1.1,0.15000000000000002,0.75,5.40644,27.0322,return,6.184114000003319,,,,,,,8,22,female,up_down_width,2023_Aug_23_1358,exp1,2021.2.3,60.112843830676155,
,,,,,,,,,,,,,,,,3,9,10,11,0,0,1,0.9,0.1,2.1,10,match,36.05,324,361,397,0,0,9,9,9,0,0,,,,,3,0,3,0,0,18,18,37,,,,,num_3,1.2277481999917654,num_3,0.15,0.9,0.15,0.55,5.40644,19.82361,return,4.73013529999298,,,,,,,8,22,female,up_down_width,2023_Aug_23_1358,exp1,2021.2.3,60.112843830676155,
,,,,,,,,,,,,,,,,4,9.425,9.808333333333334,10.191666666666666,10.575,0,0.3833333333333333,0.1333333333333333,0.25,1.4,10,match,36.05,340,354,367,381,0,9,9,9,9,0,,,,,3,0,3,0,0,19,19,5,,,,,num_4,1.6689627000014298,num_4,0.3,0.8,0.25,0.5,9.01073,18.02146,return,5.089119700001902,,,,,,,8,22,female,up_down_width,2023_Aug_23_1358,exp1,2021.2.3,60.112843830676155,
,,,,,,,,,,,,,,,,5,8.2,9.1,10,10.9,11.8,0.9,0.5,0.4,4,10,initial,36.05,296,328,361,393,425,9,9,9,9,9,,,,,3,0,3,0,0,20,20,52,,,,,num_4,1.3838755999895511,num_4,0.15,1.2,0.25,0.6,9.01073,21.62576,return,4.382810700000846,,,,,,,8,22,female,up_down_width,2023_Aug_23_1358,exp1,2021.2.3,60.112843830676155,
,,,,,,,,,,,,,,,,3,8.6,10,11.4,0,0,1.4,1.2999999999999998,0.1,2.9,10,match,36.05,310,361,411,0,0,9,9,9,0,0,,,,,3,0,3,0,0,21,21,43,,,,,num_2,1.4423493999929633,num_2,0.25,1.6,0.2,0.7,7.20859,25.23005,return,4.199926899993443,,,,,,,8,22,female,up_down_width,2023_Aug_23_1358,exp1,2021.2.3,60.112843830676155,
,,,,,,,,,,,,,,,,3,8.2,10,11.8,0,0,1.7999999999999998,1.4,0.4,4,10,match,36.05,296,361,425,0,0,9,9,9,0,0,,,,,3,0,3,0,0,22,22,53,,,,,num_2,1.5264173000032315,num_2,0.15,1.6,0.25,0.8,9.01073,28.83434,return,3.4633494000008795,,,,,,,8,22,female,up_down_width,2023_Aug_23_1358,exp1,2021.2.3,60.112843830676155,
,,,,,,,,,,,,,,,,4,9.1,9.7,10.3,10.9,0,0.6,0.5,0.1,1.9,10,match,36.05,328,350,371,393,0,9,9,9,9,0,,,,,3,0,3,0,0,23,23,13,,,,,num_3,1.2583333000075072,num_3,0.3,1.2,0.2,0.8,7.20859,28.83434,return,4.358676599993487,,,,,,,8,22,female,up_down_width,2023_Aug_23_1358,exp1,2021.2.3,60.112843830676155,
,,,,,,,,,,,,,,,,5,9,9.5,10,10.5,11,0.5,0.25,0.25,2.25,10,initial,36.05,324,342,361,379,397,9,9,9,9,9,,,,,3,0,3,0,0,24,24,38,,,,,num_4,1.470846399999573,num_4,0.3,0.3,0.15000000000000002,0.3,5.40644,10.81288,return,2.65904959999898,,,,,,,8,22,female,up_down_width,2023_Aug_23_1358,exp1,2021.2.3,60.112843830676155,
,,,,,,,,,,,,,,,,4,9.25,9.75,10.25,10.75,0,0.5,0.09999999999999998,0.4,1.9,10,initial,36.05,333,351,370,388,0,9,9,9,9,0,,,,,3,0,3,0,0,25,25,22,,,,,num_4,1.4391079000051832,num_4,0.45,0.6,0.30000000000000004,0.6,10.81288,21.62576,return,2.6461751999886474,,,,,,,8,22,female,up_down_width,2023_Aug_23_1358,exp1,2021.2.3,60.112843830676155,
,,,,,,,,,,,,,,,,5,8.2,9.1,10,10.9,11.8,0.9,0.8,0.1,3.7,10,initial,36.05,296,328,361,393,425,9,9,9,9,9,,,,,3,0,3,0,0,26,26,48,,,,,num_4,1.5390391999972053,num_4,0.35,0.9,0.25,0.8,9.01073,28.83434,return,5.905781100009335,,,,,,,8,22,female,up_down_width,2023_Aug_23_1358,exp1,2021.2.3,60.112843830676155,
,,,,,,,,,,,,,,,,5,8.2,9.1,10,10.9,11.8,0.9,0.65,0.25,3.85,10,initial,36.05,296,328,361,393,425,9,9,9,9,9,,,,,3,0,3,0,0,27,27,50,,,,,num_4,1.3040684000006877,num_4,0.3,0.9,0.2,0.7,7.20859,25.23005,return,3.4090712999895914,,,,,,,8,22,female,up_down_width,2023_Aug_23_1358,exp1,2021.2.3,60.112843830676155,
,,,,,,,,,,,,,,,,5,8.6,9.3,10,10.7,11.4,0.7,0.29999999999999993,0.4,3.1999999999999997,10,initial,36.05,310,335,361,386,411,9,9,9,9,9,,,,,3,0,3,0,0,28,28,46,,,,,num_4,1.0528924999962328,num_4,0.25,0.3,0.15000000000000002,0.3,5.40644,10.81288,return,3.489984600004391,,,,,,,8,22,female,up_down_width,2023_Aug_23_1358,exp1,2021.2.3,60.112843830676155,
,,,,,,,,,,,,,,,,4,9.25,9.75,10.25,10.75,0,0.5,0.4,0.1,1.6,10,initial,36.05,333,351,370,388,0,9,9,9,9,0,,,,,3,0,3,0,0,29,29,18,,,,,num_3,1.7624498999939533,num_3,0.1,1.1,0.1,0.6,3.60429,21.62576,return,4.33307269999932,,,,,,,8,22,female,up_down_width,2023_Aug_23_1358,exp1,2021.2.3,60.112843830676155,
,,,,,,,,,,,,,,,,4,9.1,9.7,10.3,10.9,0,0.5999999999999999,0.3499999999999999,0.25,2.05,10,match,36.05,328,350,371,393,0,9,9,9,9,0,,,,,3,0,3,0,0,30,30,15,,,,,num_4,1.482813000009628,num_4,0.25,0.4,0.2,0.4,7.20859,14.41717,return,1.2938425000029383,,,,,,,8,22,female,up_down_width,2023_Aug_23_1358,exp1,2021.2.3,60.112843830676155,
,,,,,,,,,,,,,,,,3,8.2,10,11.8,0,0,1.8000000000000003,1.7000000000000002,0.1,3.7,10,match,36.05,296,361,425,0,0,9,9,9,0,0,,,,,3,0,3,0,0,31,31,49,,,,,num_3,1.291581200013752,num_3,0.4,1,0.20000000000000007,1,7.20859,36.04293,return,2.021868399999221,,,,,,,8,22,female,up_down_width,2023_Aug_23_1358,exp1,2021.2.3,60.112843830676155,
,,,,,,,,,,,,,,,,4,8.95,9.65,10.35,11.05,0,0.7,0.6,0.1,2.1999999999999997,10,initial,36.05,323,348,373,398,0,9,9,9,9,0,,,,,3,0,3,0,0,32,32,24,,,,,num_3,1.2131405000109226,num_3,0.3,1.2,0.15000000000000002,0.6,5.40644,21.62576,return,9.130414799990831,,,,,,,8,22,female,up_down_width,2023_Aug_23_1358,exp1,2021.2.3,60.112843830676155,
,,,,,,,,,,,,,,,,3,9,10,11,0,0,0.9999999999999999,0.5999999999999999,0.4,2.4,10,match,36.05,324,361,397,0,0,9,9,9,0,0,,,,,3,0,3,0,0,33,33,41,,,,,num_3,1.1622854999877745,num_3,0.2,0.7,0.25,0.6,9.01073,21.62576,return,4.218379199999617,,,,,,,8,22,female,up_down_width,2023_Aug_23_1358,exp1,2021.2.3,60.112843830676155,
,,,,,,,,,,,,,,,,4,9.1,9.7,10.3,10.9,0,0.6000000000000001,0.20000000000000004,0.4,2.2,10,match,36.05,328,350,371,393,0,9,9,9,9,0,,,,,3,0,3,0,0,34,34,17,,,,,num_3,1.5390083000093,num_3,0.35,1.3,0.39999999999999997,0.8,14.41717,28.83434,return,5.109956200001761,,,,,,,8,22,female,up_down_width,2023_Aug_23_1358,exp1,2021.2.3,60.112843830676155,
,,,,,,,,,,,,,,,,3,9.1,10,10.9,0,0,0.9,0.8,0.1,1.9000000000000001,10,initial,36.05,328,361,393,0,0,9,9,9,0,0,,,,,3,0,3,0,0,35,35,12,,,,,num_2,0.9423480999976164,num_2,0.4,1.6,0.25000000000000006,0.7,9.01073,25.23005,return,5.5730231999914395,,,,,,,8,22,female,up_down_width,2023_Aug_23_1358,exp1,2021.2.3,60.112843830676155,
,,,,,,,,,,,,,,,,3,9,10,11,0,0,1,0.75,0.25,2.25,10,match,36.05,324,361,397,0,0,9,9,9,0,0,,,,,3,0,3,0,0,36,36,39,,,,,num_2,1.0291552999988198,num_2,0.3,1.6,0.25,0.5,9.01073,18.02146,return,4.554590199986706,,,,,,,8,22,female,up_down_width,2023_Aug_23_1358,exp1,2021.2.3,60.112843830676155,
,,,,,,,,,,,,,,,,4,8.65,9.55,10.45,11.35,0,0.9,0.5,0.4,3.1,10,initial,36.05,312,344,377,409,0,9,9,9,9,0,,,,,3,0,3,0,0,37,37,34,,,,,num_3,1.158967900002608,num_3,0.15,1.3,0.2,0.65,7.20859,23.4279,return,6.103990600007819,,,,,,,8,22,female,up_down_width,2023_Aug_23_1358,exp1,2021.2.3,60.112843830676155,
,,,,,,,,,,,,,,,,5,9.25,9.625,10,10.375,10.75,0.375,0.275,0.1,1.6,10,match,36.05,333,347,361,374,388,9,9,9,9,9,,,,,3,0,3,0,0,38,38,19,,,,,num_3,1.0724288000055822,num_3,0.25,1.3,0.2,0.75,7.20859,27.0322,return,7.606104200007394,,,,,,,8,22,female,up_down_width,2023_Aug_23_1358,exp1,2021.2.3,60.112843830676155,
,,,,,,,,,,,,,,,,4,8.95,9.65,10.35,11.05,0,0.7,0.29999999999999993,0.4,2.5,10,initial,36.05,323,348,373,398,0,9,9,9,9,0,,,,,3,0,3,0,0,39,39,28,,,,,num_3,1.099139700003434,num_3,0.1,0.5,0.15000000000000002,0.45,5.40644,16.21932,return,3.645834700000705,,,,,,,8,22,female,up_down_width,2023_Aug_23_1358,exp1,2021.2.3,60.112843830676155,
,,,,,,,,,,,,,,,,5,8.6,9.3,10,10.7,11.4,0.7,0.44999999999999996,0.25,3.05,10,initial,36.05,310,335,361,386,411,9,9,9,9,9,,,,,3,0,3,0,0,40,40,44,,,,,num_4,1.0328959999897052,num_4,0.3,0.7,0.3,0.6,10.81288,21.62576,return,3.150098700003582,,,,,,,8,22,female,up_down_width,2023_Aug_23_1358,exp1,2021.2.3,60.112843830676155,
,,,,,,,,,,,,,,,,4,9.5,9.833333333333334,10.166666666666666,10.5,0,0.3333333333333333,0.08333333333333333,0.25,1.25,10,match,36.05,342,354,367,379,0,9,9,9,9,0,,,,,3,0,3,0,0,41,41,3,,,,,num_4,1.257544299995061,num_4,0.35,0.4,0.2,0.4,7.20859,14.41717,return,1.446104499991634,,,,,,,8,22,female,up_down_width,2023_Aug_23_1358,exp1,2021.2.3,60.112843830676155,
,,,,,,,,,,,,,,,,5,9,9.5,10,10.5,11,0.5,0.09999999999999998,0.4,2.4,10,initial,36.05,324,342,361,379,397,9,9,9,9,9,,,,,3,0,3,0,0,42,42,40,,,,,num_4,1.071095500010415,num_4,0.2,1.3,0.15000000000000002,0.4,5.40644,14.41717,return,4.322973999995156,,,,,,,8,22,female,up_down_width,2023_Aug_23_1358,exp1,2021.2.3,60.112843830676155,
,,,,,,,,,,,,,,,,5,9.175,9.5875,10,10.4125,10.825,0.4125,0.16249999999999998,0.25,1.9,10,match,36.05,331,346,361,375,390,9,9,9,9,9,,,,,3,0,3,0,0,43,43,23,,,,,num_4,0.978467200009618,num_4,0.1,0.8,0.1,0.3,3.60429,10.81288,return,3.60998870000185,,,,,,,8,22,female,up_down_width,2023_Aug_23_1358,exp1,2021.2.3,60.112843830676155,
,,,,,,,,,,,,,,,,4,9.3,9.766666666666667,10.233333333333333,10.7,0,0.4666666666666667,0.06666666666666665,0.4,1.8,10,match,36.05,335,352,369,386,0,9,9,9,9,0,,,,,3,0,3,0,0,44,44,11,,,,,num_4,1.3124136999977054,num_4,0.2,0.8,0.15000000000000002,0.3,5.40644,10.81288,return,4.13831680000294,,,,,,,8,22,female,up_down_width,2023_Aug_23_1358,exp1,2021.2.3,60.112843830676155,
,,,,,,,,,,,,,,,,4,9.25,9.75,10.25,10.75,0,0.5,0.25,0.25,1.75,10,initial,36.05,333,351,370,388,0,9,9,9,9,0,,,,,3,0,3,0,0,45,45,20,,,,,num_4,1.5656815999973333,num_4,0.35,0.8,0.25,0.3,9.01073,10.81288,return,2.5592789000074845,,,,,,,8,22,female,up_down_width,2023_Aug_23_1358,exp1,2021.2.3,60.112843830676155,
,,,,,,,,,,,,,,,,3,9.3,10,10.7,0,0,0.7,0.44999999999999996,0.25,1.65,10,initial,36.05,335,361,386,0,0,9,9,9,0,0,,,,,3,0,3,0,0,46,46,8,,,,,num_2,1.0443876999925124,num_2,0.35,1.6,0.35,0.5,12.61502,18.02146,return,5.881975299998885,,,,,,,8,22,female,up_down_width,2023_Aug_23_1358,exp1,2021.2.3,60.112843830676155,
,,,,,,,,,,,,,,,,3,9.1,10,10.9,0,0,0.9,0.5,0.4,2.2,10,initial,36.05,328,361,393,0,0,9,9,9,0,0,,,,,3,0,3,0,0,47,47,16,,,,,num_2,1.2748866999900201,num_2,0.15,1.6,0.25,0.4,9.01073,14.41717,return,7.606775699998252,,,,,,,8,22,female,up_down_width,2023_Aug_23_1358,exp1,2021.2.3,60.112843830676155,
,,,,,,,,,,,,,,,,5,8.65,9.325,10,10.675,11.35,0.6749999999999999,0.575,0.1,2.8,10,match,36.05,312,336,361,385,409,9,9,9,9,9,,,,,3,0,3,0,0,48,48,31,,,,,num_3,1.4707924999966053,num_3,0.35,0.7,0.2,0.55,7.20859,19.82361,return,3.2192819000047166,,,,,,,8,22,female,up_down_width,2023_Aug_23_1358,exp1,2021.2.3,60.112843830676155,
,,,,,,,,,,,,,,,,3,9.1,10,10.9,0,0,0.9,0.65,0.25,2.05,10,initial,36.05,328,361,393,0,0,9,9,9,0,0,,,,,3,0,3,0,0,49,49,14,,,,,num_3,1.8748531000019284,num_3,0.4,0.9,0.25000000000000006,0.6,9.01073,21.62576,return,3.848076599999331,,,,,,,8,22,female,up_down_width,2023_Aug_23_1358,exp1,2021.2.3,60.112843830676155,
,,,,,,,,,,,,,,,,5,8.95,9.475,10,10.525,11.05,0.525,0.42500000000000004,0.1,2.2,10,match,36.05,323,342,361,379,398,9,9,9,9,9,,,,,3,0,3,0,0,50,50,25,,,,,num_4,1.5240211000054842,num_4,0.1,0.7,0.2,0.6,7.20859,21.62576,return,3.653790199998184,,,,,,,8,22,female,up_down_width,2023_Aug_23_1358,exp1,2021.2.3,60.112843830676155,
,,,,,,,,,,,,,,,,4,9.3,9.766666666666667,10.233333333333333,10.7,0,0.4666666666666667,0.21666666666666665,0.25,1.65,10,match,36.05,335,352,369,386,0,9,9,9,9,0,,,,,3,0,3,0,0,51,51,9,,,,,num_4,1.6645627000107197,num_4,0.1,1.2,0.15000000000000002,0.4,5.40644,14.41717,return,5.370558700000402,,,,,,,8,22,female,up_down_width,2023_Aug_23_1358,exp1,2021.2.3,60.112843830676155,
,,,,,,,,,,,,,,,,3,8.2,10,11.8,0,0,1.8,1.55,0.25,3.85,10,match,36.05,296,361,425,0,0,9,9,9,0,0,,,,,3,0,3,0,0,52,52,51,,,,,num_4,1.516248900006758,num_4,0.25,0.9,0.2,0.6,7.20859,21.62576,return,2.4164156999904662,,,,,,,8,22,female,up_down_width,2023_Aug_23_1358,exp1,2021.2.3,60.112843830676155,
,,,,,,,,,,,,,,,,3,8.6,10,11.4,0,0,1.4,1.15,0.25,3.05,10,match,36.05,310,361,411,0,0,9,9,9,0,0,,,,,3,0,3,0,0,53,53,45,,,,,num_2,1.463031500010402,num_2,0.25,1.6,0.39999999999999997,2.0,14.41717,72.08586,return,3.3549234999954933,,,,,,,8,22,female,up_down_width,2023_Aug_23_1358,exp1,2021.2.3,60.112843830676155,
,,,,,,,,,,,,,,,,,,,,,,,,,,,,,,,,,,,,,,,,,,,3,0,3,0,,,,,,,,,,,,,,,,,,,,,,2169.834580900002,None,2169.834580900002,None,8,22,female,up_down_width,2023_Aug_23_1358,exp1,2021.2.3,60.112843830676155,
,,,,,,,,,,,,,,,,3,9.5,10,10.5,0,0,0.5,0.25,0.25,1.25,10,initial,36.05,342,361,379,0,0,9,9,9,0,0,,,,,4,0,4,0,0,0,0,2,,,,,num_2,1.5742528999981005,num_2,0.3,1.6,0.25,0.6,9.01073,21.62576,return,6.00440369998978,,,,,,,8,22,female,up_down_width,2023_Aug_23_1358,exp1,2021.2.3,60.112843830676155,
,,,,,,,,,,,,,,,,3,8.6,10,11.4,0,0,1.4,1.15,0.25,3.05,10,match,36.05,310,361,411,0,0,9,9,9,0,0,,,,,4,0,4,0,0,1,1,45,,,,,num_2,1.452047800004948,num_2,0.45,1.6,0.30000000000000004,0.8,10.81288,28.83434,return,4.911575400008587,,,,,,,8,22,female,up_down_width,2023_Aug_23_1358,exp1,2021.2.3,60.112843830676155,
,,,,,,,,,,,,,,,,3,9.3,10,10.7,0,0,0.7,0.44999999999999996,0.25,1.65,10,initial,36.05,335,361,386,0,0,9,9,9,0,0,,,,,4,0,4,0,0,2,2,8,,,,,num_2,0.9971453000034671,num_2,0.15,1.6,0.15,0.6,5.40644,21.62576,return,4.973212900004,,,,,,,8,22,female,up_down_width,2023_Aug_23_1358,exp1,2021.2.3,60.112843830676155,
,,,,,,,,,,,,,,,,5,9.175,9.5875,10,10.4125,10.825,0.4125,0.16249999999999998,0.25,1.9,10,match,36.05,331,346,361,375,390,9,9,9,9,9,,,,,4,0,4,0,0,3,3,23,,,,,num_3,1.355682599998545,num_3,0.1,1.3,0.15000000000000002,0.6,5.40644,21.62576,return,5.491095400007907,,,,,,,8,22,female,up_down_width,2023_Aug_23_1358,exp1,2021.2.3,60.112843830676155,
,,,,,,,,,,,,,,,,3,9,10,11,0,0,1,0.9,0.1,2.1,10,match,36.05,324,361,397,0,0,9,9,9,0,0,,,,,4,0,4,0,0,4,4,37,,,,,num_3,1.0169710000045598,num_3,0.45,0.9,0.20000000000000007,0.55,7.20859,19.82361,return,4.751699100001133,,,,,,,8,22,female,up_down_width,2023_Aug_23_1358,exp1,2021.2.3,60.112843830676155,
,,,,,,,,,,,,,,,,5,8.95,9.475,10,10.525,11.05,0.525,0.125,0.4,2.5,10,match,36.05,323,342,361,379,398,9,9,9,9,9,,,,,4,0,4,0,0,5,5,29,,,,,num_3,1.1883791000000201,num_3,0.3,0.4,0.2,0.45,7.20859,16.21932,return,7.827129999990575,,,,,,,8,22,female,up_down_width,2023_Aug_23_1358,exp1,2021.2.3,60.112843830676155,
,,,,,,,,,,,,,,,,5,8.6,9.3,10,10.7,11.4,0.7,0.44999999999999996,0.25,3.05,10,initial,36.05,310,335,361,386,411,9,9,9,9,9,,,,,4,0,4,0,0,6,6,44,,,,,num_3,0.9673736999975517,num_3,0.3,0.5,0.25,0.5,9.01073,18.02146,return,3.343733000001521,,,,,,,8,22,female,up_down_width,2023_Aug_23_1358,exp1,2021.2.3,60.112843830676155,
,,,,,,,,,,,,,,,,4,9.1,9.7,10.3,10.9,0,0.6000000000000001,0.20000000000000004,0.4,2.2,10,match,36.05,328,350,371,393,0,9,9,9,9,0,,,,,4,0,4,0,0,7,7,17,,,,,num_3,1.3150252000050386,num_3,0.1,0.8,0.2,0.5,7.20859,18.02146,return,4.221543199993903,,,,,,,8,22,female,up_down_width,2023_Aug_23_1358,exp1,2021.2.3,60.112843830676155,
,,,,,,,,,,,,,,,,3,9.5,10,10.5,0,0,0.5,0.09999999999999998,0.4,1.4000000000000001,10,initial,36.05,342,361,379,0,0,9,9,9,0,0,,,,,4,0,4,0,0,8,8,4,,,,,num_3,1.190892900005565,num_3,0.45,1.2,0.25000000000000006,0.55,9.01073,19.82361,return,7.334370399999898,,,,,,,8,22,female,up_down_width,2023_Aug_23_1358,exp1,2021.2.3,60.112843830676155,
,,,,,,,,,,,,,,,,5,8.2,9.1,10,10.9,11.8,0.9,0.65,0.25,3.85,10,initial,36.05,296,328,361,393,425,9,9,9,9,9,,,,,4,0,4,0,0,9,9,50,,,,,num_3,1.52158810000401,num_3,0.45,0.8,0.25000000000000006,0.65,9.01073,23.4279,return,6.146235599997453,,,,,,,8,22,female,up_down_width,2023_Aug_23_1358,exp1,2021.2.3,60.112843830676155,
,,,,,,,,,,,,,,,,5,9,9.5,10,10.5,11,0.5,0.09999999999999998,0.4,2.4,10,initial,36.05,324,342,361,379,397,9,9,9,9,9,,,,,4,0,4,0,0,10,10,40,,,,,num_3,1.2525801000010688,num_3,0.15,0.9,0.2,0.4,7.20859,14.41717,return,5.311482999997679,,,,,,,8,22,female,up_down_width,2023_Aug_23_1358,exp1,2021.2.3,60.112843830676155,
,,,,,,,,,,,,,,,,5,8.2,9.1,10,10.9,11.8,0.9,0.5,0.4,4,10,initial,36.05,296,328,361,393,425,9,9,9,9,9,,,,,4,0,4,0,0,11,11,52,,,,,num_3,1.7409407999948598,num_3,0.2,1.1,0.25,0.55,9.01073,19.82361,return,6.692205699990154,,,,,,,8,22,female,up_down_width,2023_Aug_23_1358,exp1,2021.2.3,60.112843830676155,
,,,,,,,,,,,,,,,,5,8.95,9.475,10,10.525,11.05,0.525,0.42500000000000004,0.1,2.2,10,match,36.05,323,342,361,379,398,9,9,9,9,9,,,,,4,0,4,0,0,12,12,25,,,,,num_3,1.898939299993799,num_3,0.15,1.1,0.2,0.55,7.20859,19.82361,return,6.0310682999988785,,,,,,,8,22,female,up_down_width,2023_Aug_23_1358,exp1,2021.2.3,60.112843830676155,
,,,,,,,,,,,,,,,,4,8.95,9.65,10.35,11.05,0,0.7,0.6,0.1,2.1999999999999997,10,initial,36.05,323,348,373,398,0,9,9,9,9,0,,,,,4,0,4,0,0,13,13,24,,,,,num_3,1.0536412000074051,num_3,0.15,0.3,0.10000000000000002,0.35,3.60429,12.61502,return,5.618728600005852,,,,,,,8,22,female,up_down_width,2023_Aug_23_1358,exp1,2021.2.3,60.112843830676155,
,,,,,,,,,,,,,,,,4,8.65,9.55,10.45,11.35,0,0.9,0.5,0.4,3.1,10,initial,36.05,312,344,377,409,0,9,9,9,9,0,,,,,4,0,4,0,0,14,14,34,,,,,num_3,0.9486380000016652,num_3,0.35,1.3,0.25,0.55,9.01073,19.82361,return,4.491641799992067,,,,,,,8,22,female,up_down_width,2023_Aug_23_1358,exp1,2021.2.3,60.112843830676155,
,,,,,,,,,,,,,,,,3,9,10,11,0,0,1,0.75,0.25,2.25,10,match,36.05,324,361,397,0,0,9,9,9,0,0,,,,,4,0,4,0,0,15,15,39,,,,,num_3,1.0402402999898186,num_3,0.1,0.7,0.1,0.35,3.60429,12.61502,return,3.445430200008559,,,,,,,8,22,female,up_down_width,2023_Aug_23_1358,exp1,2021.2.3,60.112843830676155,
,,,,,,,,,,,,,,,,5,9,9.5,10,10.5,11,0.5,0.4,0.1,2.1,10,initial,36.05,324,342,361,379,397,9,9,9,9,9,,,,,4,0,4,0,0,16,16,36,,,,,num_3,1.528545799999847,num_3,0.25,1.3,0.15000000000000002,0.45,5.40644,16.21932,return,4.842233200004557,,,,,,,8,22,female,up_down_width,2023_Aug_23_1358,exp1,2021.2.3,60.112843830676155,
,,,,,,,,,,,,,,,,4,9.1,9.7,10.3,10.9,0,0.5999999999999999,0.3499999999999999,0.25,2.05,10,match,36.05,328,350,371,393,0,9,9,9,9,0,,,,,4,0,4,0,0,17,17,15,,,,,num_3,1.3329997999971965,num_3,0.1,0.8,0.2,0.45,7.20859,16.21932,return,4.558910899999319,,,,,,,8,22,female,up_down_width,2023_Aug_23_1358,exp1,2021.2.3,60.112843830676155,
,,,,,,,,,,,,,,,,4,8.95,9.65,10.35,11.05,0,0.7,0.29999999999999993,0.4,2.5,10,initial,36.05,323,348,373,398,0,9,9,9,9,0,,,,,4,0,4,0,0,18,18,28,,,,,num_3,1.2270722000102978,num_3,0.3,1.1,0.2,0.55,7.20859,19.82361,return,4.265053299997817,,,,,,,8,22,female,up_down_width,2023_Aug_23_1358,exp1,2021.2.3,60.112843830676155,
,,,,,,,,,,,,,,,,4,9.25,9.75,10.25,10.75,0,0.5,0.25,0.25,1.75,10,initial,36.05,333,351,370,388,0,9,9,9,9,0,,,,,4,0,4,0,0,19,19,20,,,,,num_3,0.9669076999998651,num_3,0.1,0.8,0.1,0.35,3.60429,12.61502,return,3.7444046000018716,,,,,,,8,22,female,up_down_width,2023_Aug_23_1358,exp1,2021.2.3,60.112843830676155,
,,,,,,,,,,,,,,,,3,9.1,10,10.9,0,0,0.9,0.8,0.1,1.9000000000000001,10,initial,36.05,328,361,393,0,0,9,9,9,0,0,,,,,4,0,4,0,0,20,20,12,,,,,num_3,1.0884954999928595,num_3,0.4,0.7,0.15000000000000008,0.7,5.40644,25.23005,return,1.8935522999963723,,,,,,,8,22,female,up_down_width,2023_Aug_23_1358,exp1,2021.2.3,60.112843830676155,
,,,,,,,,,,,,,,,,4,9.3,9.766666666666667,10.233333333333333,10.7,0,0.4666666666666667,0.06666666666666665,0.4,1.8,10,match,36.05,335,352,369,386,0,9,9,9,9,0,,,,,4,0,4,0,0,21,21,11,,,,,num_3,1.086560700001428,num_3,0.2,0.4,0.2,0.4,7.20859,14.41717,return,1.9679944000090472,,,,,,,8,22,female,up_down_width,2023_Aug_23_1358,exp1,2021.2.3,60.112843830676155,
,,,,,,,,,,,,,,,,3,9.1,10,10.9,0,0,0.9,0.65,0.25,2.05,10,initial,36.05,328,361,393,0,0,9,9,9,0,0,,,,,4,0,4,0,0,22,22,14,,,,,num_2,0.9757495999947423,num_2,0.2,1.6,0.25,1.3,9.01073,46.85581,return,3.111487499991199,,,,,,,8,22,female,up_down_width,2023_Aug_23_1358,exp1,2021.2.3,60.112843830676155,
,,,,,,,,,,,,,,,,3,9.1,10,10.9,0,0,0.9,0.5,0.4,2.2,10,initial,36.05,328,361,393,0,0,9,9,9,0,0,,,,,4,0,4,0,0,23,23,16,,,,,num_2,1.073720800006413,num_2,0.15,1.6,0.39999999999999997,0.8,14.41717,28.83434,return,4.870665299997199,,,,,,,8,22,female,up_down_width,2023_Aug_23_1358,exp1,2021.2.3,60.112843830676155,
,,,,,,,,,,,,,,,,4,8.65,9.55,10.45,11.35,0,0.9,0.65,0.25,2.95,10,initial,36.05,312,344,377,409,0,9,9,9,9,0,,,,,4,0,4,0,0,24,24,32,,,,,num_3,1.068122399999993,num_3,0.35,0.6,0.15000000000000002,0.95,5.40644,34.24078,return,4.878094700005022,,,,,,,8,22,female,up_down_width,2023_Aug_23_1358,exp1,2021.2.3,60.112843830676155,
,,,,,,,,,,,,,,,,5,8.6,9.3,10,10.7,11.4,0.7,0.29999999999999993,0.4,3.1999999999999997,10,initial,36.05,310,335,361,386,411,9,9,9,9,9,,,,,4,0,4,0,0,25,25,46,,,,,num_3,1.2505141000001458,num_3,0.15,1.2,0.35,0.95,12.61502,34.24078,return,3.5199467000056757,,,,,,,8,22,female,up_down_width,2023_Aug_23_1358,exp1,2021.2.3,60.112843830676155,
,,,,,,,,,,,,,,,,3,9.5,10,10.5,0,0,0.5,0.4,0.1,1.1,10,initial,36.05,342,361,379,0,0,9,9,9,0,0,,,,,4,0,4,0,0,26,26,0,,,,,num_3,1.2170891999994637,num_3,0.4,0.8,0.20000000000000007,0.8,7.20859,28.83434,return,3.5197981000092113,,,,,,,8,22,female,up_down_width,2023_Aug_23_1358,exp1,2021.2.3,60.112843830676155,
,,,,,,,,,,,,,,,,3,8.525,10,11.475,0,0,1.475,1.225,0.25,3.2,10,match,36.05,307,361,414,0,0,9,9,9,0,0,,,,,4,0,4,0,0,27,27,47,,,,,num_3,2.0090830999979516,num_3,0.25,0.7,0.2,0.65,7.20859,23.4279,return,5.4135380999941844,,,,,,,8,22,female,up_down_width,2023_Aug_23_1358,exp1,2021.2.3,60.112843830676155,
,,,,,,,,,,,,,,,,3,8.2,10,11.8,0,0,1.8000000000000003,1.7000000000000002,0.1,3.7,10,match,36.05,296,361,425,0,0,9,9,9,0,0,,,,,4,0,4,0,0,28,28,49,,,,,num_2,1.0457828999933554,num_2,0.15,1.6,0.15000000000000002,1.7,5.40644,61.27298,return,3.322557899999083,,,,,,,8,22,female,up_down_width,2023_Aug_23_1358,exp1,2021.2.3,60.112843830676155,
,,,,,,,,,,,,,,,,4,9.25,9.75,10.25,10.75,0,0.5,0.09999999999999998,0.4,1.9,10,initial,36.05,333,351,370,388,0,9,9,9,9,0,,,,,4,0,4,0,0,29,29,22,,,,,num_4,1.5584043999988353,num_4,0.25,1.2,0.2,0.6,7.20859,21.62576,return,3.574455499998294,,,,,,,8,22,female,up_down_width,2023_Aug_23_1358,exp1,2021.2.3,60.112843830676155,
,,,,,,,,,,,,,,,,5,9.25,9.625,10,10.375,10.75,0.375,0.275,0.1,1.6,10,match,36.05,333,347,361,374,388,9,9,9,9,9,,,,,4,0,4,0,0,30,30,19,,,,,num_4,1.3284972999972524,num_4,0.3,0.6,0.25,0.5,9.01073,18.02146,return,2.5381958999932976,,,,,,,8,22,female,up_down_width,2023_Aug_23_1358,exp1,2021.2.3,60.112843830676155,
,,,,,,,,,,,,,,,,3,8.2,10,11.8,0,0,1.8,1.55,0.25,3.85,10,match,36.05,296,361,425,0,0,9,9,9,0,0,,,,,4,0,4,0,0,31,31,51,,,,,num_3,1.137721999999485,num_3,0.1,1,0.2,1,7.20859,36.04293,return,1.8581760000088252,,,,,,,8,22,female,up_down_width,2023_Aug_23_1358,exp1,2021.2.3,60.112843830676155,
,,,,,,,,,,,,,,,,4,9.425,9.808333333333334,10.191666666666666,10.575,0,0.3833333333333333,0.1333333333333333,0.25,1.4,10,match,36.05,340,354,367,381,0,9,9,9,9,0,,,,,4,0,4,0,0,32,32,5,,,,,num_3,1.1771842999878572,num_3,0.25,1.3,0.3,0.8,10.81288,28.83434,return,4.136935300004552,,,,,,,8,22,female,up_down_width,2023_Aug_23_1358,exp1,2021.2.3,60.112843830676155,
,,,,,,,,,,,,,,,,5,8.6,9.3,10,10.7,11.4,0.7,0.6,0.1,2.9,10,initial,36.05,310,335,361,386,411,9,9,9,9,9,,,,,4,0,4,0,0,33,33,42,,,,,num_4,1.252450999993016,num_4,0.2,0.8,0.15000000000000002,0.7,5.40644,25.23005,return,3.4406017000001157,,,,,,,8,22,female,up_down_width,2023_Aug_23_1358,exp1,2021.2.3,60.112843830676155,
,,,,,,,,,,,,,,,,5,8.65,9.325,10,10.675,11.35,0.675,0.42500000000000004,0.25,2.95,10,match,36.05,312,336,361,385,409,9,9,9,9,9,,,,,4,0,4,0,0,34,34,33,,,,,num_4,1.1917997999989893,num_4,0.35,0.4,0.10000000000000002,0.4,3.60429,14.41717,return,4.951574799997616,,,,,,,8,22,female,up_down_width,2023_Aug_23_1358,exp1,2021.2.3,60.112843830676155,
,,,,,,,,,,,,,,,,5,8.2,9.1,10,10.9,11.8,0.9,0.8,0.1,3.7,10,initial,36.05,296,328,361,393,425,9,9,9,9,9,,,,,4,0,4,0,0,35,35,48,,,,,num_4,1.0379067000030773,num_4,0.1,0.3,0.1,0.7,3.60429,25.23005,return,3.3938956999918446,,,,,,,8,22,female,up_down_width,2023_Aug_23_1358,exp1,2021.2.3,60.112843830676155,
,,,,,,,,,,,,,,,,5,8.65,9.325,10,10.675,11.35,0.6749999999999999,0.575,0.1,2.8,10,match,36.05,312,336,361,385,409,9,9,9,9,9,,,,,4,0,4,0,0,36,36,31,,,,,num_4,0.9557820000045467,num_4,0.35,0.5,0.15000000000000002,0.9,5.40644,32.43864,return,4.993682000000263,,,,,,,8,22,female,up_down_width,2023_Aug_23_1358,exp1,2021.2.3,60.112843830676155,
,,,,,,,,,,,,,,,,4,9.5,9.833333333333334,10.166666666666666,10.5,0,0.33333333333333337,0.23333333333333336,0.1,1.1,10,match,36.05,342,354,367,379,0,9,9,9,9,0,,,,,4,0,4,0,0,37,37,1,,,,,num_4,0.9470099000027403,num_4,0.2,0.3,0.15000000000000002,0.7,5.40644,25.23005,return,4.25194710001233,,,,,,,8,22,female,up_down_width,2023_Aug_23_1358,exp1,2021.2.3,60.112843830676155,
,,,,,,,,,,,,,,,,5,9.25,9.625,10,10.375,10.75,0.375,0.125,0.25,1.75,10,match,36.05,333,347,361,374,388,9,9,9,9,9,,,,,4,0,4,0,0,38,38,21,,,,,num_4,1.305160399992019,num_4,0.2,1.3,0.2,0.5,7.20859,18.02146,return,6.419980599996052,,,,,,,8,22,female,up_down_width,2023_Aug_23_1358,exp1,2021.2.3,60.112843830676155,
,,,,,,,,,,,,,,,,3,8.2,10,11.8,0,0,1.7999999999999998,1.4,0.4,4,10,match,36.05,296,361,425,0,0,9,9,9,0,0,,,,,4,0,4,0,0,39,39,53,,,,,num_3,1.359828299988294,num_3,0.25,0.6,0.2,0.45,7.20859,16.21932,return,6.359732500000973,,,,,,,8,22,female,up_down_width,2023_Aug_23_1358,exp1,2021.2.3,60.112843830676155,
,,,,,,,,,,,,,,,,3,8.6,10,11.4,0,0,1.4,1.2999999999999998,0.1,2.9,10,match,36.05,310,361,411,0,0,9,9,9,0,0,,,,,4,0,4,0,0,40,40,43,,,,,num_3,1.2284098000091035,num_3,0.35,0.8,0.2,0.6,7.20859,21.62576,return,4.922377800001414,,,,,,,8,22,female,up_down_width,2023_Aug_23_1358,exp1,2021.2.3,60.112843830676155,
,,,,,,,,,,,,,,,,5,8.65,9.325,10,10.675,11.35,0.675,0.275,0.4,3.1,10,match,36.05,312,336,361,385,409,9,9,9,9,9,,,,,4,0,4,0,0,41,41,35,,,,,num_3,1.3517910999944434,num_3,0.1,1.1,0.25,0.6,9.01073,21.62576,return,5.921067899995251,,,,,,,8,22,female,up_down_width,2023_Aug_23_1358,exp1,2021.2.3,60.112843830676155,
,,,,,,,,,,,,,,,,4,9.3,9.766666666666667,10.233333333333333,10.7,0,0.4666666666666667,0.21666666666666665,0.25,1.65,10,match,36.05,335,352,369,386,0,9,9,9,9,0,,,,,4,0,4,0,0,42,42,9,,,,,num_3,1.1971093000029214,num_3,0.4,1.1,0.25000000000000006,0.6,9.01073,21.62576,return,4.701729899999918,,,,,,,8,22,female,up_down_width,2023_Aug_23_1358,exp1,2021.2.3,60.112843830676155,
,,,,,,,,,,,,,,,,4,9.25,9.75,10.25,10.75,0,0.5,0.4,0.1,1.6,10,initial,36.05,333,351,370,388,0,9,9,9,9,0,,,,,4,0,4,0,0,43,43,18,,,,,num_3,1.2230605000077048,num_3,0.1,1.1,0.2,0.6,7.20859,21.62576,return,5.620269399994868,,,,,,,8,22,female,up_down_width,2023_Aug_23_1358,exp1,2021.2.3,60.112843830676155,
,,,,,,,,,,,,,,,,4,9.1,9.7,10.3,10.9,0,0.6,0.5,0.1,1.9,10,match,36.05,328,350,371,393,0,9,9,9,9,0,,,,,4,0,4,0,0,44,44,13,,,,,num_3,1.163205899996683,num_3,0.25,0.6,0.25,0.5,9.01073,18.02146,return,4.733241099995212,,,,,,,8,22,female,up_down_width,2023_Aug_23_1358,exp1,2021.2.3,60.112843830676155,
,,,,,,,,,,,,,,,,5,9,9.5,10,10.5,11,0.5,0.25,0.25,2.25,10,initial,36.05,324,342,361,379,397,9,9,9,9,9,,,,,4,0,4,0,0,45,45,38,,,,,num_4,1.8350100000097882,num_4,0.4,1.2,0.25000000000000006,0.5,9.01073,18.02146,return,5.2933239999983925,,,,,,,8,22,female,up_down_width,2023_Aug_23_1358,exp1,2021.2.3,60.112843830676155,
,,,,,,,,,,,,,,,,5,8.95,9.475,10,10.525,11.05,0.525,0.275,0.25,2.35,10,match,36.05,323,342,361,379,398,9,9,9,9,9,,,,,4,0,4,0,0,46,46,27,,,,,num_4,1.5882323999976506,num_4,0.3,0.8,0.25,0.5,9.01073,18.02146,return,3.9547246000001905,,,,,,,8,22,female,up_down_width,2023_Aug_23_1358,exp1,2021.2.3,60.112843830676155,
,,,,,,,,,,,,,,,,3,9.3,10,10.7,0,0,0.7,0.6,0.1,1.5,10,initial,36.05,335,361,386,0,0,9,9,9,0,0,,,,,4,0,4,0,0,47,47,6,,,,,num_4,1.1118807000020752,num_4,0.15,0.4,0.09999999999999999,0.4,3.60429,14.41717,return,1.9785148999944795,,,,,,,8,22,female,up_down_width,2023_Aug_23_1358,exp1,2021.2.3,60.112843830676155,
,,,,,,,,,,,,,,,,4,9.3,9.766666666666667,10.233333333333333,10.7,0,0.4666666666666667,0.3666666666666667,0.1,1.5,10,match,36.05,335,352,369,386,0,9,9,9,9,0,,,,,4,0,4,0,0,48,48,7,,,,,num_4,1.0537124999973457,num_4,0.35,0.6,0.2,0.6,7.20859,21.62576,return,2.2605883999931393,,,,,,,8,22,female,up_down_width,2023_Aug_23_1358,exp1,2021.2.3,60.112843830676155,
,,,,,,,,,,,,,,,,4,9.5,9.833333333333334,10.166666666666666,10.5,0,0.3333333333333333,0.08333333333333333,0.25,1.25,10,match,36.05,342,354,367,379,0,9,9,9,9,0,,,,,4,0,4,0,0,49,49,3,,,,,num_4,1.1184490000014193,num_4,0.4,0.7,0.25000000000000006,0.5,9.01073,18.02146,return,4.001446599999326,,,,,,,8,22,female,up_down_width,2023_Aug_23_1358,exp1,2021.2.3,60.112843830676155,
,,,,,,,,,,,,,,,,4,8.95,9.65,10.35,11.05,0,0.7,0.44999999999999996,0.25,2.3499999999999996,10,initial,36.05,323,348,373,398,0,9,9,9,9,0,,,,,4,0,4,0,0,50,50,26,,,,,num_4,1.3731824000133201,num_4,0.35,1.1,0.25,0.6,9.01073,21.62576,return,3.9877354000054765,,,,,,,8,22,female,up_down_width,2023_Aug_23_1358,exp1,2021.2.3,60.112843830676155,
,,,,,,,,,,,,,,,,3,9,10,11,0,0,0.9999999999999999,0.5999999999999999,0.4,2.4,10,match,36.05,324,361,397,0,0,9,9,9,0,0,,,,,4,0,4,0,0,51,51,41,,,,,num_3,1.0637744999985443,num_3,0.3,1.3,0.25,0.65,9.01073,23.4279,return,5.293638599992846,,,,,,,8,22,female,up_down_width,2023_Aug_23_1358,exp1,2021.2.3,60.112843830676155,
,,,,,,,,,,,,,,,,3,9.3,10,10.7,0,0,0.7,0.29999999999999993,0.4,1.8,10,initial,36.05,335,361,386,0,0,9,9,9,0,0,,,,,4,0,4,0,0,52,52,10,,,,,num_3,1.2489285000046948,num_3,0.3,1.3,0.25,0.75,9.01073,27.0322,return,4.76671530000749,,,,,,,8,22,female,up_down_width,2023_Aug_23_1358,exp1,2021.2.3,60.112843830676155,
,,,,,,,,,,,,,,,,4,8.65,9.55,10.45,11.35,0,0.9,0.8,0.1,2.8000000000000003,10,initial,36.05,312,344,377,409,0,9,9,9,9,0,,,,,4,0,4,0,0,53,53,30,,,,,num_3,1.1903452999977162,num_3,0.45,1.2,0.25000000000000006,0.7,9.01073,25.23005,return,5.60674500001187,,,,,,,8,22,female,up_down_width,2023_Aug_23_1358,exp1,2021.2.3,60.112843830676155,
,,,,,,,,,,,,,,,,,,,,,,,,,,,,,,,,,,,,,,,,,,,4,0,4,0,,,,,,,,,,,,,,,,,,,,,,2763.0350408000086,None,2763.0350408000086,None,8,22,female,up_down_width,2023_Aug_23_1358,exp1,2021.2.3,60.112843830676155,
,,,,,,,,,,,,,,,,5,8.95,9.475,10,10.525,11.05,0.525,0.42500000000000004,0.1,2.2,10,match,36.05,323,342,361,379,398,9,9,9,9,9,,,,,5,0,5,0,0,0,0,25,,,,,num_3,1.2778674000001047,num_3,0.1,0.5,0.15000000000000002,0.4,5.40644,14.41717,return,3.7344129999983124,,,,,,,8,22,female,up_down_width,2023_Aug_23_1358,exp1,2021.2.3,60.112843830676155,
,,,,,,,,,,,,,,,,3,9.3,10,10.7,0,0,0.7,0.6,0.1,1.5,10,initial,36.05,335,361,386,0,0,9,9,9,0,0,,,,,5,0,5,0,0,1,1,6,,,,,num_2,1.7133329999924172,num_2,0.35,1.6,0.25,0.6,9.01073,21.62576,return,4.428828999996767,,,,,,,8,22,female,up_down_width,2023_Aug_23_1358,exp1,2021.2.3,60.112843830676155,
,,,,,,,,,,,,,,,,5,8.2,9.1,10,10.9,11.8,0.9,0.5,0.4,4,10,initial,36.05,296,328,361,393,425,9,9,9,9,9,,,,,5,0,5,0,0,2,2,52,,,,,num_3,1.4632579999888549,num_3,0.15,0.5,0.2,0.45,7.20859,16.21932,return,3.1649310999928275,,,,,,,8,22,female,up_down_width,2023_Aug_23_1358,exp1,2021.2.3,60.112843830676155,
,,,,,,,,,,,,,,,,4,8.65,9.55,10.45,11.35,0,0.9,0.8,0.1,2.8000000000000003,10,initial,36.05,312,344,377,409,0,9,9,9,9,0,,,,,5,0,5,0,0,3,3,30,,,,,num_3,1.4299383999896236,num_3,0.15,1.2,0.2,0.65,7.20859,23.4279,return,7.179313100001309,,,,,,,8,22,female,up_down_width,2023_Aug_23_1358,exp1,2021.2.3,60.112843830676155,
,,,,,,,,,,,,,,,,3,8.2,10,11.8,0,0,1.7999999999999998,1.4,0.4,4,10,match,36.05,296,361,425,0,0,9,9,9,0,0,,,,,5,0,5,0,0,4,4,53,,,,,num_2,1.4051718999980949,num_2,0.45,1.6,0.35000000000000003,0.9,12.61502,32.43864,return,4.213225200001034,,,,,,,8,22,female,up_down_width,2023_Aug_23_1358,exp1,2021.2.3,60.112843830676155,
,,,,,,,,,,,,,,,,4,8.95,9.65,10.35,11.05,0,0.7,0.29999999999999993,0.4,2.5,10,initial,36.05,323,348,373,398,0,9,9,9,9,0,,,,,5,0,5,0,0,5,5,28,,,,,num_3,1.2917439000011655,num_3,0.2,0.7,0.2,0.5,7.20859,18.02146,return,3.9757602000026964,,,,,,,8,22,female,up_down_width,2023_Aug_23_1358,exp1,2021.2.3,60.112843830676155,
,,,,,,,,,,,,,,,,3,8.525,10,11.475,0,0,1.475,1.225,0.25,3.2,10,match,36.05,307,361,414,0,0,9,9,9,0,0,,,,,5,0,5,0,0,6,6,47,,,,,num_2,0.9207330999925034,num_2,0.4,1.6,0.25000000000000006,0.6,9.01073,21.62576,return,5.890692800006946,,,,,,,8,22,female,up_down_width,2023_Aug_23_1358,exp1,2021.2.3,60.112843830676155,
,,,,,,,,,,,,,,,,5,9.25,9.625,10,10.375,10.75,0.375,0.275,0.1,1.6,10,match,36.05,333,347,361,374,388,9,9,9,9,9,,,,,5,0,5,0,0,7,7,19,,,,,num_3,1.271137000003364,num_3,0.2,1,0.2,0.65,7.20859,23.4279,return,4.625001399996108,,,,,,,8,22,female,up_down_width,2023_Aug_23_1358,exp1,2021.2.3,60.112843830676155,
,,,,,,,,,,,,,,,,4,9.25,9.75,10.25,10.75,0,0.5,0.25,0.25,1.75,10,initial,36.05,333,351,370,388,0,9,9,9,9,0,,,,,5,0,5,0,0,8,8,20,,,,,num_3,1.426761599999736,num_3,0.1,1.1,0.2,0.65,7.20859,23.4279,return,5.016455400007544,,,,,,,8,22,female,up_down_width,2023_Aug_23_1358,exp1,2021.2.3,60.112843830676155,
,,,,,,,,,,,,,,,,5,8.95,9.475,10,10.525,11.05,0.525,0.275,0.25,2.35,10,match,36.05,323,342,361,379,398,9,9,9,9,9,,,,,5,0,5,0,0,9,9,27,,,,,num_3,1.201031899996451,num_3,0.45,0.9,0.30000000000000004,0.7,10.81288,25.23005,return,2.8140681000077166,,,,,,,8,22,female,up_down_width,2023_Aug_23_1358,exp1,2021.2.3,60.112843830676155,
,,,,,,,,,,,,,,,,3,8.6,10,11.4,0,0,1.4,1.2999999999999998,0.1,2.9,10,match,36.05,310,361,411,0,0,9,9,9,0,0,,,,,5,0,5,0,0,10,10,43,,,,,num_2,1.147793800002546,num_2,0.25,1.6,0.2,0.5,7.20859,18.02146,return,6.202462600005674,,,,,,,8,22,female,up_down_width,2023_Aug_23_1358,exp1,2021.2.3,60.112843830676155,
,,,,,,,,,,,,,,,,3,8.6,10,11.4,0,0,1.4,1.15,0.25,3.05,10,match,36.05,310,361,411,0,0,9,9,9,0,0,,,,,5,0,5,0,0,11,11,45,,,,,num_3,1.1410808999935398,num_3,0.3,1.1,0.25,0.7,9.01073,25.23005,return,4.29417249999824,,,,,,,8,22,female,up_down_width,2023_Aug_23_1358,exp1,2021.2.3,60.112843830676155,
,,,,,,,,,,,,,,,,5,8.2,9.1,10,10.9,11.8,0.9,0.65,0.25,3.85,10,initial,36.05,296,328,361,393,425,9,9,9,9,9,,,,,5,0,5,0,0,12,12,50,,,,,num_3,1.399104800002533,num_3,0.2,0.5,0.2,0.6,7.20859,21.62576,return,4.958674099994823,,,,,,,8,22,female,up_down_width,2023_Aug_23_1358,exp1,2021.2.3,60.112843830676155,
,,,,,,,,,,,,,,,,3,9.3,10,10.7,0,0,0.7,0.29999999999999993,0.4,1.8,10,initial,36.05,335,361,386,0,0,9,9,9,0,0,,,,,5,0,5,0,0,13,13,10,,,,,num_2,1.258583599992562,num_2,0.3,1.6,0.25,0.7,9.01073,25.23005,return,4.294633800003794,,,,,,,8,22,female,up_down_width,2023_Aug_23_1358,exp1,2021.2.3,60.112843830676155,
,,,,,,,,,,,,,,,,5,8.65,9.325,10,10.675,11.35,0.675,0.275,0.4,3.1,10,match,36.05,312,336,361,385,409,9,9,9,9,9,,,,,5,0,5,0,0,14,14,35,,,,,num_3,1.219683500006795,num_3,0.25,0.9,0.25,0.65,9.01073,23.4279,return,4.866058800005703,,,,,,,8,22,female,up_down_width,2023_Aug_23_1358,exp1,2021.2.3,60.112843830676155,
,,,,,,,,,,,,,,,,5,8.95,9.475,10,10.525,11.05,0.525,0.125,0.4,2.5,10,match,36.05,323,342,361,379,398,9,9,9,9,9,,,,,5,0,5,0,0,15,15,29,,,,,num_4,1.7358701999910409,num_4,0.35,1.2,0.35,0.6,12.61502,21.62576,return,4.77355900000839,,,,,,,8,22,female,up_down_width,2023_Aug_23_1358,exp1,2021.2.3,60.112843830676155,
,,,,,,,,,,,,,,,,5,8.6,9.3,10,10.7,11.4,0.7,0.6,0.1,2.9,10,initial,36.05,310,335,361,386,411,9,9,9,9,9,,,,,5,0,5,0,0,16,16,42,,,,,num_4,1.659078699987731,num_4,0.25,1.1,0.15000000000000002,0.6,5.40644,21.62576,return,2.8730942999973195,,,,,,,8,22,female,up_down_width,2023_Aug_23_1358,exp1,2021.2.3,60.112843830676155,
,,,,,,,,,,,,,,,,4,8.95,9.65,10.35,11.05,0,0.7,0.44999999999999996,0.25,2.3499999999999996,10,initial,36.05,323,348,373,398,0,9,9,9,9,0,,,,,5,0,5,0,0,17,17,26,,,,,num_4,1.1050459999969462,num_4,0.3,0.7,0.2,0.5,7.20859,18.02146,return,3.0751617000059923,,,,,,,8,22,female,up_down_width,2023_Aug_23_1358,exp1,2021.2.3,60.112843830676155,
,,,,,,,,,,,,,,,,3,9.5,10,10.5,0,0,0.5,0.25,0.25,1.25,10,initial,36.05,342,361,379,0,0,9,9,9,0,0,,,,,5,0,5,0,0,18,18,2,,,,,num_3,1.7529735999996774,num_3,0.2,1.2,0.2,0.7,7.20859,25.23005,return,5.200678399996832,,,,,,,8,22,female,up_down_width,2023_Aug_23_1358,exp1,2021.2.3,60.112843830676155,
,,,,,,,,,,,,,,,,3,9,10,11,0,0,1,0.9,0.1,2.1,10,match,36.05,324,361,397,0,0,9,9,9,0,0,,,,,5,0,5,0,0,19,19,37,,,,,num_2,1.4184362000087276,num_2,0.45,1.6,0.30000000000000004,0.5,10.81288,18.02146,return,6.58911379998608,,,,,,,8,22,female,up_down_width,2023_Aug_23_1358,exp1,2021.2.3,60.112843830676155,
,,,,,,,,,,,,,,,,5,9.175,9.5875,10,10.4125,10.825,0.4125,0.16249999999999998,0.25,1.9,10,match,36.05,331,346,361,375,390,9,9,9,9,9,,,,,5,0,5,0,0,20,20,23,,,,,num_3,1.4825509999936912,num_3,0.35,1.2,0.25,0.55,9.01073,19.82361,return,6.572060500009684,,,,,,,8,22,female,up_down_width,2023_Aug_23_1358,exp1,2021.2.3,60.112843830676155,
,,,,,,,,,,,,,,,,5,8.65,9.325,10,10.675,11.35,0.6749999999999999,0.575,0.1,2.8,10,match,36.05,312,336,361,385,409,9,9,9,9,9,,,,,5,0,5,0,0,21,21,31,,,,,num_4,1.4317815999966115,num_4,0.35,1.1,0.2,0.5,7.20859,18.02146,return,6.044816100009484,,,,,,,8,22,female,up_down_width,2023_Aug_23_1358,exp1,2021.2.3,60.112843830676155,
,,,,,,,,,,,,,,,,3,9.3,10,10.7,0,0,0.7,0.44999999999999996,0.25,1.65,10,initial,36.05,335,361,386,0,0,9,9,9,0,0,,,,,5,0,5,0,0,22,22,8,,,,,num_2,1.6823581000062404,num_2,0.2,1.6,0.2,0.4,7.20859,14.41717,return,7.759489799995208,,,,,,,8,22,female,up_down_width,2023_Aug_23_1358,exp1,2021.2.3,60.112843830676155,
,,,,,,,,,,,,,,,,4,9.3,9.766666666666667,10.233333333333333,10.7,0,0.4666666666666667,0.3666666666666667,0.1,1.5,10,match,36.05,335,352,369,386,0,9,9,9,9,0,,,,,5,0,5,0,0,23,23,7,,,,,num_3,1.7267499000008684,num_3,0.2,0.8,0.15000000000000002,0.5,5.40644,18.02146,return,4.552213500006474,,,,,,,8,22,female,up_down_width,2023_Aug_23_1358,exp1,2021.2.3,60.112843830676155,
,,,,,,,,,,,,,,,,3,9.1,10,10.9,0,0,0.9,0.8,0.1,1.9000000000000001,10,initial,36.05,328,361,393,0,0,9,9,9,0,0,,,,,5,0,5,0,0,24,24,12,,,,,num_2,1.4810966000077315,num_2,0.45,1.6,0.30000000000000004,0.7,10.81288,25.23005,return,6.475430600010441,,,,,,,8,22,female,up_down_width,2023_Aug_23_1358,exp1,2021.2.3,60.112843830676155,
,,,,,,,,,,,,,,,,5,8.2,9.1,10,10.9,11.8,0.9,0.8,0.1,3.7,10,initial,36.05,296,328,361,393,425,9,9,9,9,9,,,,,5,0,5,0,0,25,25,48,,,,,num_3,1.9644912999938242,num_3,0.3,0.4,0.2,0.7,7.20859,25.23005,return,4.445762299990747,,,,,,,8,22,female,up_down_width,2023_Aug_23_1358,exp1,2021.2.3,60.112843830676155,
,,,,,,,,,,,,,,,,3,9,10,11,0,0,1,0.75,0.25,2.25,10,match,36.05,324,361,397,0,0,9,9,9,0,0,,,,,5,0,5,0,0,26,26,39,,,,,num_2,1.2837556999875233,num_2,0.1,1.6,0.3,0.8,10.81288,28.83434,return,5.038161899996339,,,,,,,8,22,female,up_down_width,2023_Aug_23_1358,exp1,2021.2.3,60.112843830676155,
,,,,,,,,,,,,,,,,4,9.25,9.75,10.25,10.75,0,0.5,0.09999999999999998,0.4,1.9,10,initial,36.05,333,351,370,388,0,9,9,9,9,0,,,,,5,0,5,0,0,27,27,22,,,,,num_3,1.0813842000061413,num_3,0.15,1.1,0.25,0.7,9.01073,25.23005,return,6.607236700001522,,,,,,,8,22,female,up_down_width,2023_Aug_23_1358,exp1,2021.2.3,60.112843830676155,
