amount_p,posx1_p,posx2_p,posx3_p,posx4_p,posx5_p,center_to_center_p,edge_to_edge_p,w_p,stim_lengt_p,eccentricity_p,line1_p,line2_p,line3_p,line4_p,line5_p,amount,posx1,posx2,posx3,posx4,posx5,center_to_center,edge_to_edge,w,stim_length,eccentricity,trial_type,deg_to_pix_index,posx1_in_pix,posx2_in_pix,posx3_in_pix,posx4_in_pix,posx5_in_pix,line1,line2,line3,line4,line5,trials.thisRepN,trials.thisTrialN,trials.thisN,trials.thisIndex,blocks.thisRepN,blocks.thisTrialN,blocks.thisN,blocks.thisIndex,loop.thisRepN,loop.thisTrialN,loop.thisN,loop.thisIndex,key_resp_3.keys,key_resp_3.rt,key_resp_3.started,key_resp_3.stopped,key_resp.keys,key_resp.rt,response,starting_width_deg,starting_space_deg,response_width_degree,response_spacing_degree,response_width_pixel,response_spacing_pixel,next_5.keys,next_5.rt,key_resp_4.keys,key_resp_4.rt,text_3.started,text_3.stopped,text_4.started,text_4.stopped,participant,age,gender,resp_group,date,expName,psychopyVersion,frameRate,
,,,,,,,,,,,,,,,,,,,,,,,,,,,,,,,,,,,,,,,,,,,,,,,,,,,c,138.11305320000974,21.977795699989656,None,,,,,,,,,,,,,,,,,,9,21,female,left_right_width,2023_Aug_24_1051,exp1,2021.2.3,59.95473417302588,
3,9,10,11,0,0,1,0.9,0.1,2.1,10,9,9,9,0,0,,,,,,,,,,,,,,,,,,,,,,,,0,0,0,1,,,,,,,,,,,,,num_2,1.9060293000075035,num_2,0.25,1.6,0.2,1.5,7.20859,54.06439,return,11.475413899985142,,,,,,,9,21,female,left_right_width,2023_Aug_24_1051,exp1,2021.2.3,59.95473417302588,
5,9,9.5,10,10.5,11,0.5,0.09999999999999998,0.4,2.4,10,9,9,9,9,9,,,,,,,,,,,,,,,,,,,,,,,,0,1,1,8,,,,,,,,,,,,,num_3,2.460424499993678,num_3,0.45,1.3,0.6000000000000001,0.75,21.62576,27.0322,return,14.982930099999066,,,,,,,9,21,female,left_right_width,2023_Aug_24_1051,exp1,2021.2.3,59.95473417302588,
3,9.5,10,10.5,0,0,0.5,0.4,0.1,1.1,10,9,9,9,0,0,,,,,,,,,,,,,,,,,,,,,,,,0,2,2,0,,,,,,,,,,,,,num_3,2.370007900026394,num_3,0.1,0.6,0.05,0.85,1.80215,30.63649,return,8.642640100006247,,,,,,,9,21,female,left_right_width,2023_Aug_24_1051,exp1,2021.2.3,59.95473417302588,
3,8.2,10,11.8,0,0,1.7999999999999998,1.4,0.4,4,10,9,9,9,0,0,,,,,,,,,,,,,,,,,,,,,,,,0,3,3,2,,,,,,,,,,,,,num_2,3.252723200013861,num_2,0.15,1.6,0.39999999999999997,1.6,14.41717,57.66869,return,5.007633600005647,,,,,,,9,21,female,left_right_width,2023_Aug_24_1051,exp1,2021.2.3,59.95473417302588,
5,9.25,9.625,10,10.375,10.75,0.375,0.125,0.25,1.75,10,9,9,9,9,9,,,,,,,,,,,,,,,,,,,,,,,,0,4,4,6,,,,,,,,,,,,,num_3,2.17561299999943,num_3,0.45,0.8,0.6000000000000001,0.8,21.62576,28.83434,return,6.664331599982688,,,,,,,9,21,female,left_right_width,2023_Aug_24_1051,exp1,2021.2.3,59.95473417302588,
5,8.6,9.3,10,10.7,11.4,0.7,0.29999999999999993,0.4,3.1999999999999997,10,9,9,9,9,9,,,,,,,,,,,,,,,,,,,,,,,,0,5,5,7,,,,,,,,,,,,,num_4,1.725616900017485,num_4,0.4,0.9,0.55,0.7,19.82361,25.23005,return,9.975055899994913,,,,,,,9,21,female,left_right_width,2023_Aug_24_1051,exp1,2021.2.3,59.95473417302588,
4,8.65,9.55,10.45,11.35,0,0.9,0.5,0.4,3.1,10,9,9,9,9,0,,,,,,,,,,,,,,,,,,,,,,,,0,6,6,5,,,,,,,,,,,,,num_3,1.5887621000001673,num_3,0.35,1.3,0.49999999999999994,1.0,18.02146,36.04293,return,7.0603951000084635,,,,,,,9,21,female,left_right_width,2023_Aug_24_1051,exp1,2021.2.3,59.95473417302588,
4,9.25,9.75,10.25,10.75,0,0.5,0.25,0.25,1.75,10,9,9,9,9,0,,,,,,,,,,,,,,,,,,,,,,,,0,7,7,4,,,,,,,,,,,,,num_4,5.53637279997929,num_4,0.2,1.1,0.35,0.8,12.61502,28.83434,return,8.303001699998276,,,,,,,9,21,female,left_right_width,2023_Aug_24_1051,exp1,2021.2.3,59.95473417302588,
4,9.5,9.833333333333334,10.166666666666666,10.5,0,0.33333333333333337,0.23333333333333336,0.1,1.1,10,9,9,9,9,0,,,,,,,,,,,,,,,,,,,,,,,,0,8,8,3,,,,,,,,,,,,,num_4,2.055460400006268,num_4,0.15,0.7,0.15,0.5,5.40644,18.02146,return,5.4104335000156425,,,,,,,9,21,female,left_right_width,2023_Aug_24_1051,exp1,2021.2.3,59.95473417302588,
,,,,,,,,,,,,,,,,,,,,,,,,,,,,,,,,,,,,,,,,,,,,,,,,,,,,,,,,,,,,,,,,,,c,33.54556319999392,,,,,9,21,female,left_right_width,2023_Aug_24_1051,exp1,2021.2.3,59.95473417302588,
,,,,,,,,,,,,,,,,4,8.95,9.65,10.35,11.05,0,0.7,0.29999999999999993,0.4,2.5,10,initial,36.05,323,348,373,398,0,9,9,9,9,0,,,,,0,0,0,0,0,0,0,28,,,,,num_3,1.3334157999779563,num_3,0.15,1,0.25,0.9,9.01073,32.43864,return,4.110488699981943,,,,,,,9,21,female,left_right_width,2023_Aug_24_1051,exp1,2021.2.3,59.95473417302588,
,,,,,,,,,,,,,,,,4,8.95,9.65,10.35,11.05,0,0.7,0.6,0.1,2.1999999999999997,10,initial,36.05,323,348,373,398,0,9,9,9,9,0,,,,,0,0,0,0,0,1,1,24,,,,,num_3,1.3574819999921601,num_3,0.15,0.4,0.15,0.85,5.40644,30.63649,return,7.559051099990029,,,,,,,9,21,female,left_right_width,2023_Aug_24_1051,exp1,2021.2.3,59.95473417302588,
,,,,,,,,,,,,,,,,4,9.25,9.75,10.25,10.75,0,0.5,0.25,0.25,1.75,10,initial,36.05,333,351,370,388,0,9,9,9,9,0,,,,,0,0,0,0,0,2,2,20,,,,,num_4,3.0163011999975424,num_4,0.15,0.3,0.15,0.5,5.40644,18.02146,return,3.3420052000146825,,,,,,,9,21,female,left_right_width,2023_Aug_24_1051,exp1,2021.2.3,59.95473417302588,
,,,,,,,,,,,,,,,,5,8.95,9.475,10,10.525,11.05,0.525,0.42500000000000004,0.1,2.2,10,match,36.05,323,342,361,379,398,9,9,9,9,9,,,,,0,0,0,0,0,3,3,25,,,,,num_4,1.1937274000083562,num_4,0.15,1.0,0.15,0.9,5.40644,32.43864,return,2.2002863000088837,,,,,,,9,21,female,left_right_width,2023_Aug_24_1051,exp1,2021.2.3,59.95473417302588,
,,,,,,,,,,,,,,,,3,8.2,10,11.8,0,0,1.7999999999999998,1.4,0.4,4,10,match,36.05,296,361,425,0,0,9,9,9,0,0,,,,,0,0,0,0,0,4,4,53,,,,,num_3,2.209647000010591,num_3,0.45,1.3,0.35000000000000003,1.25,12.61502,45.05366,return,7.7836046000011265,,,,,,,9,21,female,left_right_width,2023_Aug_24_1051,exp1,2021.2.3,59.95473417302588,
,,,,,,,,,,,,,,,,5,8.6,9.3,10,10.7,11.4,0.7,0.6,0.1,2.9,10,initial,36.05,310,335,361,386,411,9,9,9,9,9,,,,,0,0,0,0,0,5,5,42,,,,,num_4,1.5875852000026498,num_4,0.1,0.6,0.1,0.8,3.60429,28.83434,return,2.9304836000083014,,,,,,,9,21,female,left_right_width,2023_Aug_24_1051,exp1,2021.2.3,59.95473417302588,
,,,,,,,,,,,,,,,,5,9,9.5,10,10.5,11,0.5,0.09999999999999998,0.4,2.4,10,initial,36.05,324,342,361,379,397,9,9,9,9,9,,,,,0,0,0,0,0,6,6,40,,,,,num_3,2.3084045000141487,num_3,0.45,0.9,0.45,0.85,16.21932,30.63649,return,5.254516099987086,,,,,,,9,21,female,left_right_width,2023_Aug_24_1051,exp1,2021.2.3,59.95473417302588,
,,,,,,,,,,,,,,,,4,9.25,9.75,10.25,10.75,0,0.5,0.4,0.1,1.6,10,initial,36.05,333,351,370,388,0,9,9,9,9,0,,,,,0,0,0,0,0,7,7,18,,,,,num_3,2.3308839999954216,num_3,0.25,0.8,0.15000000000000002,0.8,5.40644,28.83434,return,5.2599737999844365,,,,,,,9,21,female,left_right_width,2023_Aug_24_1051,exp1,2021.2.3,59.95473417302588,
,,,,,,,,,,,,,,,,5,8.6,9.3,10,10.7,11.4,0.7,0.44999999999999996,0.25,3.05,10,initial,36.05,310,335,361,386,411,9,9,9,9,9,,,,,0,0,0,0,0,8,8,44,,,,,num_4,1.1847784999990836,num_4,0.25,1.1,0.25,1.0,9.01073,36.04293,return,7.358078099990962,,,,,,,9,21,female,left_right_width,2023_Aug_24_1051,exp1,2021.2.3,59.95473417302588,
,,,,,,,,,,,,,,,,5,8.95,9.475,10,10.525,11.05,0.525,0.125,0.4,2.5,10,match,36.05,323,342,361,379,398,9,9,9,9,9,,,,,0,0,0,0,0,9,9,29,,,,,num_4,1.1650008000142407,num_4,0.45,1.2,0.55,0.7,19.82361,25.23005,return,7.591299799998524,,,,,,,9,21,female,left_right_width,2023_Aug_24_1051,exp1,2021.2.3,59.95473417302588,
,,,,,,,,,,,,,,,,4,9.3,9.766666666666667,10.233333333333333,10.7,0,0.4666666666666667,0.3666666666666667,0.1,1.5,10,match,36.05,335,352,369,386,0,9,9,9,9,0,,,,,0,0,0,0,0,10,10,7,,,,,num_4,1.460307900008047,num_4,0.3,0.8,0.3,0.6,10.81288,21.62576,return,3.337165599979926,,,,,,,9,21,female,left_right_width,2023_Aug_24_1051,exp1,2021.2.3,59.95473417302588,
,,,,,,,,,,,,,,,,3,9.1,10,10.9,0,0,0.9,0.8,0.1,1.9000000000000001,10,initial,36.05,328,361,393,0,0,9,9,9,0,0,,,,,0,0,0,0,0,11,11,12,,,,,num_3,1.776241299987305,num_3,0.3,0.6,0.15000000000000002,0.8,5.40644,28.83434,return,6.453830599988578,,,,,,,9,21,female,left_right_width,2023_Aug_24_1051,exp1,2021.2.3,59.95473417302588,
,,,,,,,,,,,,,,,,3,9.3,10,10.7,0,0,0.7,0.6,0.1,1.5,10,initial,36.05,335,361,386,0,0,9,9,9,0,0,,,,,0,0,0,0,0,12,12,6,,,,,num_3,1.0842933999956585,num_3,0.35,0.6,0.15000000000000002,0.85,5.40644,30.63649,return,4.638271200004965,,,,,,,9,21,female,left_right_width,2023_Aug_24_1051,exp1,2021.2.3,59.95473417302588,
,,,,,,,,,,,,,,,,5,8.65,9.325,10,10.675,11.35,0.6749999999999999,0.575,0.1,2.8,10,match,36.05,312,336,361,385,409,9,9,9,9,9,,,,,0,0,0,0,0,13,13,31,,,,,num_4,1.06896949998918,num_4,0.4,1.1,0.20000000000000007,0.8,7.20859,28.83434,return,8.575479999999516,,,,,,,9,21,female,left_right_width,2023_Aug_24_1051,exp1,2021.2.3,59.95473417302588,
,,,,,,,,,,,,,,,,5,9.175,9.5875,10,10.4125,10.825,0.4125,0.16249999999999998,0.25,1.9,10,match,36.05,331,346,361,375,390,9,9,9,9,9,,,,,0,0,0,0,0,14,14,23,,,,,num_4,1.1803417000046466,num_4,0.45,0.7,0.25000000000000006,0.7,9.01073,25.23005,return,5.580227900005411,,,,,,,9,21,female,left_right_width,2023_Aug_24_1051,exp1,2021.2.3,59.95473417302588,
,,,,,,,,,,,,,,,,5,8.2,9.1,10,10.9,11.8,0.9,0.65,0.25,3.85,10,initial,36.05,296,328,361,393,425,9,9,9,9,9,,,,,0,0,0,0,0,15,15,50,,,,,num_5,3.125692000001436,num_5,0.15,1.0,0.2,0.75,7.20859,27.0322,return,6.0082062000001315,,,,,,,9,21,female,left_right_width,2023_Aug_24_1051,exp1,2021.2.3,59.95473417302588,
,,,,,,,,,,,,,,,,4,9.5,9.833333333333334,10.166666666666666,10.5,0,0.3333333333333333,0.08333333333333333,0.25,1.25,10,match,36.05,342,354,367,379,0,9,9,9,9,0,,,,,0,0,0,0,0,16,16,3,,,,,num_4,1.7636726000055205,num_4,0.3,1.1,0.3,0.5,10.81288,18.02146,return,2.9565738000092097,,,,,,,9,21,female,left_right_width,2023_Aug_24_1051,exp1,2021.2.3,59.95473417302588,
,,,,,,,,,,,,,,,,4,9.5,9.833333333333334,10.166666666666666,10.5,0,0.33333333333333337,0.23333333333333336,0.1,1.1,10,match,36.05,342,354,367,379,0,9,9,9,9,0,,,,,0,0,0,0,0,17,17,1,,,,,num_4,2.502142699988326,num_4,0.2,0.8,0.2,0.4,7.20859,14.41717,return,5.19883259999915,,,,,,,9,21,female,left_right_width,2023_Aug_24_1051,exp1,2021.2.3,59.95473417302588,
,,,,,,,,,,,,,,,,5,9.25,9.625,10,10.375,10.75,0.375,0.275,0.1,1.6,10,match,36.05,333,347,361,374,388,9,9,9,9,9,,,,,0,0,0,0,0,18,18,19,,,,,num_5,2.4875114999886137,num_5,0.2,0.4,0.15000000000000002,0.35,5.40644,12.61502,return,5.471861300000455,,,,,,,9,21,female,left_right_width,2023_Aug_24_1051,exp1,2021.2.3,59.95473417302588,
,,,,,,,,,,,,,,,,3,8.2,10,11.8,0,0,1.8000000000000003,1.7000000000000002,0.1,3.7,10,match,36.05,296,361,425,0,0,9,9,9,0,0,,,,,0,0,0,0,0,19,19,49,,,,,num_2,3.277969499991741,num_2,0.15,1.6,0.15,1.3,5.40644,46.85581,return,3.801574100012658,,,,,,,9,21,female,left_right_width,2023_Aug_24_1051,exp1,2021.2.3,59.95473417302588,
,,,,,,,,,,,,,,,,4,9.1,9.7,10.3,10.9,0,0.6,0.5,0.1,1.9,10,match,36.05,328,350,371,393,0,9,9,9,9,0,,,,,0,0,0,0,0,20,20,13,,,,,num_4,1.3487016999861225,num_4,0.25,1.2,0.15000000000000002,0.8,5.40644,28.83434,return,5.453922800021246,,,,,,,9,21,female,left_right_width,2023_Aug_24_1051,exp1,2021.2.3,59.95473417302588,
,,,,,,,,,,,,,,,,3,9,10,11,0,0,1,0.75,0.25,2.25,10,match,36.05,324,361,397,0,0,9,9,9,0,0,,,,,0,0,0,0,0,21,21,39,,,,,num_3,1.4668635999842081,num_3,0.3,1.1,0.25,0.95,9.01073,34.24078,return,4.270371400023578,,,,,,,9,21,female,left_right_width,2023_Aug_24_1051,exp1,2021.2.3,59.95473417302588,
,,,,,,,,,,,,,,,,3,9.3,10,10.7,0,0,0.7,0.44999999999999996,0.25,1.65,10,initial,36.05,335,361,386,0,0,9,9,9,0,0,,,,,0,0,0,0,0,22,22,8,,,,,num_3,1.0216387000109535,num_3,0.4,1.3,0.25000000000000006,0.95,9.01073,34.24078,return,6.720246899989434,,,,,,,9,21,female,left_right_width,2023_Aug_24_1051,exp1,2021.2.3,59.95473417302588,
,,,,,,,,,,,,,,,,4,9.1,9.7,10.3,10.9,0,0.6000000000000001,0.20000000000000004,0.4,2.2,10,match,36.05,328,350,371,393,0,9,9,9,9,0,,,,,0,0,0,0,0,23,23,17,,,,,num_3,1.528920199983986,num_3,0.1,1.1,0.8500000000000001,1.0,30.63649,36.04293,return,12.13853399999789,,,,,,,9,21,female,left_right_width,2023_Aug_24_1051,exp1,2021.2.3,59.95473417302588,
,,,,,,,,,,,,,,,,5,8.65,9.325,10,10.675,11.35,0.675,0.42500000000000004,0.25,2.95,10,match,36.05,312,336,361,385,409,9,9,9,9,9,,,,,0,0,0,0,0,24,24,33,,,,,num_4,1.1376048999954946,num_4,0.45,0.6,0.45,0.6,16.21932,21.62576,return,3.4588115999940783,,,,,,,9,21,female,left_right_width,2023_Aug_24_1051,exp1,2021.2.3,59.95473417302588,
,,,,,,,,,,,,,,,,4,9.3,9.766666666666667,10.233333333333333,10.7,0,0.4666666666666667,0.06666666666666665,0.4,1.8,10,match,36.05,335,352,369,386,0,9,9,9,9,0,,,,,0,0,0,0,0,25,25,11,,,,,num_3,1.9570103000150993,num_3,0.2,1.3,0.6,0.8,21.62576,28.83434,return,9.606307599984575,,,,,,,9,21,female,left_right_width,2023_Aug_24_1051,exp1,2021.2.3,59.95473417302588,
,,,,,,,,,,,,,,,,4,9.3,9.766666666666667,10.233333333333333,10.7,0,0.4666666666666667,0.21666666666666665,0.25,1.65,10,match,36.05,335,352,369,386,0,9,9,9,9,0,,,,,0,0,0,0,0,26,26,9,,,,,num_4,1.131572700018296,num_4,0.2,0.6,0.35,0.5,12.61502,18.02146,return,11.99685889997636,,,,,,,9,21,female,left_right_width,2023_Aug_24_1051,exp1,2021.2.3,59.95473417302588,
,,,,,,,,,,,,,,,,4,9.1,9.7,10.3,10.9,0,0.5999999999999999,0.3499999999999999,0.25,2.05,10,match,36.05,328,350,371,393,0,9,9,9,9,0,,,,,0,0,0,0,0,27,27,15,,,,,num_4,1.4563463999947999,num_4,0.3,0.5,0.3,0.6,10.81288,21.62576,return,6.548706000001403,,,,,,,9,21,female,left_right_width,2023_Aug_24_1051,exp1,2021.2.3,59.95473417302588,
,,,,,,,,,,,,,,,,5,8.2,9.1,10,10.9,11.8,0.9,0.5,0.4,4,10,initial,36.05,296,328,361,393,425,9,9,9,9,9,,,,,0,0,0,0,0,28,28,52,,,,,num_5,2.821702900022501,num_5,0.15,0.3,0.2,0.45,7.20859,16.21932,return,5.138952299981611,,,,,,,9,21,female,left_right_width,2023_Aug_24_1051,exp1,2021.2.3,59.95473417302588,
,,,,,,,,,,,,,,,,3,9.5,10,10.5,0,0,0.5,0.25,0.25,1.25,10,initial,36.05,342,361,379,0,0,9,9,9,0,0,,,,,0,0,0,0,0,29,29,2,,,,,num_3,1.160264999984065,num_3,0.1,0.5,0.25,0.55,9.01073,19.82361,return,5.99321349998354,,,,,,,9,21,female,left_right_width,2023_Aug_24_1051,exp1,2021.2.3,59.95473417302588,
,,,,,,,,,,,,,,,,5,9.25,9.625,10,10.375,10.75,0.375,0.125,0.25,1.75,10,match,36.05,333,347,361,374,388,9,9,9,9,9,,,,,0,0,0,0,0,30,30,21,,,,,num_4,2.6616759999888018,num_4,0.4,1.1,0.25000000000000006,0.5,9.01073,18.02146,return,8.601973300013924,,,,,,,9,21,female,left_right_width,2023_Aug_24_1051,exp1,2021.2.3,59.95473417302588,
,,,,,,,,,,,,,,,,4,8.65,9.55,10.45,11.35,0,0.9,0.65,0.25,2.95,10,initial,36.05,312,344,377,409,0,9,9,9,9,0,,,,,0,0,0,0,0,31,31,32,,,,,num_3,3.6987746999948286,num_3,0.3,1,0.3,0.5,10.81288,18.02146,return,5.514999699982582,,,,,,,9,21,female,left_right_width,2023_Aug_24_1051,exp1,2021.2.3,59.95473417302588,
,,,,,,,,,,,,,,,,3,9,10,11,0,0,0.9999999999999999,0.5999999999999999,0.4,2.4,10,match,36.05,324,361,397,0,0,9,9,9,0,0,,,,,0,0,0,0,0,32,32,41,,,,,num_3,1.076212400017539,num_3,0.3,0.6,0.3,0.9,10.81288,32.43864,return,4.325824800005648,,,,,,,9,21,female,left_right_width,2023_Aug_24_1051,exp1,2021.2.3,59.95473417302588,
,,,,,,,,,,,,,,,,3,9.1,10,10.9,0,0,0.9,0.65,0.25,2.05,10,initial,36.05,328,361,393,0,0,9,9,9,0,0,,,,,0,0,0,0,0,33,33,14,,,,,num_3,0.9734664999996312,num_3,0.1,1.3,0.15000000000000002,0.75,5.40644,27.0322,return,12.837834100006148,,,,,,,9,21,female,left_right_width,2023_Aug_24_1051,exp1,2021.2.3,59.95473417302588,
,,,,,,,,,,,,,,,,3,8.6,10,11.4,0,0,1.4,1.15,0.25,3.05,10,match,36.05,310,361,411,0,0,9,9,9,0,0,,,,,0,0,0,0,0,34,34,45,,,,,num_3,1.892983900004765,num_3,0.15,1.2,0.15,0.85,5.40644,30.63649,return,3.989457699994091,,,,,,,9,21,female,left_right_width,2023_Aug_24_1051,exp1,2021.2.3,59.95473417302588,
,,,,,,,,,,,,,,,,3,9.5,10,10.5,0,0,0.5,0.09999999999999998,0.4,1.4000000000000001,10,initial,36.05,342,361,379,0,0,9,9,9,0,0,,,,,0,0,0,0,0,35,35,4,,,,,num_3,1.3969707999785896,num_3,0.25,1.2,0.3,0.6,10.81288,21.62576,return,5.260316600004444,,,,,,,9,21,female,left_right_width,2023_Aug_24_1051,exp1,2021.2.3,59.95473417302588,
,,,,,,,,,,,,,,,,4,8.65,9.55,10.45,11.35,0,0.9,0.8,0.1,2.8000000000000003,10,initial,36.05,312,344,377,409,0,9,9,9,9,0,,,,,0,0,0,0,0,36,36,30,,,,,num_3,1.030370300024515,num_3,0.35,0.5,0.15000000000000002,0.85,5.40644,30.63649,return,5.917685699998401,,,,,,,9,21,female,left_right_width,2023_Aug_24_1051,exp1,2021.2.3,59.95473417302588,
,,,,,,,,,,,,,,,,4,8.65,9.55,10.45,11.35,0,0.9,0.5,0.4,3.1,10,initial,36.05,312,344,377,409,0,9,9,9,9,0,,,,,0,0,0,0,0,37,37,34,,,,,num_3,1.3845405000029132,num_3,0.25,0.9,0.39999999999999997,0.9,14.41717,32.43864,return,3.3924760000081733,,,,,,,9,21,female,left_right_width,2023_Aug_24_1051,exp1,2021.2.3,59.95473417302588,
,,,,,,,,,,,,,,,,5,9,9.5,10,10.5,11,0.5,0.4,0.1,2.1,10,initial,36.05,324,342,361,379,397,9,9,9,9,9,,,,,0,0,0,0,0,38,38,36,,,,,num_4,1.0291409000055864,num_4,0.15,1.3,0.15000000000000002,0.7,5.40644,25.23005,return,5.848407600016799,,,,,,,9,21,female,left_right_width,2023_Aug_24_1051,exp1,2021.2.3,59.95473417302588,
,,,,,,,,,,,,,,,,4,8.95,9.65,10.35,11.05,0,0.7,0.44999999999999996,0.25,2.3499999999999996,10,initial,36.05,323,348,373,398,0,9,9,9,9,0,,,,,0,0,0,0,0,39,39,26,,,,,num_4,1.2653790999902412,num_4,0.45,0.8,0.20000000000000007,0.6,7.20859,21.62576,return,4.126004899997497,,,,,,,9,21,female,left_right_width,2023_Aug_24_1051,exp1,2021.2.3,59.95473417302588,
,,,,,,,,,,,,,,,,5,8.6,9.3,10,10.7,11.4,0.7,0.29999999999999993,0.4,3.1999999999999997,10,initial,36.05,310,335,361,386,411,9,9,9,9,9,,,,,0,0,0,0,0,40,40,46,,,,,num_5,1.3138149000005797,num_5,0.15,1.3,0.3,0.65,10.81288,23.4279,return,8.7009102999873,,,,,,,9,21,female,left_right_width,2023_Aug_24_1051,exp1,2021.2.3,59.95473417302588,
,,,,,,,,,,,,,,,,3,8.525,10,11.475,0,0,1.475,1.225,0.25,3.2,10,match,36.05,307,361,414,0,0,9,9,9,0,0,,,,,0,0,0,0,0,41,41,47,,,,,num_2,2.348253100004513,num_2,0.45,1.6,0.25000000000000006,1.4,9.01073,50.4601,return,6.013929399981862,,,,,,,9,21,female,left_right_width,2023_Aug_24_1051,exp1,2021.2.3,59.95473417302588,
,,,,,,,,,,,,,,,,3,9,10,11,0,0,1,0.9,0.1,2.1,10,match,36.05,324,361,397,0,0,9,9,9,0,0,,,,,0,0,0,0,0,42,42,37,,,,,num_2,1.2312819999933708,num_2,0.3,1.6,0.15000000000000002,1.6,5.40644,57.66869,return,5.085174999985611,,,,,,,9,21,female,left_right_width,2023_Aug_24_1051,exp1,2021.2.3,59.95473417302588,
,,,,,,,,,,,,,,,,3,9.3,10,10.7,0,0,0.7,0.29999999999999993,0.4,1.8,10,initial,36.05,335,361,386,0,0,9,9,9,0,0,,,,,0,0,0,0,0,43,43,10,,,,,num_3,1.24228450001101,num_3,0.25,0.5,0.2,0.75,7.20859,27.0322,return,3.9115278999961447,,,,,,,9,21,female,left_right_width,2023_Aug_24_1051,exp1,2021.2.3,59.95473417302588,
,,,,,,,,,,,,,,,,5,8.95,9.475,10,10.525,11.05,0.525,0.275,0.25,2.35,10,match,36.05,323,342,361,379,398,9,9,9,9,9,,,,,0,0,0,0,0,44,44,27,,,,,num_4,1.0957435000163969,num_4,0.25,1.2,0.2,0.9,7.20859,32.43864,return,2.5708009999943897,,,,,,,9,21,female,left_right_width,2023_Aug_24_1051,exp1,2021.2.3,59.95473417302588,
,,,,,,,,,,,,,,,,3,9.1,10,10.9,0,0,0.9,0.5,0.4,2.2,10,initial,36.05,328,361,393,0,0,9,9,9,0,0,,,,,0,0,0,0,0,45,45,16,,,,,num_2,1.7129999999888241,num_2,0.15,1.6,0.3,1.4,10.81288,50.4601,return,3.6102488999895286,,,,,,,9,21,female,left_right_width,2023_Aug_24_1051,exp1,2021.2.3,59.95473417302588,
,,,,,,,,,,,,,,,,5,9,9.5,10,10.5,11,0.5,0.25,0.25,2.25,10,initial,36.05,324,342,361,379,397,9,9,9,9,9,,,,,0,0,0,0,0,46,46,38,,,,,num_4,1.003435399994487,num_4,0.4,0.8,0.20000000000000007,0.7,7.20859,25.23005,return,3.4425737999845296,,,,,,,9,21,female,left_right_width,2023_Aug_24_1051,exp1,2021.2.3,59.95473417302588,
,,,,,,,,,,,,,,,,3,8.6,10,11.4,0,0,1.4,1.2999999999999998,0.1,2.9,10,match,36.05,310,361,411,0,0,9,9,9,0,0,,,,,0,0,0,0,0,47,47,43,,,,,num_2,1.4067902000097092,num_2,0.35,1.6,0.15000000000000002,1.6,5.40644,57.66869,return,3.1099634999991395,,,,,,,9,21,female,left_right_width,2023_Aug_24_1051,exp1,2021.2.3,59.95473417302588,
,,,,,,,,,,,,,,,,5,8.2,9.1,10,10.9,11.8,0.9,0.8,0.1,3.7,10,initial,36.05,296,328,361,393,425,9,9,9,9,9,,,,,0,0,0,0,0,48,48,48,,,,,num_4,1.129804200027138,num_4,0.1,1.3,0.1,1.0,3.60429,36.04293,return,3.385764200007543,,,,,,,9,21,female,left_right_width,2023_Aug_24_1051,exp1,2021.2.3,59.95473417302588,
,,,,,,,,,,,,,,,,3,8.2,10,11.8,0,0,1.8,1.55,0.25,3.85,10,match,36.05,296,361,425,0,0,9,9,9,0,0,,,,,0,0,0,0,0,49,49,51,,,,,num_2,1.6907825999951456,num_2,0.25,1.6,0.15000000000000002,1.6,5.40644,57.66869,return,3.4441164000018034,,,,,,,9,21,female,left_right_width,2023_Aug_24_1051,exp1,2021.2.3,59.95473417302588,
,,,,,,,,,,,,,,,,4,9.425,9.808333333333334,10.191666666666666,10.575,0,0.3833333333333333,0.1333333333333333,0.25,1.4,10,match,36.05,340,354,367,381,0,9,9,9,9,0,,,,,0,0,0,0,0,50,50,5,,,,,num_3,0.9949030999850947,num_3,0.1,1.1,0.25,0.75,9.01073,27.0322,return,6.3303011000098195,,,,,,,9,21,female,left_right_width,2023_Aug_24_1051,exp1,2021.2.3,59.95473417302588,
,,,,,,,,,,,,,,,,3,9.5,10,10.5,0,0,0.5,0.4,0.1,1.1,10,initial,36.05,342,361,379,0,0,9,9,9,0,0,,,,,0,0,0,0,0,51,51,0,,,,,num_3,1.2415290999924764,num_3,0.3,0.4,0.10000000000000002,0.55,3.60429,19.82361,return,4.662450000003446,,,,,,,9,21,female,left_right_width,2023_Aug_24_1051,exp1,2021.2.3,59.95473417302588,
,,,,,,,,,,,,,,,,4,9.25,9.75,10.25,10.75,0,0.5,0.09999999999999998,0.4,1.9,10,initial,36.05,333,351,370,388,0,9,9,9,9,0,,,,,0,0,0,0,0,52,52,22,,,,,num_3,1.0770731999946292,num_3,0.15,0.5,0.35,0.55,12.61502,19.82361,return,3.513528600014979,,,,,,,9,21,female,left_right_width,2023_Aug_24_1051,exp1,2021.2.3,59.95473417302588,
,,,,,,,,,,,,,,,,5,8.65,9.325,10,10.675,11.35,0.675,0.275,0.4,3.1,10,match,36.05,312,336,361,385,409,9,9,9,9,9,,,,,0,0,0,0,0,53,53,35,,,,,num_4,1.0206658999959473,num_4,0.4,0.7,0.4,0.7,14.41717,25.23005,return,1.2506733999762218,,,,,,,9,21,female,left_right_width,2023_Aug_24_1051,exp1,2021.2.3,59.95473417302588,
,,,,,,,,,,,,,,,,,,,,,,,,,,,,,,,,,,,,,,,,,,,0,0,0,0,,,,,,,,,,,,,,,,,,,,,,780.2071290999884,None,780.2071290999884,None,9,21,female,left_right_width,2023_Aug_24_1051,exp1,2021.2.3,59.95473417302588,
,,,,,,,,,,,,,,,,5,8.65,9.325,10,10.675,11.35,0.6749999999999999,0.575,0.1,2.8,10,match,36.05,312,336,361,385,409,9,9,9,9,9,,,,,1,0,1,0,0,0,0,31,,,,,num_4,1.0536231999867596,num_4,0.2,0.9,0.15000000000000002,0.7,5.40644,25.23005,return,2.5940448000037577,,,,,,,9,21,female,left_right_width,2023_Aug_24_1051,exp1,2021.2.3,59.95473417302588,
,,,,,,,,,,,,,,,,4,9.25,9.75,10.25,10.75,0,0.5,0.4,0.1,1.6,10,initial,36.05,333,351,370,388,0,9,9,9,9,0,,,,,1,0,1,0,0,1,1,18,,,,,num_4,1.0150461999874096,num_4,0.15,0.6,0.09999999999999999,0.7,3.60429,25.23005,return,4.014348999975482,,,,,,,9,21,female,left_right_width,2023_Aug_24_1051,exp1,2021.2.3,59.95473417302588,
,,,,,,,,,,,,,,,,3,9.5,10,10.5,0,0,0.5,0.25,0.25,1.25,10,initial,36.05,342,361,379,0,0,9,9,9,0,0,,,,,1,0,1,0,0,2,2,2,,,,,num_3,1.1300437000172678,num_3,0.25,0.3,0.25,0.6,9.01073,21.62576,return,19.484542000020156,,,,,,,9,21,female,left_right_width,2023_Aug_24_1051,exp1,2021.2.3,59.95473417302588,
,,,,,,,,,,,,,,,,4,8.65,9.55,10.45,11.35,0,0.9,0.65,0.25,2.95,10,initial,36.05,312,344,377,409,0,9,9,9,9,0,,,,,1,0,1,0,0,3,3,32,,,,,num_3,1.298265600024024,num_3,0.35,0.5,0.25,0.9,9.01073,32.43864,return,11.02173269999912,,,,,,,9,21,female,left_right_width,2023_Aug_24_1051,exp1,2021.2.3,59.95473417302588,
,,,,,,,,,,,,,,,,3,9,10,11,0,0,1,0.9,0.1,2.1,10,match,36.05,324,361,397,0,0,9,9,9,0,0,,,,,1,0,1,0,0,4,4,37,,,,,num_2,1.256214799999725,num_2,0.35,1.6,0.15000000000000002,1.6,5.40644,57.66869,return,7.5878150000062305,,,,,,,9,21,female,left_right_width,2023_Aug_24_1051,exp1,2021.2.3,59.95473417302588,
,,,,,,,,,,,,,,,,3,9.3,10,10.7,0,0,0.7,0.44999999999999996,0.25,1.65,10,initial,36.05,335,361,386,0,0,9,9,9,0,0,,,,,1,0,1,0,0,5,5,8,,,,,num_2,1.0795802999928128,num_2,0.35,1.6,0.25,1.0,9.01073,36.04293,return,4.025450599991018,,,,,,,9,21,female,left_right_width,2023_Aug_24_1051,exp1,2021.2.3,59.95473417302588,
,,,,,,,,,,,,,,,,5,9,9.5,10,10.5,11,0.5,0.4,0.1,2.1,10,initial,36.05,324,342,361,379,397,9,9,9,9,9,,,,,1,0,1,0,0,6,6,36,,,,,num_4,1.014861200004816,num_4,0.1,1.2,0.1,0.9,3.60429,32.43864,return,1.9183334999834187,,,,,,,9,21,female,left_right_width,2023_Aug_24_1051,exp1,2021.2.3,59.95473417302588,
,,,,,,,,,,,,,,,,4,9.1,9.7,10.3,10.9,0,0.6000000000000001,0.20000000000000004,0.4,2.2,10,match,36.05,328,350,371,393,0,9,9,9,9,0,,,,,1,0,1,0,0,7,7,17,,,,,num_3,0.9615737999847624,num_3,0.35,0.6,0.25,0.8,9.01073,28.83434,return,7.162809699977515,,,,,,,9,21,female,left_right_width,2023_Aug_24_1051,exp1,2021.2.3,59.95473417302588,
,,,,,,,,,,,,,,,,3,8.2,10,11.8,0,0,1.7999999999999998,1.4,0.4,4,10,match,36.05,296,361,425,0,0,9,9,9,0,0,,,,,1,0,1,0,0,8,8,53,,,,,num_2,0.9804932000115514,num_2,0.25,1.6,0.35,2.2,12.61502,79.29444,return,4.58893289999105,,,,,,,9,21,female,left_right_width,2023_Aug_24_1051,exp1,2021.2.3,59.95473417302588,
,,,,,,,,,,,,,,,,3,8.2,10,11.8,0,0,1.8000000000000003,1.7000000000000002,0.1,3.7,10,match,36.05,296,361,425,0,0,9,9,9,0,0,,,,,1,0,1,0,0,9,9,49,,,,,num_2,1.1573886999976821,num_2,0.15,1.6,0.15,2.3,5.40644,82.89874,return,4.517173100000946,,,,,,,9,21,female,left_right_width,2023_Aug_24_1051,exp1,2021.2.3,59.95473417302588,
,,,,,,,,,,,,,,,,4,9.3,9.766666666666667,10.233333333333333,10.7,0,0.4666666666666667,0.21666666666666665,0.25,1.65,10,match,36.05,335,352,369,386,0,9,9,9,9,0,,,,,1,0,1,0,0,10,10,9,,,,,num_3,1.8922568999987561,num_3,0.45,1.1,0.4,0.75,14.41717,27.0322,return,5.32005370000843,,,,,,,9,21,female,left_right_width,2023_Aug_24_1051,exp1,2021.2.3,59.95473417302588,
,,,,,,,,,,,,,,,,5,9,9.5,10,10.5,11,0.5,0.25,0.25,2.25,10,initial,36.05,324,342,361,379,397,9,9,9,9,9,,,,,1,0,1,0,0,11,11,38,,,,,num_4,1.0495831999869552,num_4,0.35,1.2,0.35,0.7,12.61502,25.23005,return,4.383979000005638,,,,,,,9,21,female,left_right_width,2023_Aug_24_1051,exp1,2021.2.3,59.95473417302588,
,,,,,,,,,,,,,,,,5,8.95,9.475,10,10.525,11.05,0.525,0.275,0.25,2.35,10,match,36.05,323,342,361,379,398,9,9,9,9,9,,,,,1,0,1,0,0,12,12,27,,,,,num_4,1.1162813000264578,num_4,0.4,0.7,0.4,0.7,14.41717,25.23005,return,1.2639322000031825,,,,,,,9,21,female,left_right_width,2023_Aug_24_1051,exp1,2021.2.3,59.95473417302588,
,,,,,,,,,,,,,,,,3,9.1,10,10.9,0,0,0.9,0.65,0.25,2.05,10,initial,36.05,328,361,393,0,0,9,9,9,0,0,,,,,1,0,1,0,0,13,13,14,,,,,num_2,0.9430564999929629,num_2,0.1,1.6,0.25,1.0,9.01073,36.04293,return,3.7993730999878608,,,,,,,9,21,female,left_right_width,2023_Aug_24_1051,exp1,2021.2.3,59.95473417302588,
,,,,,,,,,,,,,,,,4,9.3,9.766666666666667,10.233333333333333,10.7,0,0.4666666666666667,0.3666666666666667,0.1,1.5,10,match,36.05,335,352,369,386,0,9,9,9,9,0,,,,,1,0,1,0,0,14,14,7,,,,,num_3,1.0848450000048615,num_3,0.2,0.9,0.2,0.7,7.20859,25.23005,return,2.078204999997979,,,,,,,9,21,female,left_right_width,2023_Aug_24_1051,exp1,2021.2.3,59.95473417302588,
,,,,,,,,,,,,,,,,3,9.3,10,10.7,0,0,0.7,0.6,0.1,1.5,10,initial,36.05,335,361,386,0,0,9,9,9,0,0,,,,,1,0,1,0,0,15,15,6,,,,,num_2,1.0461615000094753,num_2,0.15,1.6,0.15,1.1,5.40644,39.64722,return,3.147742400004063,,,,,,,9,21,female,left_right_width,2023_Aug_24_1051,exp1,2021.2.3,59.95473417302588,
,,,,,,,,,,,,,,,,5,9.175,9.5875,10,10.4125,10.825,0.4125,0.16249999999999998,0.25,1.9,10,match,36.05,331,346,361,375,390,9,9,9,9,9,,,,,1,0,1,0,0,16,16,23,,,,,num_4,1.3864499000192154,num_4,0.3,0.5,0.3,0.5,10.81288,18.02146,return,1.0392992999986745,,,,,,,9,21,female,left_right_width,2023_Aug_24_1051,exp1,2021.2.3,59.95473417302588,
,,,,,,,,,,,,,,,,3,9.5,10,10.5,0,0,0.5,0.4,0.1,1.1,10,initial,36.05,342,361,379,0,0,9,9,9,0,0,,,,,1,0,1,0,0,17,17,0,,,,,num_2,0.9741335999860894,num_2,0.15,1.6,0.09999999999999999,0.8,3.60429,28.83434,return,3.4314163000090048,,,,,,,9,21,female,left_right_width,2023_Aug_24_1051,exp1,2021.2.3,59.95473417302588,
,,,,,,,,,,,,,,,,5,8.6,9.3,10,10.7,11.4,0.7,0.29999999999999993,0.4,3.1999999999999997,10,initial,36.05,310,335,361,386,411,9,9,9,9,9,,,,,1,0,1,0,0,18,18,46,,,,,num_4,1.4876514000061434,num_4,0.1,1.2,0.39999999999999997,1.1,14.41717,39.64722,return,4.9135228999948595,,,,,,,9,21,female,left_right_width,2023_Aug_24_1051,exp1,2021.2.3,59.95473417302588,
,,,,,,,,,,,,,,,,3,9.5,10,10.5,0,0,0.5,0.09999999999999998,0.4,1.4000000000000001,10,initial,36.05,342,361,379,0,0,9,9,9,0,0,,,,,1,0,1,0,0,19,19,4,,,,,num_3,1.7807697000098415,num_3,0.45,0.9,0.35000000000000003,0.65,12.61502,23.4279,return,4.589669799985131,,,,,,,9,21,female,left_right_width,2023_Aug_24_1051,exp1,2021.2.3,59.95473417302588,
,,,,,,,,,,,,,,,,5,8.6,9.3,10,10.7,11.4,0.7,0.6,0.1,2.9,10,initial,36.05,310,335,361,386,411,9,9,9,9,9,,,,,1,0,1,0,0,20,20,42,,,,,num_4,1.2597081999992952,num_4,0.4,1.0,0.15000000000000008,0.9,5.40644,32.43864,return,2.984713299985742,,,,,,,9,21,female,left_right_width,2023_Aug_24_1051,exp1,2021.2.3,59.95473417302588,
,,,,,,,,,,,,,,,,3,9.1,10,10.9,0,0,0.9,0.8,0.1,1.9000000000000001,10,initial,36.05,328,361,393,0,0,9,9,9,0,0,,,,,1,0,1,0,0,21,21,12,,,,,num_2,1.0116202000062913,num_2,0.25,1.6,0.10000000000000002,1.6,3.60429,57.66869,return,2.8543338000017684,,,,,,,9,21,female,left_right_width,2023_Aug_24_1051,exp1,2021.2.3,59.95473417302588,
,,,,,,,,,,,,,,,,5,8.65,9.325,10,10.675,11.35,0.675,0.275,0.4,3.1,10,match,36.05,312,336,361,385,409,9,9,9,9,9,,,,,1,0,1,0,0,22,22,35,,,,,num_4,0.938330799981486,num_4,0.4,0.5,0.45,0.9,16.21932,32.43864,return,8.147250699985307,,,,,,,9,21,female,left_right_width,2023_Aug_24_1051,exp1,2021.2.3,59.95473417302588,
,,,,,,,,,,,,,,,,5,8.2,9.1,10,10.9,11.8,0.9,0.65,0.25,3.85,10,initial,36.05,296,328,361,393,425,9,9,9,9,9,,,,,1,0,1,0,0,23,23,50,,,,,num_5,1.658251900022151,num_5,0.15,1.2,0.25,1.1,9.01073,39.64722,return,6.740568200009875,,,,,,,9,21,female,left_right_width,2023_Aug_24_1051,exp1,2021.2.3,59.95473417302588,
,,,,,,,,,,,,,,,,3,8.6,10,11.4,0,0,1.4,1.2999999999999998,0.1,2.9,10,match,36.05,310,361,411,0,0,9,9,9,0,0,,,,,1,0,1,0,0,24,24,43,,,,,num_2,1.0875341999926604,num_2,0.25,1.6,0.2,2.0,7.20859,72.08586,return,3.264115199999651,,,,,,,9,21,female,left_right_width,2023_Aug_24_1051,exp1,2021.2.3,59.95473417302588,
,,,,,,,,,,,,,,,,3,9,10,11,0,0,0.9999999999999999,0.5999999999999999,0.4,2.4,10,match,36.05,324,361,397,0,0,9,9,9,0,0,,,,,1,0,1,0,0,25,25,41,,,,,num_2,0.9208516999788117,num_2,0.2,1.6,0.3,1.7,10.81288,61.27298,return,2.0827384000003804,,,,,,,9,21,female,left_right_width,2023_Aug_24_1051,exp1,2021.2.3,59.95473417302588,
,,,,,,,,,,,,,,,,4,8.95,9.65,10.35,11.05,0,0.7,0.44999999999999996,0.25,2.3499999999999996,10,initial,36.05,323,348,373,398,0,9,9,9,9,0,,,,,1,0,1,0,0,26,26,26,,,,,num_2,1.286280500004068,num_2,0.25,1.6,0.35,1.6,12.61502,57.66869,return,2.0022258999815676,,,,,,,9,21,female,left_right_width,2023_Aug_24_1051,exp1,2021.2.3,59.95473417302588,
,,,,,,,,,,,,,,,,4,9.3,9.766666666666667,10.233333333333333,10.7,0,0.4666666666666667,0.06666666666666665,0.4,1.8,10,match,36.05,335,352,369,386,0,9,9,9,9,0,,,,,1,0,1,0,0,27,27,11,,,,,num_3,0.9383802999800537,num_3,0.35,0.8,0.44999999999999996,0.75,16.21932,27.0322,return,3.731139199982863,,,,,,,9,21,female,left_right_width,2023_Aug_24_1051,exp1,2021.2.3,59.95473417302588,
,,,,,,,,,,,,,,,,4,8.95,9.65,10.35,11.05,0,0.7,0.29999999999999993,0.4,2.5,10,initial,36.05,323,348,373,398,0,9,9,9,9,0,,,,,1,0,1,0,0,28,28,28,,,,,num_3,1.0311322000052314,num_3,0.4,1,0.45,0.8,16.21932,28.83434,return,3.357857299997704,,,,,,,9,21,female,left_right_width,2023_Aug_24_1051,exp1,2021.2.3,59.95473417302588,
,,,,,,,,,,,,,,,,4,8.65,9.55,10.45,11.35,0,0.9,0.5,0.4,3.1,10,initial,36.05,312,344,377,409,0,9,9,9,9,0,,,,,1,0,1,0,0,29,29,34,,,,,num_3,0.9847635999904014,num_3,0.2,1.1,0.35,1.05,12.61502,37.84507,return,2.5768330999999307,,,,,,,9,21,female,left_right_width,2023_Aug_24_1051,exp1,2021.2.3,59.95473417302588,
,,,,,,,,,,,,,,,,5,8.6,9.3,10,10.7,11.4,0.7,0.44999999999999996,0.25,3.05,10,initial,36.05,310,335,361,386,411,9,9,9,9,9,,,,,1,0,1,0,0,30,30,44,,,,,num_5,1.0882779999810737,num_5,0.45,0.8,0.25000000000000006,0.7,9.01073,25.23005,return,5.107045599987032,,,,,,,9,21,female,left_right_width,2023_Aug_24_1051,exp1,2021.2.3,59.95473417302588,
,,,,,,,,,,,,,,,,5,8.65,9.325,10,10.675,11.35,0.675,0.42500000000000004,0.25,2.95,10,match,36.05,312,336,361,385,409,9,9,9,9,9,,,,,1,0,1,0,0,31,31,33,,,,,num_5,2.6335917999967933,num_5,0.15,1.2,0.15,0.6,5.40644,21.62576,return,5.174001799983671,,,,,,,9,21,female,left_right_width,2023_Aug_24_1051,exp1,2021.2.3,59.95473417302588,
,,,,,,,,,,,,,,,,3,8.6,10,11.4,0,0,1.4,1.15,0.25,3.05,10,match,36.05,310,361,411,0,0,9,9,9,0,0,,,,,1,0,1,0,0,32,32,45,,,,,num_3,1.0375305000052322,num_3,0.45,0.8,0.20000000000000007,1.15,7.20859,41.44937,return,6.89843380000093,,,,,,,9,21,female,left_right_width,2023_Aug_24_1051,exp1,2021.2.3,59.95473417302588,
,,,,,,,,,,,,,,,,5,8.95,9.475,10,10.525,11.05,0.525,0.125,0.4,2.5,10,match,36.05,323,342,361,379,398,9,9,9,9,9,,,,,1,0,1,0,0,33,33,29,,,,,num_3,3.665550300007453,num_3,0.35,0.7,0.35,0.55,12.61502,19.82361,return,7.804147599992575,,,,,,,9,21,female,left_right_width,2023_Aug_24_1051,exp1,2021.2.3,59.95473417302588,
,,,,,,,,,,,,,,,,4,9.5,9.833333333333334,10.166666666666666,10.5,0,0.33333333333333337,0.23333333333333336,0.1,1.1,10,match,36.05,342,354,367,379,0,9,9,9,9,0,,,,,1,0,1,0,0,34,34,1,,,,,num_3,1.2084205000137445,num_3,0.35,0.6,0.2,0.45,7.20859,16.21932,return,5.336032599996543,,,,,,,9,21,female,left_right_width,2023_Aug_24_1051,exp1,2021.2.3,59.95473417302588,
,,,,,,,,,,,,,,,,3,9.3,10,10.7,0,0,0.7,0.29999999999999993,0.4,1.8,10,initial,36.05,335,361,386,0,0,9,9,9,0,0,,,,,1,0,1,0,0,35,35,10,,,,,num_2,1.0423844000033569,num_2,0.25,1.6,0.44999999999999996,1.0,16.21932,36.04293,return,3.368685399997048,,,,,,,9,21,female,left_right_width,2023_Aug_24_1051,exp1,2021.2.3,59.95473417302588,
,,,,,,,,,,,,,,,,4,9.1,9.7,10.3,10.9,0,0.5999999999999999,0.3499999999999999,0.25,2.05,10,match,36.05,328,350,371,393,0,9,9,9,9,0,,,,,1,0,1,0,0,36,36,15,,,,,num_3,0.8656425999943167,num_3,0.15,0.9,0.3,0.8,10.81288,28.83434,return,3.35836479999125,,,,,,,9,21,female,left_right_width,2023_Aug_24_1051,exp1,2021.2.3,59.95473417302588,
,,,,,,,,,,,,,,,,3,8.2,10,11.8,0,0,1.8,1.55,0.25,3.85,10,match,36.05,296,361,425,0,0,9,9,9,0,0,,,,,1,0,1,0,0,37,37,51,,,,,num_2,1.0065374000114389,num_2,0.1,1.6,0.2,2.0,7.20859,72.08586,return,7.20463320001727,,,,,,,9,21,female,left_right_width,2023_Aug_24_1051,exp1,2021.2.3,59.95473417302588,
,,,,,,,,,,,,,,,,5,9.25,9.625,10,10.375,10.75,0.375,0.275,0.1,1.6,10,match,36.05,333,347,361,374,388,9,9,9,9,9,,,,,1,0,1,0,0,38,38,19,,,,,num_4,1.3176998000126332,num_4,0.15,0.3,0.15,0.7,5.40644,25.23005,return,3.5486740000196733,,,,,,,9,21,female,left_right_width,2023_Aug_24_1051,exp1,2021.2.3,59.95473417302588,
,,,,,,,,,,,,,,,,4,9.425,9.808333333333334,10.191666666666666,10.575,0,0.3833333333333333,0.1333333333333333,0.25,1.4,10,match,36.05,340,354,367,381,0,9,9,9,9,0,,,,,1,0,1,0,0,39,39,5,,,,,num_3,1.171057200001087,num_3,0.2,1.3,0.2,0.6,7.20859,21.62576,return,4.592546700005187,,,,,,,9,21,female,left_right_width,2023_Aug_24_1051,exp1,2021.2.3,59.95473417302588,
,,,,,,,,,,,,,,,,4,9.25,9.75,10.25,10.75,0,0.5,0.25,0.25,1.75,10,initial,36.05,333,351,370,388,0,9,9,9,9,0,,,,,1,0,1,0,0,40,40,20,,,,,num_3,1.1534290999989025,num_3,0.3,0.5,0.3,0.7,10.81288,25.23005,return,2.833922799996799,,,,,,,9,21,female,left_right_width,2023_Aug_24_1051,exp1,2021.2.3,59.95473417302588,
,,,,,,,,,,,,,,,,3,9.1,10,10.9,0,0,0.9,0.5,0.4,2.2,10,initial,36.05,328,361,393,0,0,9,9,9,0,0,,,,,1,0,1,0,0,41,41,16,,,,,num_2,0.9536732999840751,num_2,0.45,1.6,0.4,1.1,14.41717,39.64722,return,3.9400683999992907,,,,,,,9,21,female,left_right_width,2023_Aug_24_1051,exp1,2021.2.3,59.95473417302588,
,,,,,,,,,,,,,,,,5,8.2,9.1,10,10.9,11.8,0.9,0.5,0.4,4,10,initial,36.05,296,328,361,393,425,9,9,9,9,9,,,,,1,0,1,0,0,42,42,52,,,,,num_4,0.9348305999883451,num_4,0.3,0.5,0.3,0.8,10.81288,28.83434,return,3.4385728999914136,,,,,,,9,21,female,left_right_width,2023_Aug_24_1051,exp1,2021.2.3,59.95473417302588,
,,,,,,,,,,,,,,,,5,8.2,9.1,10,10.9,11.8,0.9,0.8,0.1,3.7,10,initial,36.05,296,328,361,393,425,9,9,9,9,9,,,,,1,0,1,0,0,43,43,48,,,,,num_4,1.021786700002849,num_4,0.25,0.4,0.15000000000000002,0.9,5.40644,32.43864,return,4.595918800012441,,,,,,,9,21,female,left_right_width,2023_Aug_24_1051,exp1,2021.2.3,59.95473417302588,
,,,,,,,,,,,,,,,,3,8.525,10,11.475,0,0,1.475,1.225,0.25,3.2,10,match,36.05,307,361,414,0,0,9,9,9,0,0,,,,,1,0,1,0,0,44,44,47,,,,,num_2,1.176317299978109,num_2,0.3,1.6,0.2,1.5,7.20859,54.06439,return,3.1602932999958284,,,,,,,9,21,female,left_right_width,2023_Aug_24_1051,exp1,2021.2.3,59.95473417302588,
,,,,,,,,,,,,,,,,5,9,9.5,10,10.5,11,0.5,0.09999999999999998,0.4,2.4,10,initial,36.05,324,342,361,379,397,9,9,9,9,9,,,,,1,0,1,0,0,45,45,40,,,,,num_4,0.9284847999806516,num_4,0.15,0.7,0.25,0.6,9.01073,21.62576,return,5.674245599977439,,,,,,,9,21,female,left_right_width,2023_Aug_24_1051,exp1,2021.2.3,59.95473417302588,
,,,,,,,,,,,,,,,,5,8.95,9.475,10,10.525,11.05,0.525,0.42500000000000004,0.1,2.2,10,match,36.05,323,342,361,379,398,9,9,9,9,9,,,,,1,0,1,0,0,46,46,25,,,,,num_4,1.5937162000045646,num_4,0.25,1.2,0.2,0.8,7.20859,28.83434,return,2.8252786999801174,,,,,,,9,21,female,left_right_width,2023_Aug_24_1051,exp1,2021.2.3,59.95473417302588,
,,,,,,,,,,,,,,,,5,9.25,9.625,10,10.375,10.75,0.375,0.125,0.25,1.75,10,match,36.05,333,347,361,374,388,9,9,9,9,9,,,,,1,0,1,0,0,47,47,21,,,,,num_4,1.208488899981603,num_4,0.4,0.7,0.35000000000000003,0.5,12.61502,18.02146,return,2.599804099998437,,,,,,,9,21,female,left_right_width,2023_Aug_24_1051,exp1,2021.2.3,59.95473417302588,
,,,,,,,,,,,,,,,,4,9.25,9.75,10.25,10.75,0,0.5,0.09999999999999998,0.4,1.9,10,initial,36.05,333,351,370,388,0,9,9,9,9,0,,,,,1,0,1,0,0,48,48,22,,,,,num_4,1.0575773000018671,num_4,0.1,0.3,0.3,0.5,10.81288,18.02146,return,6.935911800013855,,,,,,,9,21,female,left_right_width,2023_Aug_24_1051,exp1,2021.2.3,59.95473417302588,
,,,,,,,,,,,,,,,,4,9.1,9.7,10.3,10.9,0,0.6,0.5,0.1,1.9,10,match,36.05,328,350,371,393,0,9,9,9,9,0,,,,,1,0,1,0,0,49,49,13,,,,,num_3,1.501634100015508,num_3,0.45,1.2,0.35000000000000003,0.7,12.61502,25.23005,return,4.254178700008197,,,,,,,9,21,female,left_right_width,2023_Aug_24_1051,exp1,2021.2.3,59.95473417302588,
,,,,,,,,,,,,,,,,4,8.95,9.65,10.35,11.05,0,0.7,0.6,0.1,2.1999999999999997,10,initial,36.05,323,348,373,398,0,9,9,9,9,0,,,,,1,0,1,0,0,50,50,24,,,,,num_4,1.996426400000928,num_4,0.35,0.4,0.3,0.5,10.81288,18.02146,return,4.9556213000032585,,,,,,,9,21,female,left_right_width,2023_Aug_24_1051,exp1,2021.2.3,59.95473417302588,
,,,,,,,,,,,,,,,,3,9,10,11,0,0,1,0.75,0.25,2.25,10,match,36.05,324,361,397,0,0,9,9,9,0,0,,,,,1,0,1,0,0,51,51,39,,,,,num_2,1.0318073000235017,num_2,0.35,1.6,0.3,1.3,10.81288,46.85581,return,4.783268200000748,,,,,,,9,21,female,left_right_width,2023_Aug_24_1051,exp1,2021.2.3,59.95473417302588,
,,,,,,,,,,,,,,,,4,8.65,9.55,10.45,11.35,0,0.9,0.8,0.1,2.8000000000000003,10,initial,36.05,312,344,377,409,0,9,9,9,9,0,,,,,1,0,1,0,0,52,52,30,,,,,num_2,1.941021799982991,num_2,0.45,1.6,0.20000000000000007,1.2,7.20859,43.25151,return,3.719335300003877,,,,,,,9,21,female,left_right_width,2023_Aug_24_1051,exp1,2021.2.3,59.95473417302588,
,,,,,,,,,,,,,,,,4,9.5,9.833333333333334,10.166666666666666,10.5,0,0.3333333333333333,0.08333333333333333,0.25,1.25,10,match,36.05,342,354,367,379,0,9,9,9,9,0,,,,,1,0,1,0,0,53,53,3,,,,,num_3,1.0501140999840572,num_3,0.2,0.3,0.25,0.35,9.01073,12.61502,return,4.528383800003212,,,,,,,9,21,female,left_right_width,2023_Aug_24_1051,exp1,2021.2.3,59.95473417302588,
,,,,,,,,,,,,,,,,,,,,,,,,,,,,,,,,,,,,,,,,,,,1,0,1,0,,,,,,,,,,,,,,,,,,,,,,1195.1703179999895,None,1195.1703179999895,None,9,21,female,left_right_width,2023_Aug_24_1051,exp1,2021.2.3,59.95473417302588,
,,,,,,,,,,,,,,,,5,8.65,9.325,10,10.675,11.35,0.675,0.42500000000000004,0.25,2.95,10,match,36.05,312,336,361,385,409,9,9,9,9,9,,,,,2,0,2,0,0,0,0,33,,,,,num_4,0.9822606999950949,num_4,0.35,0.7,0.3,0.7,10.81288,25.23005,return,3.022244599997066,,,,,,,9,21,female,left_right_width,2023_Aug_24_1051,exp1,2021.2.3,59.95473417302588,
,,,,,,,,,,,,,,,,5,9,9.5,10,10.5,11,0.5,0.09999999999999998,0.4,2.4,10,initial,36.05,324,342,361,379,397,9,9,9,9,9,,,,,2,0,2,0,0,1,1,40,,,,,num_4,0.9256898000021465,num_4,0.3,0.8,0.35,0.5,12.61502,18.02146,return,2.871891199989477,,,,,,,9,21,female,left_right_width,2023_Aug_24_1051,exp1,2021.2.3,59.95473417302588,
,,,,,,,,,,,,,,,,5,9.25,9.625,10,10.375,10.75,0.375,0.275,0.1,1.6,10,match,36.05,333,347,361,374,388,9,9,9,9,9,,,,,2,0,2,0,0,2,2,19,,,,,num_4,0.9571273000037763,num_4,0.3,1.3,0.25,0.5,9.01073,18.02146,return,3.494023899984313,,,,,,,9,21,female,left_right_width,2023_Aug_24_1051,exp1,2021.2.3,59.95473417302588,
,,,,,,,,,,,,,,,,3,9,10,11,0,0,0.9999999999999999,0.5999999999999999,0.4,2.4,10,match,36.05,324,361,397,0,0,9,9,9,0,0,,,,,2,0,2,0,0,3,3,41,,,,,num_3,1.0143926000164356,num_3,0.25,1.2,0.25,0.7,9.01073,25.23005,return,3.2287646000040695,,,,,,,9,21,female,left_right_width,2023_Aug_24_1051,exp1,2021.2.3,59.95473417302588,
,,,,,,,,,,,,,,,,5,8.65,9.325,10,10.675,11.35,0.675,0.275,0.4,3.1,10,match,36.05,312,336,361,385,409,9,9,9,9,9,,,,,2,0,2,0,0,4,4,35,,,,,num_4,0.9322443999990355,num_4,0.45,1.2,0.4,0.6,14.41717,21.62576,return,3.135034100007033,,,,,,,9,21,female,left_right_width,2023_Aug_24_1051,exp1,2021.2.3,59.95473417302588,
,,,,,,,,,,,,,,,,5,8.2,9.1,10,10.9,11.8,0.9,0.5,0.4,4,10,initial,36.05,296,328,361,393,425,9,9,9,9,9,,,,,2,0,2,0,0,5,5,52,,,,,num_4,1.011756099993363,num_4,0.15,0.5,0.39999999999999997,0.8,14.41717,28.83434,return,3.3865928999730386,,,,,,,9,21,female,left_right_width,2023_Aug_24_1051,exp1,2021.2.3,59.95473417302588,
,,,,,,,,,,,,,,,,3,9.3,10,10.7,0,0,0.7,0.29999999999999993,0.4,1.8,10,initial,36.05,335,361,386,0,0,9,9,9,0,0,,,,,2,0,2,0,0,6,6,10,,,,,num_3,0.8995996000012383,num_3,0.1,0.3,0.3,0.55,10.81288,19.82361,return,5.375440899981186,,,,,,,9,21,female,left_right_width,2023_Aug_24_1051,exp1,2021.2.3,59.95473417302588,
,,,,,,,,,,,,,,,,3,9.5,10,10.5,0,0,0.5,0.4,0.1,1.1,10,initial,36.05,342,361,379,0,0,9,9,9,0,0,,,,,2,0,2,0,0,7,7,0,,,,,num_3,1.0483717000170145,num_3,0.15,0.4,0.04999999999999999,0.3,1.80215,10.81288,return,3.6299845000030473,,,,,,,9,21,female,left_right_width,2023_Aug_24_1051,exp1,2021.2.3,59.95473417302588,
,,,,,,,,,,,,,,,,4,9.25,9.75,10.25,10.75,0,0.5,0.25,0.25,1.75,10,initial,36.05,333,351,370,388,0,9,9,9,9,0,,,,,2,0,2,0,0,8,8,20,,,,,num_3,1.3371345000050496,num_3,0.45,1.2,0.35000000000000003,0.7,12.61502,25.23005,return,6.034953800000949,,,,,,,9,21,female,left_right_width,2023_Aug_24_1051,exp1,2021.2.3,59.95473417302588,
,,,,,,,,,,,,,,,,4,9.25,9.75,10.25,10.75,0,0.5,0.4,0.1,1.6,10,initial,36.05,333,351,370,388,0,9,9,9,9,0,,,,,2,0,2,0,0,9,9,18,,,,,num_3,1.0958405999990646,num_3,0.35,0.4,0.15000000000000002,0.4,5.40644,14.41717,return,10.394036099984078,,,,,,,9,21,female,left_right_width,2023_Aug_24_1051,exp1,2021.2.3,59.95473417302588,
,,,,,,,,,,,,,,,,3,9.1,10,10.9,0,0,0.9,0.5,0.4,2.2,10,initial,36.05,328,361,393,0,0,9,9,9,0,0,,,,,2,0,2,0,0,10,10,16,,,,,num_3,1.5654369000112638,num_3,0.35,0.5,0.2,1.25,7.20859,45.05366,return,9.659553499979666,,,,,,,9,21,female,left_right_width,2023_Aug_24_1051,exp1,2021.2.3,59.95473417302588,
,,,,,,,,,,,,,,,,5,8.95,9.475,10,10.525,11.05,0.525,0.275,0.25,2.35,10,match,36.05,323,342,361,379,398,9,9,9,9,9,,,,,2,0,2,0,0,11,11,27,,,,,num_4,1.0965601000061724,num_4,0.3,1.1,0.3,0.8,10.81288,28.83434,return,3.498582300002454,,,,,,,9,21,female,left_right_width,2023_Aug_24_1051,exp1,2021.2.3,59.95473417302588,
,,,,,,,,,,,,,,,,3,8.2,10,11.8,0,0,1.8,1.55,0.25,3.85,10,match,36.05,296,361,425,0,0,9,9,9,0,0,,,,,2,0,2,0,0,12,12,51,,,,,num_2,1.910497699980624,num_2,0.1,1.6,0.25,1.8,9.01073,64.87727,return,4.249758199992357,,,,,,,9,21,female,left_right_width,2023_Aug_24_1051,exp1,2021.2.3,59.95473417302588,
,,,,,,,,,,,,,,,,4,9.3,9.766666666666667,10.233333333333333,10.7,0,0.4666666666666667,0.3666666666666667,0.1,1.5,10,match,36.05,335,352,369,386,0,9,9,9,9,0,,,,,2,0,2,0,0,13,13,7,,,,,num_4,1.0138781999994535,num_4,0.1,0.3,0.1,0.6,3.60429,21.62576,return,3.7250198000110686,,,,,,,9,21,female,left_right_width,2023_Aug_24_1051,exp1,2021.2.3,59.95473417302588,
,,,,,,,,,,,,,,,,5,9.25,9.625,10,10.375,10.75,0.375,0.125,0.25,1.75,10,match,36.05,333,347,361,374,388,9,9,9,9,9,,,,,2,0,2,0,0,14,14,21,,,,,num_4,0.9416994000202976,num_4,0.2,0.8,0.3,0.5,10.81288,18.02146,return,3.2843016000115313,,,,,,,9,21,female,left_right_width,2023_Aug_24_1051,exp1,2021.2.3,59.95473417302588,
,,,,,,,,,,,,,,,,4,8.95,9.65,10.35,11.05,0,0.7,0.29999999999999993,0.4,2.5,10,initial,36.05,323,348,373,398,0,9,9,9,9,0,,,,,2,0,2,0,0,15,15,28,,,,,num_4,0.8862631999945734,num_4,0.1,0.8,0.25,0.7,9.01073,25.23005,return,3.6308724000118673,,,,,,,9,21,female,left_right_width,2023_Aug_24_1051,exp1,2021.2.3,59.95473417302588,
,,,,,,,,,,,,,,,,4,9.425,9.808333333333334,10.191666666666666,10.575,0,0.3833333333333333,0.1333333333333333,0.25,1.4,10,match,36.05,340,354,367,381,0,9,9,9,9,0,,,,,2,0,2,0,0,16,16,5,,,,,num_4,1.2651178000087384,num_4,0.1,0.8,0.2,0.5,7.20859,18.02146,return,2.604856899997685,,,,,,,9,21,female,left_right_width,2023_Aug_24_1051,exp1,2021.2.3,59.95473417302588,
,,,,,,,,,,,,,,,,5,8.2,9.1,10,10.9,11.8,0.9,0.8,0.1,3.7,10,initial,36.05,296,328,361,393,425,9,9,9,9,9,,,,,2,0,2,0,0,17,17,48,,,,,num_4,0.9336278999981005,num_4,0.25,1.2,0.10000000000000002,1.2,3.60429,43.25151,return,3.10303590001422,,,,,,,9,21,female,left_right_width,2023_Aug_24_1051,exp1,2021.2.3,59.95473417302588,
,,,,,,,,,,,,,,,,4,8.95,9.65,10.35,11.05,0,0.7,0.44999999999999996,0.25,2.3499999999999996,10,initial,36.05,323,348,373,398,0,9,9,9,9,0,,,,,2,0,2,0,0,18,18,26,,,,,num_4,1.076442199992016,num_4,0.35,0.6,0.2,0.6,7.20859,21.62576,return,5.4965952999773435,,,,,,,9,21,female,left_right_width,2023_Aug_24_1051,exp1,2021.2.3,59.95473417302588,
,,,,,,,,,,,,,,,,4,9.5,9.833333333333334,10.166666666666666,10.5,0,0.33333333333333337,0.23333333333333336,0.1,1.1,10,match,36.05,342,354,367,379,0,9,9,9,9,0,,,,,2,0,2,0,0,19,19,1,,,,,num_3,1.699060599989025,num_3,0.2,0.9,0.2,0.55,7.20859,19.82361,return,3.3101346000039484,,,,,,,9,21,female,left_right_width,2023_Aug_24_1051,exp1,2021.2.3,59.95473417302588,
,,,,,,,,,,,,,,,,3,9.5,10,10.5,0,0,0.5,0.09999999999999998,0.4,1.4000000000000001,10,initial,36.05,342,361,379,0,0,9,9,9,0,0,,,,,2,0,2,0,0,20,20,4,,,,,num_2,1.0681952000013553,num_2,0.3,1.6,0.35,0.7,12.61502,25.23005,return,4.622489000001224,,,,,,,9,21,female,left_right_width,2023_Aug_24_1051,exp1,2021.2.3,59.95473417302588,
,,,,,,,,,,,,,,,,3,8.525,10,11.475,0,0,1.475,1.225,0.25,3.2,10,match,36.05,307,361,414,0,0,9,9,9,0,0,,,,,2,0,2,0,0,21,21,47,,,,,num_2,0.9444536999799311,num_2,0.15,1.6,0.15000000000000002,2.3,5.40644,82.89874,return,3.927753299998585,,,,,,,9,21,female,left_right_width,2023_Aug_24_1051,exp1,2021.2.3,59.95473417302588,
,,,,,,,,,,,,,,,,4,8.65,9.55,10.45,11.35,0,0.9,0.65,0.25,2.95,10,initial,36.05,312,344,377,409,0,9,9,9,9,0,,,,,2,0,2,0,0,22,22,32,,,,,num_3,0.9811926999827847,num_3,0.25,0.8,0.2,1.4,7.20859,50.4601,return,4.397897999995621,,,,,,,9,21,female,left_right_width,2023_Aug_24_1051,exp1,2021.2.3,59.95473417302588,
,,,,,,,,,,,,,,,,3,9,10,11,0,0,1,0.9,0.1,2.1,10,match,36.05,324,361,397,0,0,9,9,9,0,0,,,,,2,0,2,0,0,23,23,37,,,,,num_2,1.0072897000063676,num_2,0.4,1.6,0.20000000000000007,2.3,7.20859,82.89874,return,4.278949600004125,,,,,,,9,21,female,left_right_width,2023_Aug_24_1051,exp1,2021.2.3,59.95473417302588,
,,,,,,,,,,,,,,,,4,8.65,9.55,10.45,11.35,0,0.9,0.8,0.1,2.8000000000000003,10,initial,36.05,312,344,377,409,0,9,9,9,9,0,,,,,2,0,2,0,0,24,24,30,,,,,num_3,1.143830999993952,num_3,0.35,0.5,0.10000000000000002,0.95,3.60429,34.24078,return,4.489665500004776,,,,,,,9,21,female,left_right_width,2023_Aug_24_1051,exp1,2021.2.3,59.95473417302588,
,,,,,,,,,,,,,,,,5,9.175,9.5875,10,10.4125,10.825,0.4125,0.16249999999999998,0.25,1.9,10,match,36.05,331,346,361,375,390,9,9,9,9,9,,,,,2,0,2,0,0,25,25,23,,,,,num_4,1.079702899995027,num_4,0.15,0.8,0.3,0.6,10.81288,21.62576,return,5.65833190002013,,,,,,,9,21,female,left_right_width,2023_Aug_24_1051,exp1,2021.2.3,59.95473417302588,
,,,,,,,,,,,,,,,,3,9,10,11,0,0,1,0.75,0.25,2.25,10,match,36.05,324,361,397,0,0,9,9,9,0,0,,,,,2,0,2,0,0,26,26,39,,,,,num_2,1.025713100010762,num_2,0.45,1.6,0.35000000000000003,1.2,12.61502,43.25151,return,3.367771299992455,,,,,,,9,21,female,left_right_width,2023_Aug_24_1051,exp1,2021.2.3,59.95473417302588,
,,,,,,,,,,,,,,,,4,9.25,9.75,10.25,10.75,0,0.5,0.09999999999999998,0.4,1.9,10,initial,36.05,333,351,370,388,0,9,9,9,9,0,,,,,2,0,2,0,0,27,27,22,,,,,num_3,2.5856536999926902,num_3,0.4,0.8,0.4,0.65,14.41717,23.4279,return,4.495326300006127,,,,,,,9,21,female,left_right_width,2023_Aug_24_1051,exp1,2021.2.3,59.95473417302588,
,,,,,,,,,,,,,,,,5,8.6,9.3,10,10.7,11.4,0.7,0.6,0.1,2.9,10,initial,36.05,310,335,361,386,411,9,9,9,9,9,,,,,2,0,2,0,0,28,28,42,,,,,num_4,1.0396354999975301,num_4,0.15,1.1,0.15,0.9,5.40644,32.43864,return,5.475907000014558,,,,,,,9,21,female,left_right_width,2023_Aug_24_1051,exp1,2021.2.3,59.95473417302588,
,,,,,,,,,,,,,,,,3,9.1,10,10.9,0,0,0.9,0.65,0.25,2.05,10,initial,36.05,328,361,393,0,0,9,9,9,0,0,,,,,2,0,2,0,0,29,29,14,,,,,num_2,1.0845413000206463,num_2,0.25,1.6,0.25,1.1,9.01073,39.64722,return,2.4324067999841645,,,,,,,9,21,female,left_right_width,2023_Aug_24_1051,exp1,2021.2.3,59.95473417302588,
,,,,,,,,,,,,,,,,4,9.1,9.7,10.3,10.9,0,0.5999999999999999,0.3499999999999999,0.25,2.05,10,match,36.05,328,350,371,393,0,9,9,9,9,0,,,,,2,0,2,0,0,30,30,15,,,,,num_3,1.1694775999931153,num_3,0.45,1.1,0.35000000000000003,0.85,12.61502,30.63649,return,2.930209299986018,,,,,,,9,21,female,left_right_width,2023_Aug_24_1051,exp1,2021.2.3,59.95473417302588,
,,,,,,,,,,,,,,,,4,9.1,9.7,10.3,10.9,0,0.6,0.5,0.1,1.9,10,match,36.05,328,350,371,393,0,9,9,9,9,0,,,,,2,0,2,0,0,31,31,13,,,,,num_4,1.2953314000042155,num_4,0.15,1.1,0.09999999999999999,0.8,3.60429,28.83434,return,2.247664199996507,,,,,,,9,21,female,left_right_width,2023_Aug_24_1051,exp1,2021.2.3,59.95473417302588,
,,,,,,,,,,,,,,,,3,8.2,10,11.8,0,0,1.7999999999999998,1.4,0.4,4,10,match,36.05,296,361,425,0,0,9,9,9,0,0,,,,,2,0,2,0,0,32,32,53,,,,,num_2,1.2508756000024732,num_2,0.3,1.6,0.39999999999999997,2.4,14.41717,86.50303,return,5.056219499994768,,,,,,,9,21,female,left_right_width,2023_Aug_24_1051,exp1,2021.2.3,59.95473417302588,
,,,,,,,,,,,,,,,,4,9.5,9.833333333333334,10.166666666666666,10.5,0,0.3333333333333333,0.08333333333333333,0.25,1.25,10,match,36.05,342,354,367,379,0,9,9,9,9,0,,,,,2,0,2,0,0,33,33,3,,,,,num_3,1.1125335000106134,num_3,0.3,0.8,0.3,0.65,10.81288,23.4279,return,5.562593799986644,,,,,,,9,21,female,left_right_width,2023_Aug_24_1051,exp1,2021.2.3,59.95473417302588,
,,,,,,,,,,,,,,,,3,9.5,10,10.5,0,0,0.5,0.25,0.25,1.25,10,initial,36.05,342,361,379,0,0,9,9,9,0,0,,,,,2,0,2,0,0,34,34,2,,,,,num_3,0.9734174000041094,num_3,0.25,0.7,0.25,0.6,9.01073,21.62576,return,1.7314286999753676,,,,,,,9,21,female,left_right_width,2023_Aug_24_1051,exp1,2021.2.3,59.95473417302588,
,,,,,,,,,,,,,,,,4,9.3,9.766666666666667,10.233333333333333,10.7,0,0.4666666666666667,0.21666666666666665,0.25,1.65,10,match,36.05,335,352,369,386,0,9,9,9,9,0,,,,,2,0,2,0,0,35,35,9,,,,,num_3,1.2243554999877233,num_3,0.2,1,0.3,0.8,10.81288,28.83434,return,3.5890748999954667,,,,,,,9,21,female,left_right_width,2023_Aug_24_1051,exp1,2021.2.3,59.95473417302588,
,,,,,,,,,,,,,,,,5,8.2,9.1,10,10.9,11.8,0.9,0.65,0.25,3.85,10,initial,36.05,296,328,361,393,425,9,9,9,9,9,,,,,2,0,2,0,0,36,36,50,,,,,num_4,0.9212722000083886,num_4,0.35,1.1,0.3,1.0,10.81288,36.04293,return,4.337879300001077,,,,,,,9,21,female,left_right_width,2023_Aug_24_1051,exp1,2021.2.3,59.95473417302588,
,,,,,,,,,,,,,,,,5,9,9.5,10,10.5,11,0.5,0.4,0.1,2.1,10,initial,36.05,324,342,361,379,397,9,9,9,9,9,,,,,2,0,2,0,0,37,37,36,,,,,num_4,1.291762300010305,num_4,0.35,0.6,0.2,0.5,7.20859,18.02146,return,3.399795700010145,,,,,,,9,21,female,left_right_width,2023_Aug_24_1051,exp1,2021.2.3,59.95473417302588,
,,,,,,,,,,,,,,,,3,8.2,10,11.8,0,0,1.8000000000000003,1.7000000000000002,0.1,3.7,10,match,36.05,296,361,425,0,0,9,9,9,0,0,,,,,2,0,2,0,0,38,38,49,,,,,num_2,1.1516494000097737,num_2,0.35,1.6,0.2,2.2,7.20859,79.29444,return,6.113233600015519,,,,,,,9,21,female,left_right_width,2023_Aug_24_1051,exp1,2021.2.3,59.95473417302588,
,,,,,,,,,,,,,,,,3,8.6,10,11.4,0,0,1.4,1.15,0.25,3.05,10,match,36.05,310,361,411,0,0,9,9,9,0,0,,,,,2,0,2,0,0,39,39,45,,,,,num_2,3.08711319998838,num_2,0.1,1.6,0.15000000000000002,2.0,5.40644,72.08586,return,3.458158399997046,,,,,,,9,21,female,left_right_width,2023_Aug_24_1051,exp1,2021.2.3,59.95473417302588,
,,,,,,,,,,,,,,,,5,9,9.5,10,10.5,11,0.5,0.25,0.25,2.25,10,initial,36.05,324,342,361,379,397,9,9,9,9,9,,,,,2,0,2,0,0,40,40,38,,,,,num_4,1.128444000001764,num_4,0.3,1.2,0.3,0.7,10.81288,25.23005,return,2.6344237999874167,,,,,,,9,21,female,left_right_width,2023_Aug_24_1051,exp1,2021.2.3,59.95473417302588,
,,,,,,,,,,,,,,,,4,8.95,9.65,10.35,11.05,0,0.7,0.6,0.1,2.1999999999999997,10,initial,36.05,323,348,373,398,0,9,9,9,9,0,,,,,2,0,2,0,0,41,41,24,,,,,num_3,1.0157209999742918,num_3,0.15,0.9,0.15,0.7,5.40644,25.23005,return,2.156032500002766,,,,,,,9,21,female,left_right_width,2023_Aug_24_1051,exp1,2021.2.3,59.95473417302588,
,,,,,,,,,,,,,,,,5,8.95,9.475,10,10.525,11.05,0.525,0.42500000000000004,0.1,2.2,10,match,36.05,323,342,361,379,398,9,9,9,9,9,,,,,2,0,2,0,0,42,42,25,,,,,num_4,1.0663114999770187,num_4,0.3,0.4,0.3,0.6,10.81288,21.62576,return,6.143916200002423,,,,,,,9,21,female,left_right_width,2023_Aug_24_1051,exp1,2021.2.3,59.95473417302588,
,,,,,,,,,,,,,,,,5,8.65,9.325,10,10.675,11.35,0.6749999999999999,0.575,0.1,2.8,10,match,36.05,312,336,361,385,409,9,9,9,9,9,,,,,2,0,2,0,0,43,43,31,,,,,num_4,1.5839717000199016,num_4,0.2,0.6,0.15000000000000002,0.6,5.40644,21.62576,return,3.1523280999972485,,,,,,,9,21,female,left_right_width,2023_Aug_24_1051,exp1,2021.2.3,59.95473417302588,
,,,,,,,,,,,,,,,,4,8.65,9.55,10.45,11.35,0,0.9,0.5,0.4,3.1,10,initial,36.05,312,344,377,409,0,9,9,9,9,0,,,,,2,0,2,0,0,44,44,34,,,,,num_4,0.9524286000232678,num_4,0.45,0.7,0.35000000000000003,0.7,12.61502,25.23005,return,7.04201400000602,,,,,,,9,21,female,left_right_width,2023_Aug_24_1051,exp1,2021.2.3,59.95473417302588,
,,,,,,,,,,,,,,,,5,8.6,9.3,10,10.7,11.4,0.7,0.29999999999999993,0.4,3.1999999999999997,10,initial,36.05,310,335,361,386,411,9,9,9,9,9,,,,,2,0,2,0,0,45,45,46,,,,,num_4,0.9758457000134513,num_4,0.1,1.2,0.49999999999999994,0.8,18.02146,28.83434,return,4.152451600006316,,,,,,,9,21,female,left_right_width,2023_Aug_24_1051,exp1,2021.2.3,59.95473417302588,
,,,,,,,,,,,,,,,,5,8.6,9.3,10,10.7,11.4,0.7,0.44999999999999996,0.25,3.05,10,initial,36.05,310,335,361,386,411,9,9,9,9,9,,,,,2,0,2,0,0,46,46,44,,,,,num_4,1.7043565000058152,num_4,0.4,0.5,0.35000000000000003,0.7,12.61502,25.23005,return,5.586832300003152,,,,,,,9,21,female,left_right_width,2023_Aug_24_1051,exp1,2021.2.3,59.95473417302588,
,,,,,,,,,,,,,,,,5,8.95,9.475,10,10.525,11.05,0.525,0.125,0.4,2.5,10,match,36.05,323,342,361,379,398,9,9,9,9,9,,,,,2,0,2,0,0,47,47,29,,,,,num_4,0.8925123000226449,num_4,0.45,0.5,0.45,0.6,16.21932,21.62576,return,2.9660402000008617,,,,,,,9,21,female,left_right_width,2023_Aug_24_1051,exp1,2021.2.3,59.95473417302588,
,,,,,,,,,,,,,,,,3,9.3,10,10.7,0,0,0.7,0.44999999999999996,0.25,1.65,10,initial,36.05,335,361,386,0,0,9,9,9,0,0,,,,,2,0,2,0,0,48,48,8,,,,,num_2,1.0417502999771386,num_2,0.3,1.6,0.3,0.8,10.81288,28.83434,return,3.7197002000175416,,,,,,,9,21,female,left_right_width,2023_Aug_24_1051,exp1,2021.2.3,59.95473417302588,
,,,,,,,,,,,,,,,,3,9.1,10,10.9,0,0,0.9,0.8,0.1,1.9000000000000001,10,initial,36.05,328,361,393,0,0,9,9,9,0,0,,,,,2,0,2,0,0,49,49,12,,,,,num_2,1.2850952000007965,num_2,0.1,1.6,0.1,1.2,3.60429,43.25151,return,2.060696000000462,,,,,,,9,21,female,left_right_width,2023_Aug_24_1051,exp1,2021.2.3,59.95473417302588,
,,,,,,,,,,,,,,,,4,9.3,9.766666666666667,10.233333333333333,10.7,0,0.4666666666666667,0.06666666666666665,0.4,1.8,10,match,36.05,335,352,369,386,0,9,9,9,9,0,,,,,2,0,2,0,0,50,50,11,,,,,num_3,1.6902287999982946,num_3,0.4,0.7,0.35000000000000003,0.7,12.61502,25.23005,return,7.925811399996746,,,,,,,9,21,female,left_right_width,2023_Aug_24_1051,exp1,2021.2.3,59.95473417302588,
,,,,,,,,,,,,,,,,4,9.1,9.7,10.3,10.9,0,0.6000000000000001,0.20000000000000004,0.4,2.2,10,match,36.05,328,350,371,393,0,9,9,9,9,0,,,,,2,0,2,0,0,51,51,17,,,,,num_3,1.1190086000133306,num_3,0.45,0.8,0.35000000000000003,0.75,12.61502,27.0322,return,2.832571300008567,,,,,,,9,21,female,left_right_width,2023_Aug_24_1051,exp1,2021.2.3,59.95473417302588,
,,,,,,,,,,,,,,,,3,9.3,10,10.7,0,0,0.7,0.6,0.1,1.5,10,initial,36.05,335,361,386,0,0,9,9,9,0,0,,,,,2,0,2,0,0,52,52,6,,,,,num_2,1.0903167999931611,num_2,0.25,1.6,0.2,1.2,7.20859,43.25151,return,2.500147900020238,,,,,,,9,21,female,left_right_width,2023_Aug_24_1051,exp1,2021.2.3,59.95473417302588,
,,,,,,,,,,,,,,,,3,8.6,10,11.4,0,0,1.4,1.2999999999999998,0.1,2.9,10,match,36.05,310,361,411,0,0,9,9,9,0,0,,,,,2,0,2,0,0,53,53,43,,,,,num_2,1.0222388999827672,num_2,0.25,1.6,0.15000000000000002,1.7,5.40644,61.27298,return,3.843972800008487,,,,,,,9,21,female,left_right_width,2023_Aug_24_1051,exp1,2021.2.3,59.95473417302588,
,,,,,,,,,,,,,,,,,,,,,,,,,,,,,,,,,,,,,,,,,,,2,0,2,0,,,,,,,,,,,,,,,,,,,,,,1587.9705300999922,None,1587.9705300999922,None,9,21,female,left_right_width,2023_Aug_24_1051,exp1,2021.2.3,59.95473417302588,
,,,,,,,,,,,,,,,,5,8.65,9.325,10,10.675,11.35,0.675,0.275,0.4,3.1,10,match,36.05,312,336,361,385,409,9,9,9,9,9,,,,,3,0,3,0,0,0,0,35,,,,,num_4,1.0015961999888532,num_4,0.2,1.3,0.3,0.8,10.81288,28.83434,return,5.280956700007664,,,,,,,9,21,female,left_right_width,2023_Aug_24_1051,exp1,2021.2.3,59.95473417302588,
,,,,,,,,,,,,,,,,4,9.5,9.833333333333334,10.166666666666666,10.5,0,0.3333333333333333,0.08333333333333333,0.25,1.25,10,match,36.05,342,354,367,379,0,9,9,9,9,0,,,,,3,0,3,0,0,1,1,3,,,,,num_3,1.1662529000022914,num_3,0.35,1.2,0.3,0.55,10.81288,19.82361,return,5.756388000008883,,,,,,,9,21,female,left_right_width,2023_Aug_24_1051,exp1,2021.2.3,59.95473417302588,
,,,,,,,,,,,,,,,,4,9.25,9.75,10.25,10.75,0,0.5,0.4,0.1,1.6,10,initial,36.05,333,351,370,388,0,9,9,9,9,0,,,,,3,0,3,0,0,2,2,18,,,,,num_3,2.1688739999954123,num_3,0.1,1.2,0.2,0.6,7.20859,21.62576,return,4.591766199999256,,,,,,,9,21,female,left_right_width,2023_Aug_24_1051,exp1,2021.2.3,59.95473417302588,
,,,,,,,,,,,,,,,,3,9.3,10,10.7,0,0,0.7,0.29999999999999993,0.4,1.8,10,initial,36.05,335,361,386,0,0,9,9,9,0,0,,,,,3,0,3,0,0,3,3,10,,,,,num_3,1.0834924000082538,num_3,0.3,1.3,0.25,0.65,9.01073,23.4279,return,4.816405899997335,,,,,,,9,21,female,left_right_width,2023_Aug_24_1051,exp1,2021.2.3,59.95473417302588,
,,,,,,,,,,,,,,,,3,8.2,10,11.8,0,0,1.7999999999999998,1.4,0.4,4,10,match,36.05,296,361,425,0,0,9,9,9,0,0,,,,,3,0,3,0,0,4,4,53,,,,,num_2,1.0295074999739882,num_2,0.15,1.6,0.35,2.2,12.61502,79.29444,return,4.746602700004587,,,,,,,9,21,female,left_right_width,2023_Aug_24_1051,exp1,2021.2.3,59.95473417302588,
,,,,,,,,,,,,,,,,3,9.5,10,10.5,0,0,0.5,0.25,0.25,1.25,10,initial,36.05,342,361,379,0,0,9,9,9,0,0,,,,,3,0,3,0,0,5,5,2,,,,,num_2,1.0623763999901712,num_2,0.3,1.6,0.3,0.6,10.81288,21.62576,return,5.786468000005698,,,,,,,9,21,female,left_right_width,2023_Aug_24_1051,exp1,2021.2.3,59.95473417302588,
,,,,,,,,,,,,,,,,3,9,10,11,0,0,0.9999999999999999,0.5999999999999999,0.4,2.4,10,match,36.05,324,361,397,0,0,9,9,9,0,0,,,,,3,0,3,0,0,6,6,41,,,,,num_2,1.3445129999890924,num_2,0.45,1.6,0.4,1.6,14.41717,57.66869,return,3.2574120000062976,,,,,,,9,21,female,left_right_width,2023_Aug_24_1051,exp1,2021.2.3,59.95473417302588,
,,,,,,,,,,,,,,,,5,9,9.5,10,10.5,11,0.5,0.09999999999999998,0.4,2.4,10,initial,36.05,324,342,361,379,397,9,9,9,9,9,,,,,3,0,3,0,0,7,7,40,,,,,num_3,1.053929599991534,num_3,0.3,0.6,0.49999999999999994,0.7,18.02146,25.23005,return,4.1129800000053365,,,,,,,9,21,female,left_right_width,2023_Aug_24_1051,exp1,2021.2.3,59.95473417302588,
,,,,,,,,,,,,,,,,4,9.1,9.7,10.3,10.9,0,0.6,0.5,0.1,1.9,10,match,36.05,328,350,371,393,0,9,9,9,9,0,,,,,3,0,3,0,0,8,8,13,,,,,num_3,1.2625800000096206,num_3,0.45,0.8,0.30000000000000004,0.85,10.81288,30.63649,return,4.60451100001228,,,,,,,9,21,female,left_right_width,2023_Aug_24_1051,exp1,2021.2.3,59.95473417302588,
,,,,,,,,,,,,,,,,3,9.1,10,10.9,0,0,0.9,0.5,0.4,2.2,10,initial,36.05,328,361,393,0,0,9,9,9,0,0,,,,,3,0,3,0,0,9,9,16,,,,,num_2,1.0235702999925707,num_2,0.4,1.6,0.4,1.4,14.41717,50.4601,return,4.405324499995913,,,,,,,9,21,female,left_right_width,2023_Aug_24_1051,exp1,2021.2.3,59.95473417302588,
,,,,,,,,,,,,,,,,5,8.95,9.475,10,10.525,11.05,0.525,0.275,0.25,2.35,10,match,36.05,323,342,361,379,398,9,9,9,9,9,,,,,3,0,3,0,0,10,10,27,,,,,num_4,1.261880799982464,num_4,0.25,1.0,0.35,0.8,12.61502,28.83434,return,3.033639699977357,,,,,,,9,21,female,left_right_width,2023_Aug_24_1051,exp1,2021.2.3,59.95473417302588,
,,,,,,,,,,,,,,,,4,9.3,9.766666666666667,10.233333333333333,10.7,0,0.4666666666666667,0.21666666666666665,0.25,1.65,10,match,36.05,335,352,369,386,0,9,9,9,9,0,,,,,3,0,3,0,0,11,11,9,,,,,num_4,0.9778813000011723,num_4,0.35,1.2,0.25,0.7,9.01073,25.23005,return,5.769952600006945,,,,,,,9,21,female,left_right_width,2023_Aug_24_1051,exp1,2021.2.3,59.95473417302588,
,,,,,,,,,,,,,,,,4,8.95,9.65,10.35,11.05,0,0.7,0.44999999999999996,0.25,2.3499999999999996,10,initial,36.05,323,348,373,398,0,9,9,9,9,0,,,,,3,0,3,0,0,12,12,26,,,,,num_4,2.133518999995431,num_4,0.25,1.1,0.2,0.6,7.20859,21.62576,return,5.567960799991852,,,,,,,9,21,female,left_right_width,2023_Aug_24_1051,exp1,2021.2.3,59.95473417302588,
,,,,,,,,,,,,,,,,4,8.65,9.55,10.45,11.35,0,0.9,0.8,0.1,2.8000000000000003,10,initial,36.05,312,344,377,409,0,9,9,9,9,0,,,,,3,0,3,0,0,13,13,30,,,,,num_4,1.0098679999937303,num_4,0.3,1.3,0.05000000000000002,1.1,1.80215,39.64722,return,3.3046815000125207,,,,,,,9,21,female,left_right_width,2023_Aug_24_1051,exp1,2021.2.3,59.95473417302588,
,,,,,,,,,,,,,,,,5,8.2,9.1,10,10.9,11.8,0.9,0.65,0.25,3.85,10,initial,36.05,296,328,361,393,425,9,9,9,9,9,,,,,3,0,3,0,0,14,14,50,,,,,num_4,0.9771737999981269,num_4,0.45,1.2,0.20000000000000007,1.4,7.20859,50.4601,return,5.321216500014998,,,,,,,9,21,female,left_right_width,2023_Aug_24_1051,exp1,2021.2.3,59.95473417302588,
,,,,,,,,,,,,,,,,4,9.25,9.75,10.25,10.75,0,0.5,0.25,0.25,1.75,10,initial,36.05,333,351,370,388,0,9,9,9,9,0,,,,,3,0,3,0,0,15,15,20,,,,,num_3,1.5730735000106506,num_3,0.4,0.8,0.25000000000000006,0.85,9.01073,30.63649,return,3.5752002999943215,,,,,,,9,21,female,left_right_width,2023_Aug_24_1051,exp1,2021.2.3,59.95473417302588,
,,,,,,,,,,,,,,,,3,9.1,10,10.9,0,0,0.9,0.65,0.25,2.05,10,initial,36.05,328,361,393,0,0,9,9,9,0,0,,,,,3,0,3,0,0,16,16,14,,,,,num_2,1.1662675999978092,num_2,0.1,1.6,0.2,1.4,7.20859,50.4601,return,2.508208699990064,,,,,,,9,21,female,left_right_width,2023_Aug_24_1051,exp1,2021.2.3,59.95473417302588,
,,,,,,,,,,,,,,,,3,9.5,10,10.5,0,0,0.5,0.09999999999999998,0.4,1.4000000000000001,10,initial,36.05,342,361,379,0,0,9,9,9,0,0,,,,,3,0,3,0,0,17,17,4,,,,,num_2,1.031173299998045,num_2,0.25,1.6,0.35,0.7,12.61502,25.23005,return,3.8045864999876358,,,,,,,9,21,female,left_right_width,2023_Aug_24_1051,exp1,2021.2.3,59.95473417302588,
,,,,,,,,,,,,,,,,5,9,9.5,10,10.5,11,0.5,0.4,0.1,2.1,10,initial,36.05,324,342,361,379,397,9,9,9,9,9,,,,,3,0,3,0,0,18,18,36,,,,,num_4,1.0132196999911685,num_4,0.35,0.5,0.25,0.6,9.01073,21.62576,return,4.491910900018411,,,,,,,9,21,female,left_right_width,2023_Aug_24_1051,exp1,2021.2.3,59.95473417302588,
,,,,,,,,,,,,,,,,4,9.3,9.766666666666667,10.233333333333333,10.7,0,0.4666666666666667,0.06666666666666665,0.4,1.8,10,match,36.05,335,352,369,386,0,9,9,9,9,0,,,,,3,0,3,0,0,19,19,11,,,,,num_3,1.396569599979557,num_3,0.1,1.1,0.3,0.8,10.81288,28.83434,return,4.476945499976864,,,,,,,9,21,female,left_right_width,2023_Aug_24_1051,exp1,2021.2.3,59.95473417302588,
,,,,,,,,,,,,,,,,4,9.3,9.766666666666667,10.233333333333333,10.7,0,0.4666666666666667,0.3666666666666667,0.1,1.5,10,match,36.05,335,352,369,386,0,9,9,9,9,0,,,,,3,0,3,0,0,20,20,7,,,,,num_3,1.071039499976905,num_3,0.3,1.3,0.15000000000000002,0.95,5.40644,34.24078,return,2.884476999985054,,,,,,,9,21,female,left_right_width,2023_Aug_24_1051,exp1,2021.2.3,59.95473417302588,
,,,,,,,,,,,,,,,,5,9.25,9.625,10,10.375,10.75,0.375,0.275,0.1,1.6,10,match,36.05,333,347,361,374,388,9,9,9,9,9,,,,,3,0,3,0,0,21,21,19,,,,,num_4,0.9144253999984358,num_4,0.35,0.5,0.10000000000000002,0.4,3.60429,14.41717,return,7.374329899990698,,,,,,,9,21,female,left_right_width,2023_Aug_24_1051,exp1,2021.2.3,59.95473417302588,
,,,,,,,,,,,,,,,,4,9.1,9.7,10.3,10.9,0,0.6000000000000001,0.20000000000000004,0.4,2.2,10,match,36.05,328,350,371,393,0,9,9,9,9,0,,,,,3,0,3,0,0,22,22,17,,,,,num_3,1.2125788999837823,num_3,0.25,0.4,0.35,0.55,12.61502,19.82361,return,4.10616029999801,,,,,,,9,21,female,left_right_width,2023_Aug_24_1051,exp1,2021.2.3,59.95473417302588,
,,,,,,,,,,,,,,,,5,8.65,9.325,10,10.675,11.35,0.6749999999999999,0.575,0.1,2.8,10,match,36.05,312,336,361,385,409,9,9,9,9,9,,,,,3,0,3,0,0,23,23,31,,,,,num_4,1.031217200012179,num_4,0.4,1.3,0.10000000000000007,0.6,3.60429,21.62576,return,6.286073099996429,,,,,,,9,21,female,left_right_width,2023_Aug_24_1051,exp1,2021.2.3,59.95473417302588,
,,,,,,,,,,,,,,,,5,8.65,9.325,10,10.675,11.35,0.675,0.42500000000000004,0.25,2.95,10,match,36.05,312,336,361,385,409,9,9,9,9,9,,,,,3,0,3,0,0,24,24,33,,,,,num_4,0.9644106999912765,num_4,0.15,0.5,0.25,0.8,9.01073,28.83434,return,4.172195799998008,,,,,,,9,21,female,left_right_width,2023_Aug_24_1051,exp1,2021.2.3,59.95473417302588,
,,,,,,,,,,,,,,,,3,9.5,10,10.5,0,0,0.5,0.4,0.1,1.1,10,initial,36.05,342,361,379,0,0,9,9,9,0,0,,,,,3,0,3,0,0,25,25,0,,,,,num_2,1.5764110999880359,num_2,0.15,1.6,0.2,1.2,7.20859,43.25151,return,2.5336953999940306,,,,,,,9,21,female,left_right_width,2023_Aug_24_1051,exp1,2021.2.3,59.95473417302588,
,,,,,,,,,,,,,,,,5,8.6,9.3,10,10.7,11.4,0.7,0.44999999999999996,0.25,3.05,10,initial,36.05,310,335,361,386,411,9,9,9,9,9,,,,,3,0,3,0,0,26,26,44,,,,,num_4,0.975724399992032,num_4,0.1,0.9,0.39999999999999997,1.1,14.41717,39.64722,return,5.176558999984991,,,,,,,9,21,female,left_right_width,2023_Aug_24_1051,exp1,2021.2.3,59.95473417302588,
,,,,,,,,,,,,,,,,3,9.3,10,10.7,0,0,0.7,0.6,0.1,1.5,10,initial,36.05,335,361,386,0,0,9,9,9,0,0,,,,,3,0,3,0,0,27,27,6,,,,,num_2,1.0390501999936532,num_2,0.3,1.6,0.10000000000000002,1.6,3.60429,57.66869,return,2.5342278000025544,,,,,,,9,21,female,left_right_width,2023_Aug_24_1051,exp1,2021.2.3,59.95473417302588,
,,,,,,,,,,,,,,,,5,8.6,9.3,10,10.7,11.4,0.7,0.6,0.1,2.9,10,initial,36.05,310,335,361,386,411,9,9,9,9,9,,,,,3,0,3,0,0,28,28,42,,,,,num_4,0.9337136999820359,num_4,0.15,0.7,0.09999999999999999,1.1,3.60429,39.64722,return,3.5353325000032783,,,,,,,9,21,female,left_right_width,2023_Aug_24_1051,exp1,2021.2.3,59.95473417302588,
,,,,,,,,,,,,,,,,4,8.95,9.65,10.35,11.05,0,0.7,0.6,0.1,2.1999999999999997,10,initial,36.05,323,348,373,398,0,9,9,9,9,0,,,,,3,0,3,0,0,29,29,24,,,,,num_3,1.170524099987233,num_3,0.15,0.3,0.09999999999999999,1.3,3.60429,46.85581,return,8.53055240001413,,,,,,,9,21,female,left_right_width,2023_Aug_24_1051,exp1,2021.2.3,59.95473417302588,
,,,,,,,,,,,,,,,,5,8.95,9.475,10,10.525,11.05,0.525,0.42500000000000004,0.1,2.2,10,match,36.05,323,342,361,379,398,9,9,9,9,9,,,,,3,0,3,0,0,30,30,25,,,,,num_4,1.417770300002303,num_4,0.35,0.9,0.2,1.0,7.20859,36.04293,return,4.943831799988402,,,,,,,9,21,female,left_right_width,2023_Aug_24_1051,exp1,2021.2.3,59.95473417302588,
,,,,,,,,,,,,,,,,4,9.25,9.75,10.25,10.75,0,0.5,0.09999999999999998,0.4,1.9,10,initial,36.05,333,351,370,388,0,9,9,9,9,0,,,,,3,0,3,0,0,31,31,22,,,,,num_3,1.0208809000032488,num_3,0.15,1.3,0.35,0.55,12.61502,19.82361,return,4.868860400019912,,,,,,,9,21,female,left_right_width,2023_Aug_24_1051,exp1,2021.2.3,59.95473417302588,
,,,,,,,,,,,,,,,,5,8.2,9.1,10,10.9,11.8,0.9,0.5,0.4,4,10,initial,36.05,296,328,361,393,425,9,9,9,9,9,,,,,3,0,3,0,0,32,32,52,,,,,num_5,1.1711852999869734,num_5,0.35,0.7,0.44999999999999996,0.75,16.21932,27.0322,return,3.315534099994693,,,,,,,9,21,female,left_right_width,2023_Aug_24_1051,exp1,2021.2.3,59.95473417302588,
,,,,,,,,,,,,,,,,4,8.95,9.65,10.35,11.05,0,0.7,0.29999999999999993,0.4,2.5,10,initial,36.05,323,348,373,398,0,9,9,9,9,0,,,,,3,0,3,0,0,33,33,28,,,,,num_4,1.0570328999892808,num_4,0.4,1.1,0.4,0.7,14.41717,25.23005,return,2.7379150000051595,,,,,,,9,21,female,left_right_width,2023_Aug_24_1051,exp1,2021.2.3,59.95473417302588,
,,,,,,,,,,,,,,,,5,8.6,9.3,10,10.7,11.4,0.7,0.29999999999999993,0.4,3.1999999999999997,10,initial,36.05,310,335,361,386,411,9,9,9,9,9,,,,,3,0,3,0,0,34,34,46,,,,,num_5,1.0285572000138927,num_5,0.4,1.1,0.45,0.75,16.21932,27.0322,return,3.5458894000039436,,,,,,,9,21,female,left_right_width,2023_Aug_24_1051,exp1,2021.2.3,59.95473417302588,
,,,,,,,,,,,,,,,,5,9.175,9.5875,10,10.4125,10.825,0.4125,0.16249999999999998,0.25,1.9,10,match,36.05,331,346,361,375,390,9,9,9,9,9,,,,,3,0,3,0,0,35,35,23,,,,,num_4,1.071059600013541,num_4,0.3,0.4,0.35,0.5,12.61502,18.02146,return,4.8509622999990825,,,,,,,9,21,female,left_right_width,2023_Aug_24_1051,exp1,2021.2.3,59.95473417302588,
,,,,,,,,,,,,,,,,5,9.25,9.625,10,10.375,10.75,0.375,0.125,0.25,1.75,10,match,36.05,333,347,361,374,388,9,9,9,9,9,,,,,3,0,3,0,0,36,36,21,,,,,num_3,1.2717327999998815,num_3,0.2,0.9,0.35,0.7,12.61502,25.23005,return,3.6673157999757677,,,,,,,9,21,female,left_right_width,2023_Aug_24_1051,exp1,2021.2.3,59.95473417302588,
,,,,,,,,,,,,,,,,3,8.6,10,11.4,0,0,1.4,1.2999999999999998,0.1,2.9,10,match,36.05,310,361,411,0,0,9,9,9,0,0,,,,,3,0,3,0,0,37,37,43,,,,,num_3,1.0257733000034932,num_3,0.3,0.8,0.10000000000000002,1.05,3.60429,37.84507,return,3.3013670000073034,,,,,,,9,21,female,left_right_width,2023_Aug_24_1051,exp1,2021.2.3,59.95473417302588,
,,,,,,,,,,,,,,,,3,9.1,10,10.9,0,0,0.9,0.8,0.1,1.9000000000000001,10,initial,36.05,328,361,393,0,0,9,9,9,0,0,,,,,3,0,3,0,0,38,38,12,,,,,num_2,1.146473300002981,num_2,0.4,1.6,0.15000000000000008,1.8,5.40644,64.87727,return,3.804748099995777,,,,,,,9,21,female,left_right_width,2023_Aug_24_1051,exp1,2021.2.3,59.95473417302588,
,,,,,,,,,,,,,,,,4,8.65,9.55,10.45,11.35,0,0.9,0.5,0.4,3.1,10,initial,36.05,312,344,377,409,0,9,9,9,9,0,,,,,3,0,3,0,0,39,39,34,,,,,num_4,2.3483924999891315,num_4,0.3,1.3,0.3,1.1,10.81288,39.64722,return,2.141944800008787,,,,,,,9,21,female,left_right_width,2023_Aug_24_1051,exp1,2021.2.3,59.95473417302588,
,,,,,,,,,,,,,,,,5,8.95,9.475,10,10.525,11.05,0.525,0.125,0.4,2.5,10,match,36.05,323,342,361,379,398,9,9,9,9,9,,,,,3,0,3,0,0,40,40,29,,,,,num_3,1.1524018000054639,num_3,0.4,1,0.6500000000000001,0.95,23.4279,34.24078,return,4.546005800017156,,,,,,,9,21,female,left_right_width,2023_Aug_24_1051,exp1,2021.2.3,59.95473417302588,
,,,,,,,,,,,,,,,,4,9.5,9.833333333333334,10.166666666666666,10.5,0,0.33333333333333337,0.23333333333333336,0.1,1.1,10,match,36.05,342,354,367,379,0,9,9,9,9,0,,,,,3,0,3,0,0,41,41,1,,,,,num_3,2.033607599994866,num_3,0.2,0.9,0.2,0.6,7.20859,21.62576,return,3.694007000012789,,,,,,,9,21,female,left_right_width,2023_Aug_24_1051,exp1,2021.2.3,59.95473417302588,
,,,,,,,,,,,,,,,,3,9,10,11,0,0,1,0.9,0.1,2.1,10,match,36.05,324,361,397,0,0,9,9,9,0,0,,,,,3,0,3,0,0,42,42,37,,,,,num_2,0.9105219999910332,num_2,0.1,1.6,0.1,1.8,3.60429,64.87727,return,2.2815881999849807,,,,,,,9,21,female,left_right_width,2023_Aug_24_1051,exp1,2021.2.3,59.95473417302588,
,,,,,,,,,,,,,,,,3,9.3,10,10.7,0,0,0.7,0.44999999999999996,0.25,1.65,10,initial,36.05,335,361,386,0,0,9,9,9,0,0,,,,,3,0,3,0,0,43,43,8,,,,,num_2,0.9265986999962479,num_2,0.1,1.6,0.25,1.0,9.01073,36.04293,return,3.1758925000031013,,,,,,,9,21,female,left_right_width,2023_Aug_24_1051,exp1,2021.2.3,59.95473417302588,
,,,,,,,,,,,,,,,,3,8.6,10,11.4,0,0,1.4,1.15,0.25,3.05,10,match,36.05,310,361,411,0,0,9,9,9,0,0,,,,,3,0,3,0,0,44,44,45,,,,,num_2,1.081829500006279,num_2,0.1,1.6,0.15000000000000002,1.0,5.40644,36.04293,return,3.947288199997274,,,,,,,9,21,female,left_right_width,2023_Aug_24_1051,exp1,2021.2.3,59.95473417302588,
,,,,,,,,,,,,,,,,4,9.1,9.7,10.3,10.9,0,0.5999999999999999,0.3499999999999999,0.25,2.05,10,match,36.05,328,350,371,393,0,9,9,9,9,0,,,,,3,0,3,0,0,45,45,15,,,,,num_3,1.1204685000120662,num_3,0.15,0.9,0.2,0.85,7.20859,30.63649,return,3.040167599974666,,,,,,,9,21,female,left_right_width,2023_Aug_24_1051,exp1,2021.2.3,59.95473417302588,
,,,,,,,,,,,,,,,,3,9,10,11,0,0,1,0.75,0.25,2.25,10,match,36.05,324,361,397,0,0,9,9,9,0,0,,,,,3,0,3,0,0,46,46,39,,,,,num_2,0.9490762999921571,num_2,0.2,1.6,0.25,1.0,9.01073,36.04293,return,3.468170399981318,,,,,,,9,21,female,left_right_width,2023_Aug_24_1051,exp1,2021.2.3,59.95473417302588,
,,,,,,,,,,,,,,,,3,8.525,10,11.475,0,0,1.475,1.225,0.25,3.2,10,match,36.05,307,361,414,0,0,9,9,9,0,0,,,,,3,0,3,0,0,47,47,47,,,,,num_2,0.9543675000022631,num_2,0.15,1.6,0.2,1.5,7.20859,54.06439,return,4.417289799981518,,,,,,,9,21,female,left_right_width,2023_Aug_24_1051,exp1,2021.2.3,59.95473417302588,
,,,,,,,,,,,,,,,,3,8.2,10,11.8,0,0,1.8,1.55,0.25,3.85,10,match,36.05,296,361,425,0,0,9,9,9,0,0,,,,,3,0,3,0,0,48,48,51,,,,,num_3,2.7131209000071976,num_3,0.1,0.6,0.15000000000000002,1.3,5.40644,46.85581,return,5.6739661999745294,,,,,,,9,21,female,left_right_width,2023_Aug_24_1051,exp1,2021.2.3,59.95473417302588,
,,,,,,,,,,,,,,,,5,8.2,9.1,10,10.9,11.8,0.9,0.8,0.1,3.7,10,initial,36.05,296,328,361,393,425,9,9,9,9,9,,,,,3,0,3,0,0,49,49,48,,,,,num_4,1.3710771000187378,num_4,0.45,1.3,0.10000000000000007,1.2,3.60429,43.25151,return,6.082900999987032,,,,,,,9,21,female,left_right_width,2023_Aug_24_1051,exp1,2021.2.3,59.95473417302588,
,,,,,,,,,,,,,,,,4,8.65,9.55,10.45,11.35,0,0.9,0.65,0.25,2.95,10,initial,36.05,312,344,377,409,0,9,9,9,9,0,,,,,3,0,3,0,0,50,50,32,,,,,num_3,1.1485907000023872,num_3,0.35,0.4,0.25,1.15,9.01073,41.44937,return,6.350011000002269,,,,,,,9,21,female,left_right_width,2023_Aug_24_1051,exp1,2021.2.3,59.95473417302588,
,,,,,,,,,,,,,,,,3,8.2,10,11.8,0,0,1.8000000000000003,1.7000000000000002,0.1,3.7,10,match,36.05,296,361,425,0,0,9,9,9,0,0,,,,,3,0,3,0,0,51,51,49,,,,,num_2,0.9786401000164915,num_2,0.45,1.6,0.25000000000000006,1.8,9.01073,64.87727,return,5.863899699994363,,,,,,,9,21,female,left_right_width,2023_Aug_24_1051,exp1,2021.2.3,59.95473417302588,
,,,,,,,,,,,,,,,,5,9,9.5,10,10.5,11,0.5,0.25,0.25,2.25,10,initial,36.05,324,342,361,379,397,9,9,9,9,9,,,,,3,0,3,0,0,52,52,38,,,,,num_4,1.1105551000218838,num_4,0.25,1.0,0.25,0.7,9.01073,25.23005,return,2.441501299996162,,,,,,,9,21,female,left_right_width,2023_Aug_24_1051,exp1,2021.2.3,59.95473417302588,
,,,,,,,,,,,,,,,,4,9.425,9.808333333333334,10.191666666666666,10.575,0,0.3833333333333333,0.1333333333333333,0.25,1.4,10,match,36.05,340,354,367,381,0,9,9,9,9,0,,,,,3,0,3,0,0,53,53,5,,,,,num_4,2.023786600009771,num_4,0.3,0.7,0.3,0.5,10.81288,18.02146,return,2.0183595000125933,,,,,,,9,21,female,left_right_width,2023_Aug_24_1051,exp1,2021.2.3,59.95473417302588,
,,,,,,,,,,,,,,,,,,,,,,,,,,,,,,,,,,,,,,,,,,,3,0,3,0,,,,,,,,,,,,,,,,,,,,,,1986.5208002,None,1986.5208002,None,9,21,female,left_right_width,2023_Aug_24_1051,exp1,2021.2.3,59.95473417302588,
,,,,,,,,,,,,,,,,4,9.5,9.833333333333334,10.166666666666666,10.5,0,0.33333333333333337,0.23333333333333336,0.1,1.1,10,match,36.05,342,354,367,379,0,9,9,9,9,0,,,,,4,0,4,0,0,0,0,1,,,,,num_3,1.1231748000136577,num_3,0.15,0.9,0.15,0.5,5.40644,18.02146,return,3.5579638999770395,,,,,,,9,21,female,left_right_width,2023_Aug_24_1051,exp1,2021.2.3,59.95473417302588,
,,,,,,,,,,,,,,,,4,8.65,9.55,10.45,11.35,0,0.9,0.5,0.4,3.1,10,initial,36.05,312,344,377,409,0,9,9,9,9,0,,,,,4,0,4,0,0,1,1,34,,,,,num_3,1.319020199996885,num_3,0.3,1.1,0.39999999999999997,1.2,14.41717,43.25151,return,3.8226838000118732,,,,,,,9,21,female,left_right_width,2023_Aug_24_1051,exp1,2021.2.3,59.95473417302588,
,,,,,,,,,,,,,,,,5,8.95,9.475,10,10.525,11.05,0.525,0.125,0.4,2.5,10,match,36.05,323,342,361,379,398,9,9,9,9,9,,,,,4,0,4,0,0,2,2,29,,,,,num_3,4.096587200008798,num_3,0.1,0.5,0.44999999999999996,0.6,16.21932,21.62576,return,5.832909399992786,,,,,,,9,21,female,left_right_width,2023_Aug_24_1051,exp1,2021.2.3,59.95473417302588,
,,,,,,,,,,,,,,,,4,8.65,9.55,10.45,11.35,0,0.9,0.8,0.1,2.8000000000000003,10,initial,36.05,312,344,377,409,0,9,9,9,9,0,,,,,4,0,4,0,0,3,3,30,,,,,num_3,1.6353761999926064,num_3,0.1,0.5,0.1,1.25,3.60429,45.05366,return,6.510086099995533,,,,,,,9,21,female,left_right_width,2023_Aug_24_1051,exp1,2021.2.3,59.95473417302588,
,,,,,,,,,,,,,,,,5,8.65,9.325,10,10.675,11.35,0.6749999999999999,0.575,0.1,2.8,10,match,36.05,312,336,361,385,409,9,9,9,9,9,,,,,4,0,4,0,0,4,4,31,,,,,num_4,1.054298499977449,num_4,0.4,1.3,0.15000000000000008,1.0,5.40644,36.04293,return,3.314357099996414,,,,,,,9,21,female,left_right_width,2023_Aug_24_1051,exp1,2021.2.3,59.95473417302588,
,,,,,,,,,,,,,,,,5,8.65,9.325,10,10.675,11.35,0.675,0.275,0.4,3.1,10,match,36.05,312,336,361,385,409,9,9,9,9,9,,,,,4,0,4,0,0,5,5,35,,,,,num_4,1.1689884000224993,num_4,0.25,1.0,0.44999999999999996,0.8,16.21932,28.83434,return,3.040042899985565,,,,,,,9,21,female,left_right_width,2023_Aug_24_1051,exp1,2021.2.3,59.95473417302588,
,,,,,,,,,,,,,,,,3,9.3,10,10.7,0,0,0.7,0.44999999999999996,0.25,1.65,10,initial,36.05,335,361,386,0,0,9,9,9,0,0,,,,,4,0,4,0,0,6,6,8,,,,,num_2,1.0794993999879807,num_2,0.45,1.6,0.4,1.2,14.41717,43.25151,return,3.2902961999934632,,,,,,,9,21,female,left_right_width,2023_Aug_24_1051,exp1,2021.2.3,59.95473417302588,
,,,,,,,,,,,,,,,,5,8.2,9.1,10,10.9,11.8,0.9,0.65,0.25,3.85,10,initial,36.05,296,328,361,393,425,9,9,9,9,9,,,,,4,0,4,0,0,7,7,50,,,,,num_4,0.9286021000007167,num_4,0.15,1.3,0.3,1.3,10.81288,46.85581,return,1.8813006000127643,,,,,,,9,21,female,left_right_width,2023_Aug_24_1051,exp1,2021.2.3,59.95473417302588,
,,,,,,,,,,,,,,,,5,9.25,9.625,10,10.375,10.75,0.375,0.125,0.25,1.75,10,match,36.05,333,347,361,374,388,9,9,9,9,9,,,,,4,0,4,0,0,8,8,21,,,,,num_4,0.9398887999996077,num_4,0.2,1.3,0.25,0.7,9.01073,25.23005,return,4.8198042000003625,,,,,,,9,21,female,left_right_width,2023_Aug_24_1051,exp1,2021.2.3,59.95473417302588,
,,,,,,,,,,,,,,,,4,9.25,9.75,10.25,10.75,0,0.5,0.09999999999999998,0.4,1.9,10,initial,36.05,333,351,370,388,0,9,9,9,9,0,,,,,4,0,4,0,0,9,9,22,,,,,num_3,1.863130599987926,num_3,0.25,0.3,0.25,0.45,9.01073,16.21932,return,3.371126300015021,,,,,,,9,21,female,left_right_width,2023_Aug_24_1051,exp1,2021.2.3,59.95473417302588,
,,,,,,,,,,,,,,,,4,9.5,9.833333333333334,10.166666666666666,10.5,0,0.3333333333333333,0.08333333333333333,0.25,1.25,10,match,36.05,342,354,367,379,0,9,9,9,9,0,,,,,4,0,4,0,0,10,10,3,,,,,num_3,1.1652517999755219,num_3,0.2,0.4,0.3,0.45,10.81288,16.21932,return,4.556706900009885,,,,,,,9,21,female,left_right_width,2023_Aug_24_1051,exp1,2021.2.3,59.95473417302588,
,,,,,,,,,,,,,,,,3,9,10,11,0,0,1,0.9,0.1,2.1,10,match,36.05,324,361,397,0,0,9,9,9,0,0,,,,,4,0,4,0,0,11,11,37,,,,,num_2,0.8800389000098221,num_2,0.15,1.6,0.09999999999999999,1.7,3.60429,61.27298,return,4.925079599983292,,,,,,,9,21,female,left_right_width,2023_Aug_24_1051,exp1,2021.2.3,59.95473417302588,
,,,,,,,,,,,,,,,,5,9.25,9.625,10,10.375,10.75,0.375,0.275,0.1,1.6,10,match,36.05,333,347,361,374,388,9,9,9,9,9,,,,,4,0,4,0,0,12,12,19,,,,,num_4,1.1872419000137597,num_4,0.2,1.0,0.10000000000000002,0.8,3.60429,28.83434,return,5.346655199973611,,,,,,,9,21,female,left_right_width,2023_Aug_24_1051,exp1,2021.2.3,59.95473417302588,
,,,,,,,,,,,,,,,,3,8.2,10,11.8,0,0,1.8,1.55,0.25,3.85,10,match,36.05,296,361,425,0,0,9,9,9,0,0,,,,,4,0,4,0,0,13,13,51,,,,,num_2,0.9530765999807045,num_2,0.4,1.6,0.25000000000000006,1.6,9.01073,57.66869,return,1.988054599991301,,,,,,,9,21,female,left_right_width,2023_Aug_24_1051,exp1,2021.2.3,59.95473417302588,
,,,,,,,,,,,,,,,,4,9.3,9.766666666666667,10.233333333333333,10.7,0,0.4666666666666667,0.06666666666666665,0.4,1.8,10,match,36.05,335,352,369,386,0,9,9,9,9,0,,,,,4,0,4,0,0,14,14,11,,,,,num_3,1.1030305000022054,num_3,0.4,1.2,0.4,0.8,14.41717,28.83434,return,5.983864999987418,,,,,,,9,21,female,left_right_width,2023_Aug_24_1051,exp1,2021.2.3,59.95473417302588,
,,,,,,,,,,,,,,,,5,9,9.5,10,10.5,11,0.5,0.4,0.1,2.1,10,initial,36.05,324,342,361,379,397,9,9,9,9,9,,,,,4,0,4,0,0,15,15,36,,,,,num_4,1.1312142000242602,num_4,0.25,1.1,0.25,0.7,9.01073,25.23005,return,3.293868399981875,,,,,,,9,21,female,left_right_width,2023_Aug_24_1051,exp1,2021.2.3,59.95473417302588,
,,,,,,,,,,,,,,,,5,8.95,9.475,10,10.525,11.05,0.525,0.275,0.25,2.35,10,match,36.05,323,342,361,379,398,9,9,9,9,9,,,,,4,0,4,0,0,16,16,27,,,,,num_4,0.9879191999789327,num_4,0.45,0.6,0.4,0.7,14.41717,25.23005,return,4.275492100015981,,,,,,,9,21,female,left_right_width,2023_Aug_24_1051,exp1,2021.2.3,59.95473417302588,
,,,,,,,,,,,,,,,,5,8.2,9.1,10,10.9,11.8,0.9,0.5,0.4,4,10,initial,36.05,296,328,361,393,425,9,9,9,9,9,,,,,4,0,4,0,0,17,17,52,,,,,num_4,0.9605866000056267,num_4,0.1,1.2,0.35,1.3,12.61502,46.85581,return,4.041511799994623,,,,,,,9,21,female,left_right_width,2023_Aug_24_1051,exp1,2021.2.3,59.95473417302588,
,,,,,,,,,,,,,,,,4,9.1,9.7,10.3,10.9,0,0.6,0.5,0.1,1.9,10,match,36.05,328,350,371,393,0,9,9,9,9,0,,,,,4,0,4,0,0,18,18,13,,,,,num_4,1.0058666999975685,num_4,0.4,1.3,0.15000000000000008,1.0,5.40644,36.04293,return,2.917989999987185,,,,,,,9,21,female,left_right_width,2023_Aug_24_1051,exp1,2021.2.3,59.95473417302588,
,,,,,,,,,,,,,,,,4,8.95,9.65,10.35,11.05,0,0.7,0.6,0.1,2.1999999999999997,10,initial,36.05,323,348,373,398,0,9,9,9,9,0,,,,,4,0,4,0,0,19,19,24,,,,,num_3,2.118365200003609,num_3,0.4,0.5,0.20000000000000007,0.95,7.20859,34.24078,return,5.998939899989637,,,,,,,9,21,female,left_right_width,2023_Aug_24_1051,exp1,2021.2.3,59.95473417302588,
,,,,,,,,,,,,,,,,3,9.3,10,10.7,0,0,0.7,0.29999999999999993,0.4,1.8,10,initial,36.05,335,361,386,0,0,9,9,9,0,0,,,,,4,0,4,0,0,20,20,10,,,,,num_2,1.073430799995549,num_2,0.45,1.6,0.45,0.9,16.21932,32.43864,return,2.5320322000188753,,,,,,,9,21,female,left_right_width,2023_Aug_24_1051,exp1,2021.2.3,59.95473417302588,
,,,,,,,,,,,,,,,,3,8.2,10,11.8,0,0,1.8000000000000003,1.7000000000000002,0.1,3.7,10,match,36.05,296,361,425,0,0,9,9,9,0,0,,,,,4,0,4,0,0,21,21,49,,,,,num_2,1.008387900015805,num_2,0.1,1.6,0.1,2.3,3.60429,82.89874,return,3.0315056999970693,,,,,,,9,21,female,left_right_width,2023_Aug_24_1051,exp1,2021.2.3,59.95473417302588,
,,,,,,,,,,,,,,,,3,9.5,10,10.5,0,0,0.5,0.4,0.1,1.1,10,initial,36.05,342,361,379,0,0,9,9,9,0,0,,,,,4,0,4,0,0,22,22,0,,,,,num_2,1.134591999987606,num_2,0.45,1.6,0.10000000000000007,0.8,3.60429,28.83434,return,5.472447900014231,,,,,,,9,21,female,left_right_width,2023_Aug_24_1051,exp1,2021.2.3,59.95473417302588,
,,,,,,,,,,,,,,,,5,9,9.5,10,10.5,11,0.5,0.09999999999999998,0.4,2.4,10,initial,36.05,324,342,361,379,397,9,9,9,9,9,,,,,4,0,4,0,0,23,23,40,,,,,num_4,1.2856599000224378,num_4,0.15,0.9,0.39999999999999997,0.9,14.41717,32.43864,return,3.680357400007779,,,,,,,9,21,female,left_right_width,2023_Aug_24_1051,exp1,2021.2.3,59.95473417302588,
,,,,,,,,,,,,,,,,3,9.5,10,10.5,0,0,0.5,0.09999999999999998,0.4,1.4000000000000001,10,initial,36.05,342,361,379,0,0,9,9,9,0,0,,,,,4,0,4,0,0,24,24,4,,,,,num_2,0.9903126000135671,num_2,0.45,1.6,0.4,1.0,14.41717,36.04293,return,4.259198599989759,,,,,,,9,21,female,left_right_width,2023_Aug_24_1051,exp1,2021.2.3,59.95473417302588,
,,,,,,,,,,,,,,,,3,8.6,10,11.4,0,0,1.4,1.15,0.25,3.05,10,match,36.05,310,361,411,0,0,9,9,9,0,0,,,,,4,0,4,0,0,25,25,45,,,,,num_2,0.9959346000105143,num_2,0.45,1.6,0.25000000000000006,1.6,9.01073,57.66869,return,3.466578899999149,,,,,,,9,21,female,left_right_width,2023_Aug_24_1051,exp1,2021.2.3,59.95473417302588,
,,,,,,,,,,,,,,,,5,8.65,9.325,10,10.675,11.35,0.675,0.42500000000000004,0.25,2.95,10,match,36.05,312,336,361,385,409,9,9,9,9,9,,,,,4,0,4,0,0,26,26,33,,,,,num_4,1.1294317999854684,num_4,0.45,0.5,0.25000000000000006,0.9,9.01073,32.43864,return,4.892279300023802,,,,,,,9,21,female,left_right_width,2023_Aug_24_1051,exp1,2021.2.3,59.95473417302588,
,,,,,,,,,,,,,,,,5,9.175,9.5875,10,10.4125,10.825,0.4125,0.16249999999999998,0.25,1.9,10,match,36.05,331,346,361,375,390,9,9,9,9,9,,,,,4,0,4,0,0,27,27,23,,,,,num_4,1.0643875000241678,num_4,0.2,0.9,0.2,0.4,7.20859,14.41717,return,3.420781099994201,,,,,,,9,21,female,left_right_width,2023_Aug_24_1051,exp1,2021.2.3,59.95473417302588,
,,,,,,,,,,,,,,,,4,8.65,9.55,10.45,11.35,0,0.9,0.65,0.25,2.95,10,initial,36.05,312,344,377,409,0,9,9,9,9,0,,,,,4,0,4,0,0,28,28,32,,,,,num_3,2.2144185999932233,num_3,0.1,0.5,0.15000000000000002,0.8,5.40644,28.83434,return,4.525940899999114,,,,,,,9,21,female,left_right_width,2023_Aug_24_1051,exp1,2021.2.3,59.95473417302588,
,,,,,,,,,,,,,,,,4,8.95,9.65,10.35,11.05,0,0.7,0.29999999999999993,0.4,2.5,10,initial,36.05,323,348,373,398,0,9,9,9,9,0,,,,,4,0,4,0,0,29,29,28,,,,,num_4,2.960719499998959,num_4,0.15,1.0,0.25,0.7,9.01073,25.23005,return,3.5923626000003424,,,,,,,9,21,female,left_right_width,2023_Aug_24_1051,exp1,2021.2.3,59.95473417302588,
,,,,,,,,,,,,,,,,4,9.25,9.75,10.25,10.75,0,0.5,0.25,0.25,1.75,10,initial,36.05,333,351,370,388,0,9,9,9,9,0,,,,,4,0,4,0,0,30,30,20,,,,,num_3,2.095867200026987,num_3,0.2,0.6,0.3,0.65,10.81288,23.4279,return,3.0985717000148725,,,,,,,9,21,female,left_right_width,2023_Aug_24_1051,exp1,2021.2.3,59.95473417302588,
,,,,,,,,,,,,,,,,5,9,9.5,10,10.5,11,0.5,0.25,0.25,2.25,10,initial,36.05,324,342,361,379,397,9,9,9,9,9,,,,,4,0,4,0,0,31,31,38,,,,,num_4,1.158408099989174,num_4,0.25,0.3,0.25,0.8,9.01073,28.83434,return,4.77543519999017,,,,,,,9,21,female,left_right_width,2023_Aug_24_1051,exp1,2021.2.3,59.95473417302588,
,,,,,,,,,,,,,,,,3,9.1,10,10.9,0,0,0.9,0.5,0.4,2.2,10,initial,36.05,328,361,393,0,0,9,9,9,0,0,,,,,4,0,4,0,0,32,32,16,,,,,num_2,1.0759126000048127,num_2,0.3,1.6,0.25,0.6,9.01073,21.62576,return,6.264297699992312,,,,,,,9,21,female,left_right_width,2023_Aug_24_1051,exp1,2021.2.3,59.95473417302588,
,,,,,,,,,,,,,,,,4,9.1,9.7,10.3,10.9,0,0.5999999999999999,0.3499999999999999,0.25,2.05,10,match,36.05,328,350,371,393,0,9,9,9,9,0,,,,,4,0,4,0,0,33,33,15,,,,,num_3,1.055786699987948,num_3,0.35,0.4,0.25,0.6,9.01073,21.62576,return,4.2941319000092335,,,,,,,9,21,female,left_right_width,2023_Aug_24_1051,exp1,2021.2.3,59.95473417302588,
,,,,,,,,,,,,,,,,3,8.525,10,11.475,0,0,1.475,1.225,0.25,3.2,10,match,36.05,307,361,414,0,0,9,9,9,0,0,,,,,4,0,4,0,0,34,34,47,,,,,num_2,1.1792465999897104,num_2,0.4,1.6,0.15000000000000008,2.2,5.40644,79.29444,return,3.981175799999619,,,,,,,9,21,female,left_right_width,2023_Aug_24_1051,exp1,2021.2.3,59.95473417302588,
,,,,,,,,,,,,,,,,4,9.1,9.7,10.3,10.9,0,0.6000000000000001,0.20000000000000004,0.4,2.2,10,match,36.05,328,350,371,393,0,9,9,9,9,0,,,,,4,0,4,0,0,35,35,17,,,,,num_3,1.0364606000075582,num_3,0.1,1.3,0.35,0.85,12.61502,30.63649,return,4.864206199999899,,,,,,,9,21,female,left_right_width,2023_Aug_24_1051,exp1,2021.2.3,59.95473417302588,
,,,,,,,,,,,,,,,,5,8.6,9.3,10,10.7,11.4,0.7,0.44999999999999996,0.25,3.05,10,initial,36.05,310,335,361,386,411,9,9,9,9,9,,,,,4,0,4,0,0,36,36,44,,,,,num_4,1.3979624999919906,num_4,0.4,1.3,0.35000000000000003,1.1,12.61502,39.64722,return,3.3248700000112876,,,,,,,9,21,female,left_right_width,2023_Aug_24_1051,exp1,2021.2.3,59.95473417302588,
,,,,,,,,,,,,,,,,3,9,10,11,0,0,0.9999999999999999,0.5999999999999999,0.4,2.4,10,match,36.05,324,361,397,0,0,9,9,9,0,0,,,,,4,0,4,0,0,37,37,41,,,,,num_2,1.048519200005103,num_2,0.1,1.6,0.3,1.5,10.81288,54.06439,return,3.262069500022335,,,,,,,9,21,female,left_right_width,2023_Aug_24_1051,exp1,2021.2.3,59.95473417302588,
,,,,,,,,,,,,,,,,4,9.425,9.808333333333334,10.191666666666666,10.575,0,0.3833333333333333,0.1333333333333333,0.25,1.4,10,match,36.05,340,354,367,381,0,9,9,9,9,0,,,,,4,0,4,0,0,38,38,5,,,,,num_3,1.2176411999971606,num_3,0.15,0.7,0.25,0.6,9.01073,21.62576,return,2.3180014999816194,,,,,,,9,21,female,left_right_width,2023_Aug_24_1051,exp1,2021.2.3,59.95473417302588,
,,,,,,,,,,,,,,,,3,9,10,11,0,0,1,0.75,0.25,2.25,10,match,36.05,324,361,397,0,0,9,9,9,0,0,,,,,4,0,4,0,0,39,39,39,,,,,num_2,0.9645623999822419,num_2,0.3,1.6,0.25,2.4,9.01073,86.50303,return,4.685436600004323,,,,,,,9,21,female,left_right_width,2023_Aug_24_1051,exp1,2021.2.3,59.95473417302588,
,,,,,,,,,,,,,,,,3,8.2,10,11.8,0,0,1.7999999999999998,1.4,0.4,4,10,match,36.05,296,361,425,0,0,9,9,9,0,0,,,,,4,0,4,0,0,40,40,53,,,,,num_2,0.970248099998571,num_2,0.25,1.6,0.25,2.2,9.01073,79.29444,return,5.2189533000055235,,,,,,,9,21,female,left_right_width,2023_Aug_24_1051,exp1,2021.2.3,59.95473417302588,
,,,,,,,,,,,,,,,,3,9.3,10,10.7,0,0,0.7,0.6,0.1,1.5,10,initial,36.05,335,361,386,0,0,9,9,9,0,0,,,,,4,0,4,0,0,41,41,6,,,,,num_2,1.0323880999931134,num_2,0.1,1.6,0.1,1.1,3.60429,39.64722,return,3.5668066999933217,,,,,,,9,21,female,left_right_width,2023_Aug_24_1051,exp1,2021.2.3,59.95473417302588,
,,,,,,,,,,,,,,,,4,9.25,9.75,10.25,10.75,0,0.5,0.4,0.1,1.6,10,initial,36.05,333,351,370,388,0,9,9,9,9,0,,,,,4,0,4,0,0,42,42,18,,,,,num_2,0.9886121000163257,num_2,0.25,1.6,0.15000000000000002,1.1,5.40644,39.64722,return,2.6427064999879804,,,,,,,9,21,female,left_right_width,2023_Aug_24_1051,exp1,2021.2.3,59.95473417302588,
,,,,,,,,,,,,,,,,3,9.5,10,10.5,0,0,0.5,0.25,0.25,1.25,10,initial,36.05,342,361,379,0,0,9,9,9,0,0,,,,,4,0,4,0,0,43,43,2,,,,,num_3,0.9445511999947485,num_3,0.2,1,0.25,0.85,9.01073,30.63649,return,4.151336700015236,,,,,,,9,21,female,left_right_width,2023_Aug_24_1051,exp1,2021.2.3,59.95473417302588,
,,,,,,,,,,,,,,,,3,9.1,10,10.9,0,0,0.9,0.65,0.25,2.05,10,initial,36.05,328,361,393,0,0,9,9,9,0,0,,,,,4,0,4,0,0,44,44,14,,,,,num_2,1.3985262000060175,num_2,0.15,1.6,0.15,1.0,5.40644,36.04293,return,3.1328119999961928,,,,,,,9,21,female,left_right_width,2023_Aug_24_1051,exp1,2021.2.3,59.95473417302588,
,,,,,,,,,,,,,,,,5,8.6,9.3,10,10.7,11.4,0.7,0.6,0.1,2.9,10,initial,36.05,310,335,361,386,411,9,9,9,9,9,,,,,4,0,4,0,0,45,45,42,,,,,num_4,1.059178499999689,num_4,0.2,0.6,0.15000000000000002,0.9,5.40644,32.43864,return,2.7919430999900214,,,,,,,9,21,female,left_right_width,2023_Aug_24_1051,exp1,2021.2.3,59.95473417302588,
,,,,,,,,,,,,,,,,4,9.3,9.766666666666667,10.233333333333333,10.7,0,0.4666666666666667,0.3666666666666667,0.1,1.5,10,match,36.05,335,352,369,386,0,9,9,9,9,0,,,,,4,0,4,0,0,46,46,7,,,,,num_3,0.9745738000201527,num_3,0.15,0.4,0.15,0.45,5.40644,16.21932,return,2.101995500008343,,,,,,,9,21,female,left_right_width,2023_Aug_24_1051,exp1,2021.2.3,59.95473417302588,
,,,,,,,,,,,,,,,,5,8.6,9.3,10,10.7,11.4,0.7,0.29999999999999993,0.4,3.1999999999999997,10,initial,36.05,310,335,361,386,411,9,9,9,9,9,,,,,4,0,4,0,0,47,47,46,,,,,num_4,0.9709799000120256,num_4,0.1,0.5,0.3,0.7,10.81288,25.23005,return,3.105717400001595,,,,,,,9,21,female,left_right_width,2023_Aug_24_1051,exp1,2021.2.3,59.95473417302588,
,,,,,,,,,,,,,,,,5,8.2,9.1,10,10.9,11.8,0.9,0.8,0.1,3.7,10,initial,36.05,296,328,361,393,425,9,9,9,9,9,,,,,4,0,4,0,0,48,48,48,,,,,num_4,1.199078899982851,num_4,0.25,0.6,0.2,1.6,7.20859,57.66869,return,4.972129300003871,,,,,,,9,21,female,left_right_width,2023_Aug_24_1051,exp1,2021.2.3,59.95473417302588,
,,,,,,,,,,,,,,,,3,9.1,10,10.9,0,0,0.9,0.8,0.1,1.9000000000000001,10,initial,36.05,328,361,393,0,0,9,9,9,0,0,,,,,4,0,4,0,0,49,49,12,,,,,num_2,1.032108099985635,num_2,0.25,1.6,0.15000000000000002,2.0,5.40644,72.08586,return,3.023634899989702,,,,,,,9,21,female,left_right_width,2023_Aug_24_1051,exp1,2021.2.3,59.95473417302588,
,,,,,,,,,,,,,,,,5,8.95,9.475,10,10.525,11.05,0.525,0.42500000000000004,0.1,2.2,10,match,36.05,323,342,361,379,398,9,9,9,9,9,,,,,4,0,4,0,0,50,50,25,,,,,num_4,1.0372995000216179,num_4,0.25,1.2,0.10000000000000002,0.8,3.60429,28.83434,return,3.1069942000031006,,,,,,,9,21,female,left_right_width,2023_Aug_24_1051,exp1,2021.2.3,59.95473417302588,
,,,,,,,,,,,,,,,,4,8.95,9.65,10.35,11.05,0,0.7,0.44999999999999996,0.25,2.3499999999999996,10,initial,36.05,323,348,373,398,0,9,9,9,9,0,,,,,4,0,4,0,0,51,51,26,,,,,num_2,1.0546380000014324,num_2,0.3,1.6,0.3,1.4,10.81288,50.4601,return,3.0269077999982983,,,,,,,9,21,female,left_right_width,2023_Aug_24_1051,exp1,2021.2.3,59.95473417302588,
,,,,,,,,,,,,,,,,3,8.6,10,11.4,0,0,1.4,1.2999999999999998,0.1,2.9,10,match,36.05,310,361,411,0,0,9,9,9,0,0,,,,,4,0,4,0,0,52,52,43,,,,,num_2,1.034949199995026,num_2,0.35,1.6,0.10000000000000002,1.6,3.60429,57.66869,return,1.7744153999956325,,,,,,,9,21,female,left_right_width,2023_Aug_24_1051,exp1,2021.2.3,59.95473417302588,
,,,,,,,,,,,,,,,,4,9.3,9.766666666666667,10.233333333333333,10.7,0,0.4666666666666667,0.21666666666666665,0.25,1.65,10,match,36.05,335,352,369,386,0,9,9,9,9,0,,,,,4,0,4,0,0,53,53,9,,,,,num_3,1.2433473000128288,num_3,0.45,1.2,0.4,0.9,14.41717,32.43864,return,2.906224599981215,,,,,,,9,21,female,left_right_width,2023_Aug_24_1051,exp1,2021.2.3,59.95473417302588,
,,,,,,,,,,,,,,,,,,,,,,,,,,,,,,,,,,,,,,,,,,,4,0,4,0,,,,,,,,,,,,,,,,,,,,,,2368.9211149999755,None,2368.9211149999755,None,9,21,female,left_right_width,2023_Aug_24_1051,exp1,2021.2.3,59.95473417302588,
,,,,,,,,,,,,,,,,5,8.6,9.3,10,10.7,11.4,0.7,0.6,0.1,2.9,10,initial,36.05,310,335,361,386,411,9,9,9,9,9,,,,,5,0,5,0,0,0,0,42,,,,,num_3,1.3577820000064094,num_3,0.1,0.5,0.1,1.05,3.60429,37.84507,return,3.219378499983577,,,,,,,9,21,female,left_right_width,2023_Aug_24_1051,exp1,2021.2.3,59.95473417302588,
,,,,,,,,,,,,,,,,3,9.3,10,10.7,0,0,0.7,0.6,0.1,1.5,10,initial,36.05,335,361,386,0,0,9,9,9,0,0,,,,,5,0,5,0,0,1,1,6,,,,,num_2,1.1699110000045039,num_2,0.3,1.6,0.2,1.4,7.20859,50.4601,return,5.009867899992969,,,,,,,9,21,female,left_right_width,2023_Aug_24_1051,exp1,2021.2.3,59.95473417302588,
,,,,,,,,,,,,,,,,3,9.1,10,10.9,0,0,0.9,0.65,0.25,2.05,10,initial,36.05,328,361,393,0,0,9,9,9,0,0,,,,,5,0,5,0,0,2,2,14,,,,,num_2,1.2978305000287946,num_2,0.1,1.6,0.2,1.6,7.20859,57.66869,return,1.9177503999962937,,,,,,,9,21,female,left_right_width,2023_Aug_24_1051,exp1,2021.2.3,59.95473417302588,
,,,,,,,,,,,,,,,,3,8.2,10,11.8,0,0,1.8,1.55,0.25,3.85,10,match,36.05,296,361,425,0,0,9,9,9,0,0,,,,,5,0,5,0,0,3,3,51,,,,,num_2,1.2350200999935623,num_2,0.45,1.6,0.30000000000000004,1.6,10.81288,57.66869,return,2.6707533999870066,,,,,,,9,21,female,left_right_width,2023_Aug_24_1051,exp1,2021.2.3,59.95473417302588,
,,,,,,,,,,,,,,,,4,8.95,9.65,10.35,11.05,0,0.7,0.6,0.1,2.1999999999999997,10,initial,36.05,323,348,373,398,0,9,9,9,9,0,,,,,5,0,5,0,0,4,4,24,,,,,num_2,1.1126303999917582,num_2,0.15,1.6,0.15,1.5,5.40644,54.06439,return,1.6612033999990672,,,,,,,9,21,female,left_right_width,2023_Aug_24_1051,exp1,2021.2.3,59.95473417302588,
,,,,,,,,,,,,,,,,4,8.95,9.65,10.35,11.05,0,0.7,0.29999999999999993,0.4,2.5,10,initial,36.05,323,348,373,398,0,9,9,9,9,0,,,,,5,0,5,0,0,5,5,28,,,,,num_3,1.061333099991316,num_3,0.25,0.9,0.44999999999999996,0.9,16.21932,32.43864,return,2.663373900024453,,,,,,,9,21,female,left_right_width,2023_Aug_24_1051,exp1,2021.2.3,59.95473417302588,
,,,,,,,,,,,,,,,,3,9.3,10,10.7,0,0,0.7,0.29999999999999993,0.4,1.8,10,initial,36.05,335,361,386,0,0,9,9,9,0,0,,,,,5,0,5,0,0,6,6,10,,,,,num_3,1.191904400009662,num_3,0.15,0.7,0.35,0.7,12.61502,25.23005,return,1.940105699992273,,,,,,,9,21,female,left_right_width,2023_Aug_24_1051,exp1,2021.2.3,59.95473417302588,
,,,,,,,,,,,,,,,,3,9,10,11,0,0,1,0.9,0.1,2.1,10,match,36.05,324,361,397,0,0,9,9,9,0,0,,,,,5,0,5,0,0,7,7,37,,,,,num_2,1.007695500011323,num_2,0.2,1.6,0.15000000000000002,1.9,5.40644,68.48156,return,4.743056699982844,,,,,,,9,21,female,left_right_width,2023_Aug_24_1051,exp1,2021.2.3,59.95473417302588,
,,,,,,,,,,,,,,,,5,8.65,9.325,10,10.675,11.35,0.675,0.42500000000000004,0.25,2.95,10,match,36.05,312,336,361,385,409,9,9,9,9,9,,,,,5,0,5,0,0,8,8,33,,,,,num_3,1.041065899975365,num_3,0.2,0.6,0.2,0.95,7.20859,34.24078,return,3.4475136999972165,,,,,,,9,21,female,left_right_width,2023_Aug_24_1051,exp1,2021.2.3,59.95473417302588,
,,,,,,,,,,,,,,,,4,8.65,9.55,10.45,11.35,0,0.9,0.5,0.4,3.1,10,initial,36.05,312,344,377,409,0,9,9,9,9,0,,,,,5,0,5,0,0,9,9,34,,,,,num_4,1.907131499989191,num_4,0.25,1.0,0.35,0.9,12.61502,32.43864,return,3.686261299997568,,,,,,,9,21,female,left_right_width,2023_Aug_24_1051,exp1,2021.2.3,59.95473417302588,
,,,,,,,,,,,,,,,,3,9,10,11,0,0,0.9999999999999999,0.5999999999999999,0.4,2.4,10,match,36.05,324,361,397,0,0,9,9,9,0,0,,,,,5,0,5,0,0,10,10,41,,,,,num_2,0.946933800005354,num_2,0.1,1.6,0.3,1.3,10.81288,46.85581,return,3.9498283000139054,,,,,,,9,21,female,left_right_width,2023_Aug_24_1051,exp1,2021.2.3,59.95473417302588,
,,,,,,,,,,,,,,,,3,9.5,10,10.5,0,0,0.5,0.09999999999999998,0.4,1.4000000000000001,10,initial,36.05,342,361,379,0,0,9,9,9,0,0,,,,,5,0,5,0,0,11,11,4,,,,,num_2,1.1151901000121143,num_2,0.35,1.6,0.35,0.5,12.61502,18.02146,return,4.270044900011271,,,,,,,9,21,female,left_right_width,2023_Aug_24_1051,exp1,2021.2.3,59.95473417302588,
,,,,,,,,,,,,,,,,4,9.5,9.833333333333334,10.166666666666666,10.5,0,0.3333333333333333,0.08333333333333333,0.25,1.25,10,match,36.05,342,354,367,379,0,9,9,9,9,0,,,,,5,0,5,0,0,12,12,3,,,,,num_3,1.087609699985478,num_3,0.2,0.9,0.35,0.5,12.61502,18.02146,return,4.689943500008667,,,,,,,9,21,female,left_right_width,2023_Aug_24_1051,exp1,2021.2.3,59.95473417302588,
,,,,,,,,,,,,,,,,3,8.6,10,11.4,0,0,1.4,1.2999999999999998,0.1,2.9,10,match,36.05,310,361,411,0,0,9,9,9,0,0,,,,,5,0,5,0,0,13,13,43,,,,,num_2,1.3578166000079364,num_2,0.15,1.6,0.09999999999999999,2.9,3.60429,104.52449,return,4.982607600017218,,,,,,,9,21,female,left_right_width,2023_Aug_24_1051,exp1,2021.2.3,59.95473417302588,
,,,,,,,,,,,,,,,,5,8.2,9.1,10,10.9,11.8,0.9,0.8,0.1,3.7,10,initial,36.05,296,328,361,393,425,9,9,9,9,9,,,,,5,0,5,0,0,14,14,48,,,,,num_4,1.8940057000145316,num_4,0.25,0.5,0.15000000000000002,1.1,5.40644,39.64722,return,4.601601900008973,,,,,,,9,21,female,left_right_width,2023_Aug_24_1051,exp1,2021.2.3,59.95473417302588,
,,,,,,,,,,,,,,,,5,8.65,9.325,10,10.675,11.35,0.6749999999999999,0.575,0.1,2.8,10,match,36.05,312,336,361,385,409,9,9,9,9,9,,,,,5,0,5,0,0,15,15,31,,,,,num_5,2.2098928000195883,num_5,0.25,0.5,0.10000000000000002,0.75,3.60429,27.0322,return,4.5676442999974824,,,,,,,9,21,female,left_right_width,2023_Aug_24_1051,exp1,2021.2.3,59.95473417302588,
,,,,,,,,,,,,,,,,4,9.25,9.75,10.25,10.75,0,0.5,0.25,0.25,1.75,10,initial,36.05,333,351,370,388,0,9,9,9,9,0,,,,,5,0,5,0,0,16,16,20,,,,,num_4,0.9903943999961484,num_4,0.3,1.1,0.25,0.6,9.01073,21.62576,return,4.308077299996512,,,,,,,9,21,female,left_right_width,2023_Aug_24_1051,exp1,2021.2.3,59.95473417302588,
,,,,,,,,,,,,,,,,4,9.25,9.75,10.25,10.75,0,0.5,0.09999999999999998,0.4,1.9,10,initial,36.05,333,351,370,388,0,9,9,9,9,0,,,,,5,0,5,0,0,17,17,22,,,,,num_3,1.6098496000049636,num_3,0.2,0.9,0.3,0.6,10.81288,21.62576,return,3.289290099986829,,,,,,,9,21,female,left_right_width,2023_Aug_24_1051,exp1,2021.2.3,59.95473417302588,
,,,,,,,,,,,,,,,,3,9.3,10,10.7,0,0,0.7,0.44999999999999996,0.25,1.65,10,initial,36.05,335,361,386,0,0,9,9,9,0,0,,,,,5,0,5,0,0,18,18,8,,,,,num_2,1.43701449999935,num_2,0.2,1.6,0.35,0.9,12.61502,32.43864,return,2.658595399989281,,,,,,,9,21,female,left_right_width,2023_Aug_24_1051,exp1,2021.2.3,59.95473417302588,
,,,,,,,,,,,,,,,,4,9.3,9.766666666666667,10.233333333333333,10.7,0,0.4666666666666667,0.21666666666666665,0.25,1.65,10,match,36.05,335,352,369,386,0,9,9,9,9,0,,,,,5,0,5,0,0,19,19,9,,,,,num_3,0.9806750999996439,num_3,0.3,0.8,0.3,0.6,10.81288,21.62576,return,4.908629099983955,,,,,,,9,21,female,left_right_width,2023_Aug_24_1051,exp1,2021.2.3,59.95473417302588,
,,,,,,,,,,,,,,,,3,9.5,10,10.5,0,0,0.5,0.25,0.25,1.25,10,initial,36.05,342,361,379,0,0,9,9,9,0,0,,,,,5,0,5,0,0,20,20,2,,,,,num_2,1.0663504999829456,num_2,0.1,1.6,0.3,0.7,10.81288,25.23005,return,5.375658800010569,,,,,,,9,21,female,left_right_width,2023_Aug_24_1051,exp1,2021.2.3,59.95473417302588,
,,,,,,,,,,,,,,,,4,8.65,9.55,10.45,11.35,0,0.9,0.8,0.1,2.8000000000000003,10,initial,36.05,312,344,377,409,0,9,9,9,9,0,,,,,5,0,5,0,0,21,21,30,,,,,num_3,1.4506617999868467,num_3,0.45,0.7,0.10000000000000007,1.0,3.60429,36.04293,return,6.303793500002939,,,,,,,9,21,female,left_right_width,2023_Aug_24_1051,exp1,2021.2.3,59.95473417302588,
,,,,,,,,,,,,,,,,3,8.6,10,11.4,0,0,1.4,1.15,0.25,3.05,10,match,36.05,310,361,411,0,0,9,9,9,0,0,,,,,5,0,5,0,0,22,22,45,,,,,num_2,1.1485721000062767,num_2,0.25,1.6,0.2,2.1,7.20859,75.69015,return,3.901801500003785,,,,,,,9,21,female,left_right_width,2023_Aug_24_1051,exp1,2021.2.3,59.95473417302588,
,,,,,,,,,,,,,,,,5,8.95,9.475,10,10.525,11.05,0.525,0.42500000000000004,0.1,2.2,10,match,36.05,323,342,361,379,398,9,9,9,9,9,,,,,5,0,5,0,0,23,23,25,,,,,num_4,1.1946046999946702,num_4,0.1,1.3,0.1,0.7,3.60429,25.23005,return,5.61011830001371,,,,,,,9,21,female,left_right_width,2023_Aug_24_1051,exp1,2021.2.3,59.95473417302588,
,,,,,,,,,,,,,,,,3,9,10,11,0,0,1,0.75,0.25,2.25,10,match,36.05,324,361,397,0,0,9,9,9,0,0,,,,,5,0,5,0,0,24,24,39,,,,,num_2,0.8818392000102904,num_2,0.2,1.6,0.15000000000000002,1.3,5.40644,46.85581,return,2.4451534999825526,,,,,,,9,21,female,left_right_width,2023_Aug_24_1051,exp1,2021.2.3,59.95473417302588,
