amount_p,posx1_p,posx2_p,posx3_p,posx4_p,posx5_p,center_to_center_p,edge_to_edge_p,w_p,stim_length_p,eccentricity_p,line1_p,line2_p,line3_p,line4_p,line5_p,amount,posx1,posx2,posx3,posx4,posx5,center_to_center,edge_to_edge,w,stim_length,eccentricity,trial_type,deg_to_pix_index,posx1_in_pix,posx2_in_pix,posx3_in_pix,posx4_in_pix,posx5_in_pix,line1,line2,line3,line4,line5,posx,setsize_cobdi,trials.thisRepN,trials.thisTrialN,trials.thisN,trials.thisIndex,blocks.thisRepN,blocks.thisTrialN,blocks.thisN,blocks.thisIndex,loop.thisRepN,loop.thisTrialN,loop.thisN,loop.thisIndex,first.thisRepN,first.thisTrialN,first.thisN,first.thisIndex,second.thisRepN,second.thisTrialN,second.thisN,second.thisIndex,key_resp_3.started,key_resp_3.keys,key_resp_3.rt,key_resp.keys,key_resp.rt,response,starting_width_deg,starting_space_deg,response_width_degree,response_spacing_degree,response_width_pixel,response_spacing_pixel,next_5.keys,next_5.rt,key_resp_4.keys,key_resp_4.rt,text_3.started,text_4.started,key_resp_2.started,text_2.started,key_resp_2.keys,key_resp_2.rt,adjusting.started,next.keys,next.rt,text_control2.started,key_resp.started,key_resp.corr,text_bye.started,text_bye.stopped,participant,age,gender,resp_group,date,expName,psychopyVersion,frameRate,
,,,,,,,,,,,,,,,,,,,,,,,,,,,,,,,,,,,,,,,,,,,,,,,,,,,,,,,,,,,,,87.25220009998884,c,238.58288910007104,,,,,,,,,,,,,,,,,,,,,,,,,,,,903,24,female,left_right_width,2024-10-15_12h39.46.065,exp1,2023.1.0,59.99703615178415,
3,9.5,10,10.5,0,0,0.5,0.25,0.25,1.25,10,9,9,9,0,0,,,,,,,,,,,,,,,,,,,,,,,,,,0,0,0,0,,,,,,,,,,,,,,,,,,,,num_3,3.747723100008443,num_3,0.25,1.1,0.25,0.95,9.55138,36.29523,return,20.844107799930498,,,,,,,,,,,,,,,,,903,24,female,left_right_width,2024-10-15_12h39.46.065,exp1,2023.1.0,59.99703615178415,
5,8.2,9.1,10,10.9,11.8,0.9,0.35,0.55,4.15,10,9,9,9,9,9,,,,,,,,,,,,,,,,,,,,,,,,,,0,1,1,2,,,,,,,,,,,,,,,,,,,,num_4,2.269900399958715,num_4,0.35,0.4,0.44999999999999996,0.7,17.19248,26.74385,return,7.550967499963008,,,,,,,,,,,,,,,,,903,24,female,left_right_width,2024-10-15_12h39.46.065,exp1,2023.1.0,59.99703615178415,
4,9.25,9.75,10.25,10.75,0,0.5,0.25,0.25,1.75,10,9,9,9,9,0,,,,,,,,,,,,,,,,,,,,,,,,,,0,2,2,1,,,,,,,,,,,,,,,,,,,,num_4,2.5253820999059826,num_4,0.25,0.7,0.15000000000000002,0.5,5.73083,19.10275,return,5.599344399990514,,,,,,,,,,,,,,,,,903,24,female,left_right_width,2024-10-15_12h39.46.065,exp1,2023.1.0,59.99703615178415,
3,9.1,10,10.9,0,0,0.9,0.35,0.55,2.35,10,9,9,9,0,0,,,,,,,,,,,,,,,,,,,,,,,,,,0,3,3,3,,,,,,,,,,,,,,,,,,,,num_4,1.9828844999428838,num_4,0.55,0.9,0.55,0.9,21.01303,34.38495,return,3.3361258999211714,,,,,,,,,,,,,,,,,903,24,female,left_right_width,2024-10-15_12h39.46.065,exp1,2023.1.0,59.99703615178415,
5,9,9.5,10,10.5,11,0.5,0.1,0.4,2.4,10,9,9,9,9,9,,,,,,,,,,,,,,,,,,,,,,,,,,0,4,4,5,,,,,,,,,,,,,,,,,,,,num_4,4.001336900051683,num_4,0.5,1.2,0.6000000000000001,0.8,22.9233,30.5644,return,6.140770000056364,,,,,,,,,,,,,,,,,903,24,female,left_right_width,2024-10-15_12h39.46.065,exp1,2023.1.0,59.99703615178415,
4,9.25,9.75,10.25,10.75,0,0.5,0.1,0.4,1.9000000000000001,10,9,9,9,9,0,,,,,,,,,,,,,,,,,,,,,,,,,,0,5,5,4,,,,,,,,,,,,,,,,,,,,num_1,2.4393271999433637,num_1,0.4,9999,0.45,9999,17.19248,382016.8345,return,17.85593560000416,,,,,,,,,,,,,,,,,903,24,female,left_right_width,2024-10-15_12h39.46.065,exp1,2023.1.0,59.99703615178415,
,,,,,,,,,,,,,,,,,,,,,,,,,,,,,,,,,,,,,,,,,,,,,,,,,,,,,,,,,,,,,,,,,,,,,,,,,,,c,201.17605449992698,,,,,,,,,,,,,,,903,24,female,left_right_width,2024-10-15_12h39.46.065,exp1,2023.1.0,59.99703615178415,
,,,,,,,,,,,,,,,,4,8.65,9.55,10.45,11.35,0,0.9,0.35,0.55,3.25,10,initial,36.05,312,344,377,409,0,9,9,9,9,0,,,,,,,0,0,0,0,0,0,0,38,,,,,,,,,,,,num_4,3.11301609990187,num_4,0.5,1.2,0.55,0.8,21.01303,30.5644,return,8.567870499915443,,,,,,,,,,,,,,,,,903,24,female,left_right_width,2024-10-15_12h39.46.065,exp1,2023.1.0,59.99703615178415,
,,,,,,,,,,,,,,,,3,9.1,10,10.9,0,0,0.9,0.35,0.55,2.35,10,initial,36.05,328,361,393,0,0,9,9,9,0,0,,,,,,,0,0,0,0,0,1,1,33,,,,,,,,,,,,num_4,2.3435073000146076,num_4,0.45,1.2,0.45,0.7,17.19248,26.74385,return,4.645072999992408,,,,,,,,,,,,,,,,,903,24,female,left_right_width,2024-10-15_12h39.46.065,exp1,2023.1.0,59.99703615178415,
,,,,,,,,,,,,,,,,3,9.1,10,10.9,0,0,0.9,0.35,0.55,2.35,10,initial,36.05,328,361,393,0,0,9,9,9,0,0,,,,,,,0,0,0,0,0,2,2,31,,,,,,,,,,,,num_4,1.7403724000323564,num_4,0.5,1.2,0.7500000000000002,0.9,28.65413,34.38495,return,8.514721399988048,,,,,,,,,,,,,,,,,903,24,female,left_right_width,2024-10-15_12h39.46.065,exp1,2023.1.0,59.99703615178415,
,,,,,,,,,,,,,,,,3,9.1,10,10.9,0,0,0.9,0.35,0.55,2.35,10,initial,36.05,328,361,393,0,0,9,9,9,0,0,,,,,,,0,0,0,0,0,3,3,6,,,,,,,,,,,,num_4,1.6194570999359712,num_4,0.5,1.2,0.35000000000000003,0.7,13.37193,26.74385,return,7.198611400090158,,,,,,,,,,,,,,,,,903,24,female,left_right_width,2024-10-15_12h39.46.065,exp1,2023.1.0,59.99703615178415,
,,,,,,,,,,,,,,,,5,8.2,9.1,10,10.9,11.8,0.9,0.35,0.55,4.15,10,initial,36.05,296,328,361,393,425,9,9,9,9,9,,,,,,,0,0,0,0,0,4,4,20,,,,,,,,,,,,num_5,2.555523799965158,num_5,0.25,1.2,0.5499999999999999,0.8,21.01303,30.5644,return,8.574948200024664,,,,,,,,,,,,,,,,,903,24,female,left_right_width,2024-10-15_12h39.46.065,exp1,2023.1.0,59.99703615178415,
,,,,,,,,,,,,,,,,4,8.65,9.55,10.45,11.35,0,0.9,0.35,0.55,3.25,10,initial,36.05,312,344,377,409,0,9,9,9,9,0,,,,,,,0,0,0,0,0,5,5,17,,,,,,,,,,,,num_5,4.0465920000569895,num_5,0.3,1.3,0.5499999999999999,0.8,21.01303,30.5644,return,14.821188200032339,,,,,,,,,,,,,,,,,903,24,female,left_right_width,2024-10-15_12h39.46.065,exp1,2023.1.0,59.99703615178415,
,,,,,,,,,,,,,,,,5,8.2,9.1,10,10.9,11.8,0.9,0.35,0.55,4.15,10,initial,36.05,296,328,361,393,425,9,9,9,9,9,,,,,,,0,0,0,0,0,6,6,53,,,,,,,,,,,,num_5,1.7932925999630243,num_5,0.35,1.3,0.7500000000000001,1.1,28.65413,42.02605,return,10.680566400056705,,,,,,,,,,,,,,,,,903,24,female,left_right_width,2024-10-15_12h39.46.065,exp1,2023.1.0,59.99703615178415,
,,,,,,,,,,,,,,,,3,9.1,10,10.9,0,0,0.9,0.35,0.55,2.35,10,initial,36.05,328,361,393,0,0,9,9,9,0,0,,,,,,,0,0,0,0,0,7,7,30,,,,,,,,,,,,num_4,3.06660370004829,num_4,0.45,1.1,0.5,0.7,19.10275,26.74385,return,6.255076100002043,,,,,,,,,,,,,,,,,903,24,female,left_right_width,2024-10-15_12h39.46.065,exp1,2023.1.0,59.99703615178415,
,,,,,,,,,,,,,,,,5,8.2,9.1,10,10.9,11.8,0.9,0.35,0.55,4.15,10,initial,36.05,296,328,361,393,425,9,9,9,9,9,,,,,,,0,0,0,0,0,8,8,45,,,,,,,,,,,,num_6,2.6108510000631213,num_6,0.35,0.4,0.49999999999999994,0.7,19.10275,26.74385,return,12.904409000067972,,,,,,,,,,,,,,,,,903,24,female,left_right_width,2024-10-15_12h39.46.065,exp1,2023.1.0,59.99703615178415,
,,,,,,,,,,,,,,,,3,9.1,10,10.9,0,0,0.9,0.35,0.55,2.35,10,initial,36.05,328,361,393,0,0,9,9,9,0,0,,,,,,,0,0,0,0,0,9,9,28,,,,,,,,,,,,num_4,2.2297085999744013,num_4,0.3,0.9,0.35,0.5,13.37193,19.10275,return,6.48905079998076,,,,,,,,,,,,,,,,,903,24,female,left_right_width,2024-10-15_12h39.46.065,exp1,2023.1.0,59.99703615178415,
,,,,,,,,,,,,,,,,4,8.65,9.55,10.45,11.35,0,0.9,0.35,0.55,3.25,10,initial,36.05,312,344,377,409,0,9,9,9,9,0,,,,,,,0,0,0,0,0,10,10,13,,,,,,,,,,,,num_4,2.5325957000022754,num_4,0.4,1.3,0.7000000000000002,1.1,26.74385,42.02605,return,5.870933800004423,,,,,,,,,,,,,,,,,903,24,female,left_right_width,2024-10-15_12h39.46.065,exp1,2023.1.0,59.99703615178415,
,,,,,,,,,,,,,,,,4,8.65,9.55,10.45,11.35,0,0.9,0.35,0.55,3.25,10,initial,36.05,312,344,377,409,0,9,9,9,9,0,,,,,,,0,0,0,0,0,11,11,36,,,,,,,,,,,,num_4,2.352159900008701,num_4,0.5,1.2,0.4,0.7,15.2822,26.74385,return,13.730468199937604,,,,,,,,,,,,,,,,,903,24,female,left_right_width,2024-10-15_12h39.46.065,exp1,2023.1.0,59.99703615178415,
,,,,,,,,,,,,,,,,5,8.2,9.1,10,10.9,11.8,0.9,0.35,0.55,4.15,10,initial,36.05,296,328,361,393,425,9,9,9,9,9,,,,,,,0,0,0,0,0,12,12,21,,,,,,,,,,,,num_6,2.8827582999365404,num_6,0.2,1.0,0.5499999999999999,0.8,21.01303,30.5644,return,13.423056400031783,,,,,,,,,,,,,,,,,903,24,female,left_right_width,2024-10-15_12h39.46.065,exp1,2023.1.0,59.99703615178415,
,,,,,,,,,,,,,,,,3,9.1,10,10.9,0,0,0.9,0.35,0.55,2.35,10,initial,36.05,328,361,393,0,0,9,9,9,0,0,,,,,,,0,0,0,0,0,13,13,4,,,,,,,,,,,,num_3,2.4958532000891864,num_3,0.3,1.3,0.8000000000000002,1.35,30.5644,51.57743,return,10.934039500076324,,,,,,,,,,,,,,,,,903,24,female,left_right_width,2024-10-15_12h39.46.065,exp1,2023.1.0,59.99703615178415,
,,,,,,,,,,,,,,,,5,8.2,9.1,10,10.9,11.8,0.9,0.35,0.55,4.15,10,initial,36.05,296,328,361,393,425,9,9,9,9,9,,,,,,,0,0,0,0,0,14,14,52,,,,,,,,,,,,num_6,2.082864600000903,num_6,0.3,1.0,0.6,1.0,22.9233,38.2055,return,12.892170200007968,,,,,,,,,,,,,,,,,903,24,female,left_right_width,2024-10-15_12h39.46.065,exp1,2023.1.0,59.99703615178415,
,,,,,,,,,,,,,,,,5,8.2,9.1,10,10.9,11.8,0.9,0.35,0.55,4.15,10,initial,36.05,296,328,361,393,425,9,9,9,9,9,,,,,,,0,0,0,0,0,15,15,24,,,,,,,,,,,,num_7,4.171895900042728,num_7,0.3,0.4,0.44999999999999996,0.65,17.19248,24.83358,return,11.822928600013256,,,,,,,,,,,,,,,,,903,24,female,left_right_width,2024-10-15_12h39.46.065,exp1,2023.1.0,59.99703615178415,
,,,,,,,,,,,,,,,,3,9.1,10,10.9,0,0,0.9,0.35,0.55,2.35,10,initial,36.05,328,361,393,0,0,9,9,9,0,0,,,,,,,0,0,0,0,0,16,16,2,,,,,,,,,,,,num_4,2.385007100063376,num_4,0.3,0.9,0.5499999999999999,0.8,21.01303,30.5644,return,7.041889199987054,,,,,,,,,,,,,,,,,903,24,female,left_right_width,2024-10-15_12h39.46.065,exp1,2023.1.0,59.99703615178415,
,,,,,,,,,,,,,,,,5,8.2,9.1,10,10.9,11.8,0.9,0.35,0.55,4.15,10,initial,36.05,296,328,361,393,425,9,9,9,9,9,,,,,,,0,0,0,0,0,17,17,22,,,,,,,,,,,,num_7,3.259126100107096,num_7,0.3,0.8,0.49999999999999994,0.8,19.10275,30.5644,return,6.481681399978697,,,,,,,,,,,,,,,,,903,24,female,left_right_width,2024-10-15_12h39.46.065,exp1,2023.1.0,59.99703615178415,
,,,,,,,,,,,,,,,,4,8.65,9.55,10.45,11.35,0,0.9,0.35,0.55,3.25,10,initial,36.05,312,344,377,409,0,9,9,9,9,0,,,,,,,0,0,0,0,0,18,18,16,,,,,,,,,,,,num_5,2.155295299948193,num_5,0.35,0.6,0.6,0.8,22.9233,30.5644,return,9.50761489989236,,,,,,,,,,,,,,,,,903,24,female,left_right_width,2024-10-15_12h39.46.065,exp1,2023.1.0,59.99703615178415,
,,,,,,,,,,,,,,,,5,8.2,9.1,10,10.9,11.8,0.9,0.35,0.55,4.15,10,initial,36.05,296,328,361,393,425,9,9,9,9,9,,,,,,,0,0,0,0,0,19,19,49,,,,,,,,,,,,num_5,5.659004300017841,num_5,0.3,1.1,0.6,1.05,22.9233,40.11578,return,13.181674399995245,,,,,,,,,,,,,,,,,903,24,female,left_right_width,2024-10-15_12h39.46.065,exp1,2023.1.0,59.99703615178415,
,,,,,,,,,,,,,,,,4,8.65,9.55,10.45,11.35,0,0.9,0.35,0.55,3.25,10,initial,36.05,312,344,377,409,0,9,9,9,9,0,,,,,,,0,0,0,0,0,20,20,15,,,,,,,,,,,,num_5,3.4971879000077024,num_5,0.25,0.7,0.49999999999999994,0.7,19.10275,26.74385,return,7.56466689996887,,,,,,,,,,,,,,,,,903,24,female,left_right_width,2024-10-15_12h39.46.065,exp1,2023.1.0,59.99703615178415,
,,,,,,,,,,,,,,,,3,9.1,10,10.9,0,0,0.9,0.35,0.55,2.35,10,initial,36.05,328,361,393,0,0,9,9,9,0,0,,,,,,,0,0,0,0,0,21,21,34,,,,,,,,,,,,num_4,1.270414000027813,num_4,0.25,0.3,0.6,0.8,22.9233,30.5644,return,7.873684799997136,,,,,,,,,,,,,,,,,903,24,female,left_right_width,2024-10-15_12h39.46.065,exp1,2023.1.0,59.99703615178415,
,,,,,,,,,,,,,,,,5,8.2,9.1,10,10.9,11.8,0.9,0.35,0.55,4.15,10,initial,36.05,296,328,361,393,425,9,9,9,9,9,,,,,,,0,0,0,0,0,22,22,25,,,,,,,,,,,,num_5,1.7695106000173837,num_5,0.45,0.9,0.6000000000000001,0.8,22.9233,30.5644,return,8.062647299957462,,,,,,,,,,,,,,,,,903,24,female,left_right_width,2024-10-15_12h39.46.065,exp1,2023.1.0,59.99703615178415,
,,,,,,,,,,,,,,,,4,8.65,9.55,10.45,11.35,0,0.9,0.35,0.55,3.25,10,initial,36.05,312,344,377,409,0,9,9,9,9,0,,,,,,,0,0,0,0,0,23,23,14,,,,,,,,,,,,num_6,1.9361916999332607,num_6,0.4,1.0,0.7000000000000002,0.9,26.74385,34.38495,return,13.182022399967536,,,,,,,,,,,,,,,,,903,24,female,left_right_width,2024-10-15_12h39.46.065,exp1,2023.1.0,59.99703615178415,
,,,,,,,,,,,,,,,,4,8.65,9.55,10.45,11.35,0,0.9,0.35,0.55,3.25,10,initial,36.05,312,344,377,409,0,9,9,9,9,0,,,,,,,0,0,0,0,0,24,24,11,,,,,,,,,,,,num_5,4.704267700086348,num_5,0.5,0.9,0.5,0.75,19.10275,28.65413,return,5.196114600053988,,,,,,,,,,,,,,,,,903,24,female,left_right_width,2024-10-15_12h39.46.065,exp1,2023.1.0,59.99703615178415,
,,,,,,,,,,,,,,,,3,9.1,10,10.9,0,0,0.9,0.35,0.55,2.35,10,initial,36.05,328,361,393,0,0,9,9,9,0,0,,,,,,,0,0,0,0,0,25,25,35,,,,,,,,,,,,num_3,2.4159140000119805,num_3,0.25,0.3,0.65,0.85,24.83358,32.47468,return,15.755240999977104,,,,,,,,,,,,,,,,,903,24,female,left_right_width,2024-10-15_12h39.46.065,exp1,2023.1.0,59.99703615178415,
,,,,,,,,,,,,,,,,4,8.65,9.55,10.45,11.35,0,0.9,0.35,0.55,3.25,10,initial,36.05,312,344,377,409,0,9,9,9,9,0,,,,,,,0,0,0,0,0,26,26,12,,,,,,,,,,,,num_5,3.626491699949838,num_5,0.3,0.8,0.5499999999999999,0.9,21.01303,34.38495,return,7.432256700005382,,,,,,,,,,,,,,,,,903,24,female,left_right_width,2024-10-15_12h39.46.065,exp1,2023.1.0,59.99703615178415,
,,,,,,,,,,,,,,,,4,8.65,9.55,10.45,11.35,0,0.9,0.35,0.55,3.25,10,initial,36.05,312,344,377,409,0,9,9,9,9,0,,,,,,,0,0,0,0,0,27,27,44,,,,,,,,,,,,num_4,1.2949743999633938,num_4,0.45,0.6,0.45,0.7,17.19248,26.74385,return,7.01677510002628,,,,,,,,,,,,,,,,,903,24,female,left_right_width,2024-10-15_12h39.46.065,exp1,2023.1.0,59.99703615178415,
,,,,,,,,,,,,,,,,4,8.65,9.55,10.45,11.35,0,0.9,0.35,0.55,3.25,10,initial,36.05,312,344,377,409,0,9,9,9,9,0,,,,,,,0,0,0,0,0,28,28,39,,,,,,,,,,,,num_5,4.51213110005483,num_5,0.3,0.4,0.5499999999999999,0.85,21.01303,32.47468,return,9.588861700030975,,,,,,,,,,,,,,,,,903,24,female,left_right_width,2024-10-15_12h39.46.065,exp1,2023.1.0,59.99703615178415,
,,,,,,,,,,,,,,,,3,9.1,10,10.9,0,0,0.9,0.35,0.55,2.35,10,initial,36.05,328,361,393,0,0,9,9,9,0,0,,,,,,,0,0,0,0,0,29,29,5,,,,,,,,,,,,num_4,1.6826569000259042,num_4,0.4,0.9,0.7000000000000002,0.9,26.74385,34.38495,return,8.825995499966666,,,,,,,,,,,,,,,,,903,24,female,left_right_width,2024-10-15_12h39.46.065,exp1,2023.1.0,59.99703615178415,
,,,,,,,,,,,,,,,,3,9.1,10,10.9,0,0,0.9,0.35,0.55,2.35,10,initial,36.05,328,361,393,0,0,9,9,9,0,0,,,,,,,0,0,0,0,0,30,30,1,,,,,,,,,,,,num_4,2.656406700029038,num_4,0.5,1.2,0.7500000000000002,1.0,28.65413,38.2055,return,17.823930499958806,,,,,,,,,,,,,,,,,903,24,female,left_right_width,2024-10-15_12h39.46.065,exp1,2023.1.0,59.99703615178415,
,,,,,,,,,,,,,,,,5,8.2,9.1,10,10.9,11.8,0.9,0.35,0.55,4.15,10,initial,36.05,296,328,361,393,425,9,9,9,9,9,,,,,,,0,0,0,0,0,31,31,51,,,,,,,,,,,,num_7,3.6731064000632614,num_7,0.4,0.9,0.5,0.65,19.10275,24.83358,return,6.314940999960527,,,,,,,,,,,,,,,,,903,24,female,left_right_width,2024-10-15_12h39.46.065,exp1,2023.1.0,59.99703615178415,
,,,,,,,,,,,,,,,,5,8.2,9.1,10,10.9,11.8,0.9,0.35,0.55,4.15,10,initial,36.05,296,328,361,393,425,9,9,9,9,9,,,,,,,0,0,0,0,0,32,32,26,,,,,,,,,,,,num_6,2.6563786000479013,num_6,0.2,0.4,0.39999999999999997,0.6,15.2822,22.9233,return,9.49309580004774,,,,,,,,,,,,,,,,,903,24,female,left_right_width,2024-10-15_12h39.46.065,exp1,2023.1.0,59.99703615178415,
,,,,,,,,,,,,,,,,4,8.65,9.55,10.45,11.35,0,0.9,0.35,0.55,3.25,10,initial,36.05,312,344,377,409,0,9,9,9,9,0,,,,,,,0,0,0,0,0,33,33,41,,,,,,,,,,,,num_4,1.4234883000608534,num_4,0.55,0.6,0.55,1.0,21.01303,38.2055,return,5.798476299969479,,,,,,,,,,,,,,,,,903,24,female,left_right_width,2024-10-15_12h39.46.065,exp1,2023.1.0,59.99703615178415,
,,,,,,,,,,,,,,,,4,8.65,9.55,10.45,11.35,0,0.9,0.35,0.55,3.25,10,initial,36.05,312,344,377,409,0,9,9,9,9,0,,,,,,,0,0,0,0,0,34,34,37,,,,,,,,,,,,num_5,2.1368574999505654,num_5,0.2,0.8,0.39999999999999997,0.55,15.2822,21.01303,return,9.120930999983102,,,,,,,,,,,,,,,,,903,24,female,left_right_width,2024-10-15_12h39.46.065,exp1,2023.1.0,59.99703615178415,
,,,,,,,,,,,,,,,,3,9.1,10,10.9,0,0,0.9,0.35,0.55,2.35,10,initial,36.05,328,361,393,0,0,9,9,9,0,0,,,,,,,0,0,0,0,0,35,35,7,,,,,,,,,,,,num_3,2.0606015999801457,num_3,0.55,1.2,0.7500000000000002,1.1,28.65413,42.02605,return,5.337056400021538,,,,,,,,,,,,,,,,,903,24,female,left_right_width,2024-10-15_12h39.46.065,exp1,2023.1.0,59.99703615178415,
,,,,,,,,,,,,,,,,5,8.2,9.1,10,10.9,11.8,0.9,0.35,0.55,4.15,10,initial,36.05,296,328,361,393,425,9,9,9,9,9,,,,,,,0,0,0,0,0,36,36,50,,,,,,,,,,,,num_6,2.0456931000808254,num_6,0.2,1.2,0.8000000000000002,1.0,30.5644,38.2055,return,10.713787799933925,,,,,,,,,,,,,,,,,903,24,female,left_right_width,2024-10-15_12h39.46.065,exp1,2023.1.0,59.99703615178415,
,,,,,,,,,,,,,,,,3,9.1,10,10.9,0,0,0.9,0.35,0.55,2.35,10,initial,36.05,328,361,393,0,0,9,9,9,0,0,,,,,,,0,0,0,0,0,37,37,3,,,,,,,,,,,,num_3,2.38975680002477,num_3,0.55,1.3,0.8500000000000003,1.3,32.47468,49.66716,return,6.3722190000116825,,,,,,,,,,,,,,,,,903,24,female,left_right_width,2024-10-15_12h39.46.065,exp1,2023.1.0,59.99703615178415,
,,,,,,,,,,,,,,,,5,8.2,9.1,10,10.9,11.8,0.9,0.35,0.55,4.15,10,initial,36.05,296,328,361,393,425,9,9,9,9,9,,,,,,,0,0,0,0,0,38,38,23,,,,,,,,,,,,num_6,3.7352882999693975,num_6,0.55,0.9,0.7500000000000002,1.0,28.65413,38.2055,return,8.233729200088419,,,,,,,,,,,,,,,,,903,24,female,left_right_width,2024-10-15_12h39.46.065,exp1,2023.1.0,59.99703615178415,
,,,,,,,,,,,,,,,,5,8.2,9.1,10,10.9,11.8,0.9,0.35,0.55,4.15,10,initial,36.05,296,328,361,393,425,9,9,9,9,9,,,,,,,0,0,0,0,0,39,39,18,,,,,,,,,,,,num_5,5.693122699973173,num_5,0.4,0.6,0.4,0.6,15.2822,22.9233,return,2.8079248999711126,,,,,,,,,,,,,,,,,903,24,female,left_right_width,2024-10-15_12h39.46.065,exp1,2023.1.0,59.99703615178415,
,,,,,,,,,,,,,,,,5,8.2,9.1,10,10.9,11.8,0.9,0.35,0.55,4.15,10,initial,36.05,296,328,361,393,425,9,9,9,9,9,,,,,,,0,0,0,0,0,40,40,47,,,,,,,,,,,,num_6,5.563025900046341,num_6,0.25,0.4,3.049999999999997,0.1,116.52679,3.82055,return,39.834674899932,,,,,,,,,,,,,,,,,903,24,female,left_right_width,2024-10-15_12h39.46.065,exp1,2023.1.0,59.99703615178415,
,,,,,,,,,,,,,,,,4,8.65,9.55,10.45,11.35,0,0.9,0.35,0.55,3.25,10,initial,36.05,312,344,377,409,0,9,9,9,9,0,,,,,,,0,0,0,0,0,41,41,40,,,,,,,,,,,,num_3,3.3541518000420183,num_3,0.2,0.4,0.6,0.8,22.9233,30.5644,return,11.19702409999445,,,,,,,,,,,,,,,,,903,24,female,left_right_width,2024-10-15_12h39.46.065,exp1,2023.1.0,59.99703615178415,
,,,,,,,,,,,,,,,,3,9.1,10,10.9,0,0,0.9,0.35,0.55,2.35,10,initial,36.05,328,361,393,0,0,9,9,9,0,0,,,,,,,0,0,0,0,0,42,42,27,,,,,,,,,,,,num_3,3.3600696000503376,num_3,0.35,0.9,0.9500000000000003,1.25,36.29523,47.75688,return,11.032257099985145,,,,,,,,,,,,,,,,,903,24,female,left_right_width,2024-10-15_12h39.46.065,exp1,2023.1.0,59.99703615178415,
,,,,,,,,,,,,,,,,3,9.1,10,10.9,0,0,0.9,0.35,0.55,2.35,10,initial,36.05,328,361,393,0,0,9,9,9,0,0,,,,,,,0,0,0,0,0,43,43,32,,,,,,,,,,,,num_4,2.1341387000866234,num_4,0.25,0.5,0.7000000000000001,0.9,26.74385,34.38495,return,6.874517400050536,,,,,,,,,,,,,,,,,903,24,female,left_right_width,2024-10-15_12h39.46.065,exp1,2023.1.0,59.99703615178415,
,,,,,,,,,,,,,,,,3,9.1,10,10.9,0,0,0.9,0.35,0.55,2.35,10,initial,36.05,328,361,393,0,0,9,9,9,0,0,,,,,,,0,0,0,0,0,44,44,29,,,,,,,,,,,,num_3,3.0444738999940455,num_3,0.5,0.8,0.7500000000000002,1.0,28.65413,38.2055,return,4.85030910000205,,,,,,,,,,,,,,,,,903,24,female,left_right_width,2024-10-15_12h39.46.065,exp1,2023.1.0,59.99703615178415,
,,,,,,,,,,,,,,,,5,8.2,9.1,10,10.9,11.8,0.9,0.35,0.55,4.15,10,initial,36.05,296,328,361,393,425,9,9,9,9,9,,,,,,,0,0,0,0,0,45,45,48,,,,,,,,,,,,num_5,2.5641632999759167,num_5,0.2,0.4,0.6,0.8,22.9233,30.5644,return,6.360159500036389,,,,,,,,,,,,,,,,,903,24,female,left_right_width,2024-10-15_12h39.46.065,exp1,2023.1.0,59.99703615178415,
,,,,,,,,,,,,,,,,3,9.1,10,10.9,0,0,0.9,0.35,0.55,2.35,10,initial,36.05,328,361,393,0,0,9,9,9,0,0,,,,,,,0,0,0,0,0,46,46,0,,,,,,,,,,,,num_3,1.3273375000571832,num_3,0.25,0.6,1.0000000000000002,1.25,38.2055,47.75688,return,9.573833999922499,,,,,,,,,,,,,,,,,903,24,female,left_right_width,2024-10-15_12h39.46.065,exp1,2023.1.0,59.99703615178415,
,,,,,,,,,,,,,,,,4,8.65,9.55,10.45,11.35,0,0.9,0.35,0.55,3.25,10,initial,36.05,312,344,377,409,0,9,9,9,9,0,,,,,,,0,0,0,0,0,47,47,9,,,,,,,,,,,,num_5,1.5591018999693915,num_5,0.3,1.1,0.9500000000000002,1.2,36.29523,45.8466,return,11.555473400047049,,,,,,,,,,,,,,,,,903,24,female,left_right_width,2024-10-15_12h39.46.065,exp1,2023.1.0,59.99703615178415,
,,,,,,,,,,,,,,,,5,8.2,9.1,10,10.9,11.8,0.9,0.35,0.55,4.15,10,initial,36.05,296,328,361,393,425,9,9,9,9,9,,,,,,,0,0,0,0,0,48,48,19,,,,,,,,,,,,num_7,1.4787902999669313,num_7,0.55,1.1,0.6000000000000001,0.8,22.9233,30.5644,return,6.436177700059488,,,,,,,,,,,,,,,,,903,24,female,left_right_width,2024-10-15_12h39.46.065,exp1,2023.1.0,59.99703615178415,
,,,,,,,,,,,,,,,,4,8.65,9.55,10.45,11.35,0,0.9,0.35,0.55,3.25,10,initial,36.05,312,344,377,409,0,9,9,9,9,0,,,,,,,0,0,0,0,0,49,49,42,,,,,,,,,,,,num_5,1.387422800064087,num_5,0.35,0.4,0.6,0.75,22.9233,28.65413,return,14.689058399992064,,,,,,,,,,,,,,,,,903,24,female,left_right_width,2024-10-15_12h39.46.065,exp1,2023.1.0,59.99703615178415,
,,,,,,,,,,,,,,,,3,9.1,10,10.9,0,0,0.9,0.35,0.55,2.35,10,initial,36.05,328,361,393,0,0,9,9,9,0,0,,,,,,,0,0,0,0,0,50,50,8,,,,,,,,,,,,num_4,4.312435700092465,num_4,0.2,0.5,0.5499999999999999,0.7,21.01303,26.74385,return,7.667891500052065,,,,,,,,,,,,,,,,,903,24,female,left_right_width,2024-10-15_12h39.46.065,exp1,2023.1.0,59.99703615178415,
,,,,,,,,,,,,,,,,5,8.2,9.1,10,10.9,11.8,0.9,0.35,0.55,4.15,10,initial,36.05,296,328,361,393,425,9,9,9,9,9,,,,,,,0,0,0,0,0,51,51,46,,,,,,,,,,,,num_6,2.0893168000038713,num_6,0.25,0.9,0.8000000000000002,1.0,30.5644,38.2055,return,8.576466000056826,,,,,,,,,,,,,,,,,903,24,female,left_right_width,2024-10-15_12h39.46.065,exp1,2023.1.0,59.99703615178415,
,,,,,,,,,,,,,,,,4,8.65,9.55,10.45,11.35,0,0.9,0.35,0.55,3.25,10,initial,36.05,312,344,377,409,0,9,9,9,9,0,,,,,,,0,0,0,0,0,52,52,43,,,,,,,,,,,,num_4,1.3802345000440255,num_4,0.3,1.3,0.9500000000000003,1.3,36.29523,49.66716,return,7.179442299995571,,,,,,,,,,,,,,,,,903,24,female,left_right_width,2024-10-15_12h39.46.065,exp1,2023.1.0,59.99703615178415,
,,,,,,,,,,,,,,,,4,8.65,9.55,10.45,11.35,0,0.9,0.35,0.55,3.25,10,initial,36.05,312,344,377,409,0,9,9,9,9,0,,,,,,,0,0,0,0,0,53,53,10,,,,,,,,,,,,num_5,1.1820234000915661,num_5,0.4,1.3,0.9000000000000004,1.1,34.38495,42.02605,return,11.502074500080198,,,,,,,,,,,,,,,,,903,24,female,left_right_width,2024-10-15_12h39.46.065,exp1,2023.1.0,59.99703615178415,
,,,,,,,,,,,,,,,,,,,,,,,,,,,,,,,,,,,,,,,,,,,,,0,0,0,0,,,,,,,,,,,,,,,,,,,,,,,,,,,,,1372.6639596000314,1372.6639596000314,1372.6639596000314,,,,,,,,,,,,903,24,female,left_right_width,2024-10-15_12h39.46.065,exp1,2023.1.0,59.99703615178415,
,,,,,,,,,,,,,,,,5,9,9.5,10,10.5,11,0.5,0.25,0.25,2.25,10,initial,36.05,324,342,361,379,397,9,9,9,9,9,,,,,,,1,0,1,0,0,0,0,50,,,,,,,,,,,,num_6,1.91772949998267,num_6,0.2,1.1,0.15000000000000002,0.4,5.73083,15.2822,return,7.0345501999836415,,,,,,,,,,,,,,,,,903,24,female,left_right_width,2024-10-15_12h39.46.065,exp1,2023.1.0,59.99703615178415,
,,,,,,,,,,,,,,,,3,9.5,10,10.5,0,0,0.5,0.25,0.25,1.25,10,initial,36.05,342,361,379,0,0,9,9,9,0,0,,,,,,,1,0,1,0,0,1,1,34,,,,,,,,,,,,num_4,3.1463743000058457,num_4,0.2,1.2,0.2,0.4,7.6411,15.2822,return,10.15092739998363,,,,,,,,,,,,,,,,,903,24,female,left_right_width,2024-10-15_12h39.46.065,exp1,2023.1.0,59.99703615178415,
,,,,,,,,,,,,,,,,5,9,9.5,10,10.5,11,0.5,0.25,0.25,2.25,10,initial,36.05,324,342,361,379,397,9,9,9,9,9,,,,,,,1,0,1,0,0,2,2,23,,,,,,,,,,,,num_5,2.3984630000777543,num_5,0.4,0.9,0.30000000000000004,0.55,11.46165,21.01303,return,5.286668200045824,,,,,,,,,,,,,,,,,903,24,female,left_right_width,2024-10-15_12h39.46.065,exp1,2023.1.0,59.99703615178415,
,,,,,,,,,,,,,,,,3,9.5,10,10.5,0,0,0.5,0.25,0.25,1.25,10,initial,36.05,342,361,379,0,0,9,9,9,0,0,,,,,,,1,0,1,0,0,3,3,7,,,,,,,,,,,,num_4,1.4904393000761047,num_4,0.25,0.7,0.2,0.4,7.6411,15.2822,return,7.312972199986689,,,,,,,,,,,,,,,,,903,24,female,left_right_width,2024-10-15_12h39.46.065,exp1,2023.1.0,59.99703615178415,
,,,,,,,,,,,,,,,,3,9.5,10,10.5,0,0,0.5,0.25,0.25,1.25,10,initial,36.05,342,361,379,0,0,9,9,9,0,0,,,,,,,1,0,1,0,0,4,4,31,,,,,,,,,,,,num_3,3.069508299930021,num_3,0.35,1.2,0.15000000000000002,0.5,5.73083,19.10275,return,7.087112400098704,,,,,,,,,,,,,,,,,903,24,female,left_right_width,2024-10-15_12h39.46.065,exp1,2023.1.0,59.99703615178415,
,,,,,,,,,,,,,,,,5,9,9.5,10,10.5,11,0.5,0.25,0.25,2.25,10,initial,36.05,324,342,361,379,397,9,9,9,9,9,,,,,,,1,0,1,0,0,5,5,25,,,,,,,,,,,,num_7,3.9280088000232354,num_7,0.45,0.6,0.20000000000000007,0.4,7.6411,15.2822,return,15.475820099934936,,,,,,,,,,,,,,,,,903,24,female,left_right_width,2024-10-15_12h39.46.065,exp1,2023.1.0,59.99703615178415,
,,,,,,,,,,,,,,,,3,9.5,10,10.5,0,0,0.5,0.25,0.25,1.25,10,initial,36.05,342,361,379,0,0,9,9,9,0,0,,,,,,,1,0,1,0,0,6,6,32,,,,,,,,,,,,num_3,1.991627600044012,num_3,0.3,1,0.15000000000000002,0.3,5.73083,11.46165,return,7.714756300090812,,,,,,,,,,,,,,,,,903,24,female,left_right_width,2024-10-15_12h39.46.065,exp1,2023.1.0,59.99703615178415,
,,,,,,,,,,,,,,,,4,9.25,9.75,10.25,10.75,0,0.5,0.25,0.25,1.75,10,initial,36.05,333,351,370,388,0,9,9,9,9,0,,,,,,,1,0,1,0,0,7,7,11,,,,,,,,,,,,num_5,2.0758384000509977,num_5,0.25,1.0,0.15000000000000002,0.4,5.73083,15.2822,return,8.163297999999486,,,,,,,,,,,,,,,,,903,24,female,left_right_width,2024-10-15_12h39.46.065,exp1,2023.1.0,59.99703615178415,
,,,,,,,,,,,,,,,,4,9.25,9.75,10.25,10.75,0,0.5,0.25,0.25,1.75,10,initial,36.05,333,351,370,388,0,9,9,9,9,0,,,,,,,1,0,1,0,0,8,8,41,,,,,,,,,,,,num_4,1.1123572000069544,num_4,0.35,0.7,0.25,0.5,9.55138,19.10275,return,5.847541600000113,,,,,,,,,,,,,,,,,903,24,female,left_right_width,2024-10-15_12h39.46.065,exp1,2023.1.0,59.99703615178415,
,,,,,,,,,,,,,,,,4,9.25,9.75,10.25,10.75,0,0.5,0.25,0.25,1.75,10,initial,36.05,333,351,370,388,0,9,9,9,9,0,,,,,,,1,0,1,0,0,9,9,16,,,,,,,,,,,,num_5,1.5696813999675214,num_5,0.4,0.7,0.25000000000000006,0.45,9.55138,17.19248,return,4.541596499970183,,,,,,,,,,,,,,,,,903,24,female,left_right_width,2024-10-15_12h39.46.065,exp1,2023.1.0,59.99703615178415,
,,,,,,,,,,,,,,,,5,9,9.5,10,10.5,11,0.5,0.25,0.25,2.25,10,initial,36.05,324,342,361,379,397,9,9,9,9,9,,,,,,,1,0,1,0,0,10,10,18,,,,,,,,,,,,num_5,1.332040400011465,num_5,0.3,0.8,0.2,0.4,7.6411,15.2822,return,4.253787699970417,,,,,,,,,,,,,,,,,903,24,female,left_right_width,2024-10-15_12h39.46.065,exp1,2023.1.0,59.99703615178415,
,,,,,,,,,,,,,,,,5,9,9.5,10,10.5,11,0.5,0.25,0.25,2.25,10,initial,36.05,324,342,361,379,397,9,9,9,9,9,,,,,,,1,0,1,0,0,11,11,53,,,,,,,,,,,,num_6,2.1544347000308335,num_6,0.25,0.7,0.15000000000000002,0.4,5.73083,15.2822,return,5.0831616999348626,,,,,,,,,,,,,,,,,903,24,female,left_right_width,2024-10-15_12h39.46.065,exp1,2023.1.0,59.99703615178415,
,,,,,,,,,,,,,,,,5,9,9.5,10,10.5,11,0.5,0.25,0.25,2.25,10,initial,36.05,324,342,361,379,397,9,9,9,9,9,,,,,,,1,0,1,0,0,12,12,20,,,,,,,,,,,,num_7,2.355665599927306,num_7,0.45,0.7,0.20000000000000007,0.45,7.6411,17.19248,return,5.292253800085746,,,,,,,,,,,,,,,,,903,24,female,left_right_width,2024-10-15_12h39.46.065,exp1,2023.1.0,59.99703615178415,
,,,,,,,,,,,,,,,,5,9,9.5,10,10.5,11,0.5,0.25,0.25,2.25,10,initial,36.05,324,342,361,379,397,9,9,9,9,9,,,,,,,1,0,1,0,0,13,13,49,,,,,,,,,,,,num_6,1.6355588000733405,num_6,0.45,0.8,0.20000000000000007,0.5,7.6411,19.10275,return,3.7774945000419393,,,,,,,,,,,,,,,,,903,24,female,left_right_width,2024-10-15_12h39.46.065,exp1,2023.1.0,59.99703615178415,
,,,,,,,,,,,,,,,,3,9.5,10,10.5,0,0,0.5,0.25,0.25,1.25,10,initial,36.05,342,361,379,0,0,9,9,9,0,0,,,,,,,1,0,1,0,0,14,14,6,,,,,,,,,,,,num_5,2.7159511001082137,num_5,0.45,1.0,0.25000000000000006,0.5,9.55138,19.10275,return,5.977471200050786,,,,,,,,,,,,,,,,,903,24,female,left_right_width,2024-10-15_12h39.46.065,exp1,2023.1.0,59.99703615178415,
,,,,,,,,,,,,,,,,5,9,9.5,10,10.5,11,0.5,0.25,0.25,2.25,10,initial,36.05,324,342,361,379,397,9,9,9,9,9,,,,,,,1,0,1,0,0,15,15,22,,,,,,,,,,,,num_7,2.5725219000596553,num_7,0.35,1.3,0.15000000000000002,0.4,5.73083,15.2822,return,6.851778300013393,,,,,,,,,,,,,,,,,903,24,female,left_right_width,2024-10-15_12h39.46.065,exp1,2023.1.0,59.99703615178415,
,,,,,,,,,,,,,,,,5,9,9.5,10,10.5,11,0.5,0.25,0.25,2.25,10,initial,36.05,324,342,361,379,397,9,9,9,9,9,,,,,,,1,0,1,0,0,16,16,45,,,,,,,,,,,,num_6,2.3307496999623254,num_6,0.2,0.3,0.2,0.4,7.6411,15.2822,return,15.464928800007328,,,,,,,,,,,,,,,,,903,24,female,left_right_width,2024-10-15_12h39.46.065,exp1,2023.1.0,59.99703615178415,
,,,,,,,,,,,,,,,,3,9.5,10,10.5,0,0,0.5,0.25,0.25,1.25,10,initial,36.05,342,361,379,0,0,9,9,9,0,0,,,,,,,1,0,1,0,0,17,17,29,,,,,,,,,,,,num_4,1.3328833000268787,num_4,0.45,0.5,0.25000000000000006,0.5,9.55138,19.10275,return,5.819050499936566,,,,,,,,,,,,,,,,,903,24,female,left_right_width,2024-10-15_12h39.46.065,exp1,2023.1.0,59.99703615178415,
,,,,,,,,,,,,,,,,4,9.25,9.75,10.25,10.75,0,0.5,0.25,0.25,1.75,10,initial,36.05,333,351,370,388,0,9,9,9,9,0,,,,,,,1,0,1,0,0,18,18,44,,,,,,,,,,,,num_4,1.9159307000227273,num_4,0.2,0.4,0.3,0.5,11.46165,19.10275,return,7.964557599974796,,,,,,,,,,,,,,,,,903,24,female,left_right_width,2024-10-15_12h39.46.065,exp1,2023.1.0,59.99703615178415,
,,,,,,,,,,,,,,,,3,9.5,10,10.5,0,0,0.5,0.25,0.25,1.25,10,initial,36.05,342,361,379,0,0,9,9,9,0,0,,,,,,,1,0,1,0,0,19,19,35,,,,,,,,,,,,num_4,3.289356100023724,num_4,0.55,0.9,0.30000000000000004,0.6,11.46165,22.9233,return,7.119063999969512,,,,,,,,,,,,,,,,,903,24,female,left_right_width,2024-10-15_12h39.46.065,exp1,2023.1.0,59.99703615178415,
,,,,,,,,,,,,,,,,4,9.25,9.75,10.25,10.75,0,0.5,0.25,0.25,1.75,10,initial,36.05,333,351,370,388,0,9,9,9,9,0,,,,,,,1,0,1,0,0,20,20,14,,,,,,,,,,,,num_5,1.4862607000395656,num_5,0.35,1.3,0.2,0.45,7.6411,17.19248,return,11.77856939996127,,,,,,,,,,,,,,,,,903,24,female,left_right_width,2024-10-15_12h39.46.065,exp1,2023.1.0,59.99703615178415,
,,,,,,,,,,,,,,,,5,9,9.5,10,10.5,11,0.5,0.25,0.25,2.25,10,initial,36.05,324,342,361,379,397,9,9,9,9,9,,,,,,,1,0,1,0,0,21,21,47,,,,,,,,,,,,num_7,3.285091199912131,num_7,0.3,0.8,0.15000000000000002,0.4,5.73083,15.2822,return,8.300170100061223,,,,,,,,,,,,,,,,,903,24,female,left_right_width,2024-10-15_12h39.46.065,exp1,2023.1.0,59.99703615178415,
,,,,,,,,,,,,,,,,3,9.5,10,10.5,0,0,0.5,0.25,0.25,1.25,10,initial,36.05,342,361,379,0,0,9,9,9,0,0,,,,,,,1,0,1,0,0,22,22,4,,,,,,,,,,,,num_3,3.3013041000813246,num_3,0.45,1.2,0.20000000000000007,0.45,7.6411,17.19248,return,8.239579500048421,,,,,,,,,,,,,,,,,903,24,female,left_right_width,2024-10-15_12h39.46.065,exp1,2023.1.0,59.99703615178415,
,,,,,,,,,,,,,,,,4,9.25,9.75,10.25,10.75,0,0.5,0.25,0.25,1.75,10,initial,36.05,333,351,370,388,0,9,9,9,9,0,,,,,,,1,0,1,0,0,23,23,42,,,,,,,,,,,,num_5,1.4745417000958696,num_5,0.3,0.9,0.25,0.5,9.55138,19.10275,return,6.534437999944203,,,,,,,,,,,,,,,,,903,24,female,left_right_width,2024-10-15_12h39.46.065,exp1,2023.1.0,59.99703615178415,
,,,,,,,,,,,,,,,,3,9.5,10,10.5,0,0,0.5,0.25,0.25,1.25,10,initial,36.05,342,361,379,0,0,9,9,9,0,0,,,,,,,1,0,1,0,0,24,24,5,,,,,,,,,,,,num_3,1.2631102000596002,num_3,0.4,1.2,0.25000000000000006,0.5,9.55138,19.10275,return,6.517875100020319,,,,,,,,,,,,,,,,,903,24,female,left_right_width,2024-10-15_12h39.46.065,exp1,2023.1.0,59.99703615178415,
,,,,,,,,,,,,,,,,4,9.25,9.75,10.25,10.75,0,0.5,0.25,0.25,1.75,10,initial,36.05,333,351,370,388,0,9,9,9,9,0,,,,,,,1,0,1,0,0,25,25,10,,,,,,,,,,,,num_4,1.4962269999086857,num_4,0.5,1.3,0.20000000000000007,0.6,7.6411,22.9233,return,7.931275699986145,,,,,,,,,,,,,,,,,903,24,female,left_right_width,2024-10-15_12h39.46.065,exp1,2023.1.0,59.99703615178415,
,,,,,,,,,,,,,,,,3,9.5,10,10.5,0,0,0.5,0.25,0.25,1.25,10,initial,36.05,342,361,379,0,0,9,9,9,0,0,,,,,,,1,0,1,0,0,26,26,2,,,,,,,,,,,,num_4,3.8933547999477014,num_4,0.35,0.5,0.2,0.3,7.6411,11.46165,return,3.9090584999648854,,,,,,,,,,,,,,,,,903,24,female,left_right_width,2024-10-15_12h39.46.065,exp1,2023.1.0,59.99703615178415,
,,,,,,,,,,,,,,,,3,9.5,10,10.5,0,0,0.5,0.25,0.25,1.25,10,initial,36.05,342,361,379,0,0,9,9,9,0,0,,,,,,,1,0,1,0,0,27,27,1,,,,,,,,,,,,num_2,2.1463961999397725,num_2,0.35,1.0,0.2,0.4,7.6411,15.2822,return,4.343046499998309,,,,,,,,,,,,,,,,,903,24,female,left_right_width,2024-10-15_12h39.46.065,exp1,2023.1.0,59.99703615178415,
,,,,,,,,,,,,,,,,5,9,9.5,10,10.5,11,0.5,0.25,0.25,2.25,10,initial,36.05,324,342,361,379,397,9,9,9,9,9,,,,,,,1,0,1,0,0,28,28,21,,,,,,,,,,,,num_8,3.151336800074205,num_8,0.35,0.9,0.15000000000000002,0.3,5.73083,11.46165,return,10.280812600045465,,,,,,,,,,,,,,,,,903,24,female,left_right_width,2024-10-15_12h39.46.065,exp1,2023.1.0,59.99703615178415,
,,,,,,,,,,,,,,,,4,9.25,9.75,10.25,10.75,0,0.5,0.25,0.25,1.75,10,initial,36.05,333,351,370,388,0,9,9,9,9,0,,,,,,,1,0,1,0,0,29,29,38,,,,,,,,,,,,num_5,2.616112699965015,num_5,0.55,1.2,0.25000000000000006,0.45,9.55138,17.19248,return,7.886455200030468,,,,,,,,,,,,,,,,,903,24,female,left_right_width,2024-10-15_12h39.46.065,exp1,2023.1.0,59.99703615178415,
,,,,,,,,,,,,,,,,4,9.25,9.75,10.25,10.75,0,0.5,0.25,0.25,1.75,10,initial,36.05,333,351,370,388,0,9,9,9,9,0,,,,,,,1,0,1,0,0,30,30,36,,,,,,,,,,,,num_6,2.41311239998322,num_6,0.45,1.1,0.20000000000000007,0.4,7.6411,15.2822,return,5.0938650000607595,,,,,,,,,,,,,,,,,903,24,female,left_right_width,2024-10-15_12h39.46.065,exp1,2023.1.0,59.99703615178415,
,,,,,,,,,,,,,,,,4,9.25,9.75,10.25,10.75,0,0.5,0.25,0.25,1.75,10,initial,36.05,333,351,370,388,0,9,9,9,9,0,,,,,,,1,0,1,0,0,31,31,43,,,,,,,,,,,,num_5,1.472321500070393,num_5,0.4,0.9,0.20000000000000007,0.4,7.6411,15.2822,return,7.5198736999882385,,,,,,,,,,,,,,,,,903,24,female,left_right_width,2024-10-15_12h39.46.065,exp1,2023.1.0,59.99703615178415,
,,,,,,,,,,,,,,,,4,9.25,9.75,10.25,10.75,0,0.5,0.25,0.25,1.75,10,initial,36.05,333,351,370,388,0,9,9,9,9,0,,,,,,,1,0,1,0,0,32,32,12,,,,,,,,,,,,num_6,2.388529699994251,num_6,0.5,1.2,0.25000000000000006,0.4,9.55138,15.2822,return,6.4347635000012815,,,,,,,,,,,,,,,,,903,24,female,left_right_width,2024-10-15_12h39.46.065,exp1,2023.1.0,59.99703615178415,
,,,,,,,,,,,,,,,,3,9.5,10,10.5,0,0,0.5,0.25,0.25,1.25,10,initial,36.05,342,361,379,0,0,9,9,9,0,0,,,,,,,1,0,1,0,0,33,33,28,,,,,,,,,,,,num_4,3.1484063001116738,num_4,0.35,0.9,0.25,0.5,9.55138,19.10275,return,3.8153000000165775,,,,,,,,,,,,,,,,,903,24,female,left_right_width,2024-10-15_12h39.46.065,exp1,2023.1.0,59.99703615178415,
,,,,,,,,,,,,,,,,4,9.25,9.75,10.25,10.75,0,0.5,0.25,0.25,1.75,10,initial,36.05,333,351,370,388,0,9,9,9,9,0,,,,,,,1,0,1,0,0,34,34,39,,,,,,,,,,,,num_6,1.797799300053157,num_6,0.25,0.3,0.2,0.4,7.6411,15.2822,return,6.301093899994157,,,,,,,,,,,,,,,,,903,24,female,left_right_width,2024-10-15_12h39.46.065,exp1,2023.1.0,59.99703615178415,
,,,,,,,,,,,,,,,,4,9.25,9.75,10.25,10.75,0,0.5,0.25,0.25,1.75,10,initial,36.05,333,351,370,388,0,9,9,9,9,0,,,,,,,1,0,1,0,0,35,35,17,,,,,,,,,,,,num_7,3.4181848999578506,num_7,0.5,1.3,0.15000000000000008,0.3,5.73083,11.46165,return,10.620309000019915,,,,,,,,,,,,,,,,,903,24,female,left_right_width,2024-10-15_12h39.46.065,exp1,2023.1.0,59.99703615178415,
,,,,,,,,,,,,,,,,5,9,9.5,10,10.5,11,0.5,0.25,0.25,2.25,10,initial,36.05,324,342,361,379,397,9,9,9,9,9,,,,,,,1,0,1,0,0,36,36,48,,,,,,,,,,,,num_7,2.366074200021103,num_7,0.25,0.6,0.39999999999999997,0.55,15.2822,21.01303,return,5.0786646999185905,,,,,,,,,,,,,,,,,903,24,female,left_right_width,2024-10-15_12h39.46.065,exp1,2023.1.0,59.99703615178415,
,,,,,,,,,,,,,,,,3,9.5,10,10.5,0,0,0.5,0.25,0.25,1.25,10,initial,36.05,342,361,379,0,0,9,9,9,0,0,,,,,,,1,0,1,0,0,37,37,33,,,,,,,,,,,,num_4,7.332599499961361,num_4,0.35,1.1,0.39999999999999997,0.6,15.2822,22.9233,return,4.711414799909107,,,,,,,,,,,,,,,,,903,24,female,left_right_width,2024-10-15_12h39.46.065,exp1,2023.1.0,59.99703615178415,
,,,,,,,,,,,,,,,,5,9,9.5,10,10.5,11,0.5,0.25,0.25,2.25,10,initial,36.05,324,342,361,379,397,9,9,9,9,9,,,,,,,1,0,1,0,0,38,38,46,,,,,,,,,,,,num_7,1.737753800000064,num_7,0.2,0.8,0.35,0.55,13.37193,21.01303,return,11.594747700029984,,,,,,,,,,,,,,,,,903,24,female,left_right_width,2024-10-15_12h39.46.065,exp1,2023.1.0,59.99703615178415,
,,,,,,,,,,,,,,,,3,9.5,10,10.5,0,0,0.5,0.25,0.25,1.25,10,initial,36.05,342,361,379,0,0,9,9,9,0,0,,,,,,,1,0,1,0,0,39,39,8,,,,,,,,,,,,num_3,2.0580636999802664,num_3,0.5,0.8,0.4,0.7,15.2822,26.74385,return,3.55442490009591,,,,,,,,,,,,,,,,,903,24,female,left_right_width,2024-10-15_12h39.46.065,exp1,2023.1.0,59.99703615178415,
,,,,,,,,,,,,,,,,4,9.25,9.75,10.25,10.75,0,0.5,0.25,0.25,1.75,10,initial,36.05,333,351,370,388,0,9,9,9,9,0,,,,,,,1,0,1,0,0,40,40,9,,,,,,,,,,,,num_5,2.1591003999346867,num_5,0.35,1.3,0.44999999999999996,0.7,17.19248,26.74385,return,8.09826829994563,,,,,,,,,,,,,,,,,903,24,female,left_right_width,2024-10-15_12h39.46.065,exp1,2023.1.0,59.99703615178415,
,,,,,,,,,,,,,,,,5,9,9.5,10,10.5,11,0.5,0.25,0.25,2.25,10,initial,36.05,324,342,361,379,397,9,9,9,9,9,,,,,,,1,0,1,0,0,41,41,51,,,,,,,,,,,,num_7,2.1828651999821886,num_7,0.5,1.0,0.5,0.7,19.10275,26.74385,return,8.9880951999221,,,,,,,,,,,,,,,,,903,24,female,left_right_width,2024-10-15_12h39.46.065,exp1,2023.1.0,59.99703615178415,
,,,,,,,,,,,,,,,,3,9.5,10,10.5,0,0,0.5,0.25,0.25,1.25,10,initial,36.05,342,361,379,0,0,9,9,9,0,0,,,,,,,1,0,1,0,0,42,42,3,,,,,,,,,,,,num_3,1.4437251999042928,num_3,0.5,0.8,0.25000000000000006,0.55,9.55138,21.01303,return,5.349239999894053,,,,,,,,,,,,,,,,,903,24,female,left_right_width,2024-10-15_12h39.46.065,exp1,2023.1.0,59.99703615178415,
,,,,,,,,,,,,,,,,4,9.25,9.75,10.25,10.75,0,0.5,0.25,0.25,1.75,10,initial,36.05,333,351,370,388,0,9,9,9,9,0,,,,,,,1,0,1,0,0,43,43,40,,,,,,,,,,,,num_5,2.2365169998956844,num_5,0.45,1.1,0.15000000000000008,0.5,5.73083,19.10275,return,7.403108899947256,,,,,,,,,,,,,,,,,903,24,female,left_right_width,2024-10-15_12h39.46.065,exp1,2023.1.0,59.99703615178415,
,,,,,,,,,,,,,,,,3,9.5,10,10.5,0,0,0.5,0.25,0.25,1.25,10,initial,36.05,342,361,379,0,0,9,9,9,0,0,,,,,,,1,0,1,0,0,44,44,27,,,,,,,,,,,,num_4,1.1010705000953749,num_4,0.2,1.3,0.15000000000000002,0.4,5.73083,15.2822,return,12.734441100037657,,,,,,,,,,,,,,,,,903,24,female,left_right_width,2024-10-15_12h39.46.065,exp1,2023.1.0,59.99703615178415,
,,,,,,,,,,,,,,,,4,9.25,9.75,10.25,10.75,0,0.5,0.25,0.25,1.75,10,initial,36.05,333,351,370,388,0,9,9,9,9,0,,,,,,,1,0,1,0,0,45,45,15,,,,,,,,,,,,num_5,2.22373779991176,num_5,0.3,0.9,0.15000000000000002,0.4,5.73083,15.2822,return,6.708535599987954,,,,,,,,,,,,,,,,,903,24,female,left_right_width,2024-10-15_12h39.46.065,exp1,2023.1.0,59.99703615178415,
,,,,,,,,,,,,,,,,4,9.25,9.75,10.25,10.75,0,0.5,0.25,0.25,1.75,10,initial,36.05,333,351,370,388,0,9,9,9,9,0,,,,,,,1,0,1,0,0,46,46,13,,,,,,,,,,,,num_6,3.7563371000578627,num_6,0.25,0.8,0.39999999999999997,0.6,15.2822,22.9233,return,6.764598100096919,,,,,,,,,,,,,,,,,903,24,female,left_right_width,2024-10-15_12h39.46.065,exp1,2023.1.0,59.99703615178415,
,,,,,,,,,,,,,,,,5,9,9.5,10,10.5,11,0.5,0.25,0.25,2.25,10,initial,36.05,324,342,361,379,397,9,9,9,9,9,,,,,,,1,0,1,0,0,47,47,52,,,,,,,,,,,,num_6,1.8394216999877244,num_6,0.4,0.6,0.25000000000000006,0.5,9.55138,19.10275,return,6.209776300005615,,,,,,,,,,,,,,,,,903,24,female,left_right_width,2024-10-15_12h39.46.065,exp1,2023.1.0,59.99703615178415,
,,,,,,,,,,,,,,,,3,9.5,10,10.5,0,0,0.5,0.25,0.25,1.25,10,initial,36.05,342,361,379,0,0,9,9,9,0,0,,,,,,,1,0,1,0,0,48,48,30,,,,,,,,,,,,num_3,1.6631243000738323,num_3,0.35,0.8,0.35,0.6,13.37193,22.9233,return,3.5118517000228167,,,,,,,,,,,,,,,,,903,24,female,left_right_width,2024-10-15_12h39.46.065,exp1,2023.1.0,59.99703615178415,
,,,,,,,,,,,,,,,,5,9,9.5,10,10.5,11,0.5,0.25,0.25,2.25,10,initial,36.05,324,342,361,379,397,9,9,9,9,9,,,,,,,1,0,1,0,0,49,49,26,,,,,,,,,,,,num_6,2.86593960004393,num_6,0.55,0.7,0.30000000000000004,0.6,11.46165,22.9233,return,14.33179540000856,,,,,,,,,,,,,,,,,903,24,female,left_right_width,2024-10-15_12h39.46.065,exp1,2023.1.0,59.99703615178415,
,,,,,,,,,,,,,,,,3,9.5,10,10.5,0,0,0.5,0.25,0.25,1.25,10,initial,36.05,342,361,379,0,0,9,9,9,0,0,,,,,,,1,0,1,0,0,50,50,0,,,,,,,,,,,,num_3,3.058421300025657,num_3,0.2,1,0.3,0.5,11.46165,19.10275,return,10.151475100079551,,,,,,,,,,,,,,,,,903,24,female,left_right_width,2024-10-15_12h39.46.065,exp1,2023.1.0,59.99703615178415,
,,,,,,,,,,,,,,,,4,9.25,9.75,10.25,10.75,0,0.5,0.25,0.25,1.75,10,initial,36.05,333,351,370,388,0,9,9,9,9,0,,,,,,,1,0,1,0,0,51,51,37,,,,,,,,,,,,num_6,1.3007279000012204,num_6,0.25,1.3,0.3,0.6,11.46165,22.9233,return,7.613145599956624,,,,,,,,,,,,,,,,,903,24,female,left_right_width,2024-10-15_12h39.46.065,exp1,2023.1.0,59.99703615178415,
,,,,,,,,,,,,,,,,5,9,9.5,10,10.5,11,0.5,0.25,0.25,2.25,10,initial,36.05,324,342,361,379,397,9,9,9,9,9,,,,,,,1,0,1,0,0,52,52,24,,,,,,,,,,,,num_6,3.9482446999754757,num_6,0.3,0.9,0.2,0.4,7.6411,15.2822,return,5.338045799988322,,,,,,,,,,,,,,,,,903,24,female,left_right_width,2024-10-15_12h39.46.065,exp1,2023.1.0,59.99703615178415,
,,,,,,,,,,,,,,,,5,9,9.5,10,10.5,11,0.5,0.25,0.25,2.25,10,initial,36.05,324,342,361,379,397,9,9,9,9,9,,,,,,,1,0,1,0,0,53,53,19,,,,,,,,,,,,num_5,2.5647665999131277,num_5,0.25,0.3,0.25,0.4,9.55138,15.2822,return,4.318041599937715,,,,,,,,,,,,,,,,,903,24,female,left_right_width,2024-10-15_12h39.46.065,exp1,2023.1.0,59.99703615178415,
,,,,,,,,,,,,,,,,,,,,,,,,,,,,,,,,,,,,,,,,,,,,,1,0,1,0,,,,,,,,,,,,,,,,,,,,,,,,,,,,,2000.3127118999837,2000.3127118999837,2000.3127118999837,,,,,,,,,,,,903,24,female,left_right_width,2024-10-15_12h39.46.065,exp1,2023.1.0,59.99703615178415,
,,,,,,,,,,,,,,,,5,8.2,9.1,10,10.9,11.8,0.9,0.35,0.55,4.15,10,initial,36.05,296,328,361,393,425,9,9,9,9,9,,,,,,,2,0,2,0,0,0,0,52,,,,,,,,,,,,num_5,2.5674203999806195,num_5,0.2,0.9,0.7500000000000001,1.0,28.65413,38.2055,return,12.173225400038064,,,,,,,,,,,,,,,,,903,24,female,left_right_width,2024-10-15_12h39.46.065,exp1,2023.1.0,59.99703615178415,
,,,,,,,,,,,,,,,,3,9.1,10,10.9,0,0,0.9,0.35,0.55,2.35,10,initial,36.05,328,361,393,0,0,9,9,9,0,0,,,,,,,2,0,2,0,0,1,1,27,,,,,,,,,,,,num_3,1.3850953000364825,num_3,0.25,0.7,0.8500000000000002,1.1,32.47468,42.02605,return,13.76057679997757,,,,,,,,,,,,,,,,,903,24,female,left_right_width,2024-10-15_12h39.46.065,exp1,2023.1.0,59.99703615178415,
,,,,,,,,,,,,,,,,4,8.65,9.55,10.45,11.35,0,0.9,0.35,0.55,3.25,10,initial,36.05,312,344,377,409,0,9,9,9,9,0,,,,,,,2,0,2,0,0,2,2,11,,,,,,,,,,,,num_3,4.385622399975546,num_3,0.3,0.9,0.65,0.95,24.83358,36.29523,return,10.832840700051747,,,,,,,,,,,,,,,,,903,24,female,left_right_width,2024-10-15_12h39.46.065,exp1,2023.1.0,59.99703615178415,
,,,,,,,,,,,,,,,,3,9.1,10,10.9,0,0,0.9,0.35,0.55,2.35,10,initial,36.05,328,361,393,0,0,9,9,9,0,0,,,,,,,2,0,2,0,0,3,3,5,,,,,,,,,,,,num_3,1.6995994999306276,num_3,0.35,0.5,0.8500000000000002,1.15,32.47468,43.93633,return,14.751206999993883,,,,,,,,,,,,,,,,,903,24,female,left_right_width,2024-10-15_12h39.46.065,exp1,2023.1.0,59.99703615178415,
,,,,,,,,,,,,,,,,3,9.1,10,10.9,0,0,0.9,0.35,0.55,2.35,10,initial,36.05,328,361,393,0,0,9,9,9,0,0,,,,,,,2,0,2,0,0,4,4,31,,,,,,,,,,,,num_3,1.4159909998998046,num_3,0.55,1.1,0.8500000000000003,1.1,32.47468,42.02605,return,14.4131355000427,,,,,,,,,,,,,,,,,903,24,female,left_right_width,2024-10-15_12h39.46.065,exp1,2023.1.0,59.99703615178415,
,,,,,,,,,,,,,,,,4,8.65,9.55,10.45,11.35,0,0.9,0.35,0.55,3.25,10,initial,36.05,312,344,377,409,0,9,9,9,9,0,,,,,,,2,0,2,0,0,5,5,41,,,,,,,,,,,,num_5,2.177625299897045,num_5,0.2,1.2,0.8500000000000002,1.1,32.47468,42.02605,return,15.763115099980496,,,,,,,,,,,,,,,,,903,24,female,left_right_width,2024-10-15_12h39.46.065,exp1,2023.1.0,59.99703615178415,
,,,,,,,,,,,,,,,,3,9.1,10,10.9,0,0,0.9,0.35,0.55,2.35,10,initial,36.05,328,361,393,0,0,9,9,9,0,0,,,,,,,2,0,2,0,0,6,6,30,,,,,,,,,,,,num_4,3.664233300019987,num_4,0.3,1.2,0.7500000000000001,1.1,28.65413,42.02605,return,7.670362400007434,,,,,,,,,,,,,,,,,903,24,female,left_right_width,2024-10-15_12h39.46.065,exp1,2023.1.0,59.99703615178415,
,,,,,,,,,,,,,,,,3,9.1,10,10.9,0,0,0.9,0.35,0.55,2.35,10,initial,36.05,328,361,393,0,0,9,9,9,0,0,,,,,,,2,0,2,0,0,7,7,29,,,,,,,,,,,,num_3,1.4518295999150723,num_3,0.2,0.8,0.7500000000000001,0.95,28.65413,36.29523,return,10.493205899954773,,,,,,,,,,,,,,,,,903,24,female,left_right_width,2024-10-15_12h39.46.065,exp1,2023.1.0,59.99703615178415,
,,,,,,,,,,,,,,,,5,8.2,9.1,10,10.9,11.8,0.9,0.35,0.55,4.15,10,initial,36.05,296,328,361,393,425,9,9,9,9,9,,,,,,,2,0,2,0,0,8,8,51,,,,,,,,,,,,num_6,1.4090815000236034,num_6,0.25,0.8,0.8000000000000002,1.1,30.5644,42.02605,return,8.931767400004901,,,,,,,,,,,,,,,,,903,24,female,left_right_width,2024-10-15_12h39.46.065,exp1,2023.1.0,59.99703615178415,
,,,,,,,,,,,,,,,,5,8.2,9.1,10,10.9,11.8,0.9,0.35,0.55,4.15,10,initial,36.05,296,328,361,393,425,9,9,9,9,9,,,,,,,2,0,2,0,0,9,9,25,,,,,,,,,,,,num_6,2.479358999989927,num_6,0.55,1.0,0.9000000000000004,1.2,34.38495,45.8466,return,5.610482699936256,,,,,,,,,,,,,,,,,903,24,female,left_right_width,2024-10-15_12h39.46.065,exp1,2023.1.0,59.99703615178415,
,,,,,,,,,,,,,,,,5,8.2,9.1,10,10.9,11.8,0.9,0.35,0.55,4.15,10,initial,36.05,296,328,361,393,425,9,9,9,9,9,,,,,,,2,0,2,0,0,10,10,21,,,,,,,,,,,,num_8,2.994760499917902,num_8,0.2,0.4,0.44999999999999996,0.7,17.19248,26.74385,return,8.40471669996623,,,,,,,,,,,,,,,,,903,24,female,left_right_width,2024-10-15_12h39.46.065,exp1,2023.1.0,59.99703615178415,
,,,,,,,,,,,,,,,,4,8.65,9.55,10.45,11.35,0,0.9,0.35,0.55,3.25,10,initial,36.05,312,344,377,409,0,9,9,9,9,0,,,,,,,2,0,2,0,0,11,11,44,,,,,,,,,,,,num_4,2.8541487000184134,num_4,0.5,1.2,0.7000000000000002,1.1,26.74385,42.02605,return,9.565785800106823,,,,,,,,,,,,,,,,,903,24,female,left_right_width,2024-10-15_12h39.46.065,exp1,2023.1.0,59.99703615178415,
,,,,,,,,,,,,,,,,4,8.65,9.55,10.45,11.35,0,0.9,0.35,0.55,3.25,10,initial,36.05,312,344,377,409,0,9,9,9,9,0,,,,,,,2,0,2,0,0,12,12,37,,,,,,,,,,,,num_5,1.4532417000737041,num_5,0.2,1.1,0.65,0.85,24.83358,32.47468,return,9.403102300013416,,,,,,,,,,,,,,,,,903,24,female,left_right_width,2024-10-15_12h39.46.065,exp1,2023.1.0,59.99703615178415,
,,,,,,,,,,,,,,,,5,8.2,9.1,10,10.9,11.8,0.9,0.35,0.55,4.15,10,initial,36.05,296,328,361,393,425,9,9,9,9,9,,,,,,,2,0,2,0,0,13,13,26,,,,,,,,,,,,num_5,1.606286900001578,num_5,0.35,0.8,0.7500000000000001,1.0,28.65413,38.2055,return,6.0621645000064746,,,,,,,,,,,,,,,,,903,24,female,left_right_width,2024-10-15_12h39.46.065,exp1,2023.1.0,59.99703615178415,
,,,,,,,,,,,,,,,,4,8.65,9.55,10.45,11.35,0,0.9,0.35,0.55,3.25,10,initial,36.05,312,344,377,409,0,9,9,9,9,0,,,,,,,2,0,2,0,0,14,14,42,,,,,,,,,,,,num_4,1.4446225999854505,num_4,0.2,1.2,1.0000000000000002,1.3,38.2055,49.66716,return,6.1145438000094146,,,,,,,,,,,,,,,,,903,24,female,left_right_width,2024-10-15_12h39.46.065,exp1,2023.1.0,59.99703615178415,
,,,,,,,,,,,,,,,,5,8.2,9.1,10,10.9,11.8,0.9,0.35,0.55,4.15,10,initial,36.05,296,328,361,393,425,9,9,9,9,9,,,,,,,2,0,2,0,0,15,15,22,,,,,,,,,,,,num_4,3.293353999964893,num_4,0.3,0.6,0.6,0.8,22.9233,30.5644,return,6.783280599978752,,,,,,,,,,,,,,,,,903,24,female,left_right_width,2024-10-15_12h39.46.065,exp1,2023.1.0,59.99703615178415,
,,,,,,,,,,,,,,,,5,8.2,9.1,10,10.9,11.8,0.9,0.35,0.55,4.15,10,initial,36.05,296,328,361,393,425,9,9,9,9,9,,,,,,,2,0,2,0,0,16,16,24,,,,,,,,,,,,num_5,1.3987982000689954,num_5,0.55,0.6,0.7000000000000002,1.05,26.74385,40.11578,return,10.248057099990547,,,,,,,,,,,,,,,,,903,24,female,left_right_width,2024-10-15_12h39.46.065,exp1,2023.1.0,59.99703615178415,
,,,,,,,,,,,,,,,,5,8.2,9.1,10,10.9,11.8,0.9,0.35,0.55,4.15,10,initial,36.05,296,328,361,393,425,9,9,9,9,9,,,,,,,2,0,2,0,0,17,17,53,,,,,,,,,,,,num_5,2.682603600085713,num_5,0.5,0.6,0.6500000000000001,0.85,24.83358,32.47468,return,5.850850100046955,,,,,,,,,,,,,,,,,903,24,female,left_right_width,2024-10-15_12h39.46.065,exp1,2023.1.0,59.99703615178415,
,,,,,,,,,,,,,,,,5,8.2,9.1,10,10.9,11.8,0.9,0.35,0.55,4.15,10,initial,36.05,296,328,361,393,425,9,9,9,9,9,,,,,,,2,0,2,0,0,18,18,50,,,,,,,,,,,,num_4,2.0617318999720737,num_4,0.3,1.1,0.65,0.8,24.83358,30.5644,return,12.676978699979372,,,,,,,,,,,,,,,,,903,24,female,left_right_width,2024-10-15_12h39.46.065,exp1,2023.1.0,59.99703615178415,
,,,,,,,,,,,,,,,,4,8.65,9.55,10.45,11.35,0,0.9,0.35,0.55,3.25,10,initial,36.05,312,344,377,409,0,9,9,9,9,0,,,,,,,2,0,2,0,0,19,19,17,,,,,,,,,,,,num_3,1.151700699934736,num_3,0.45,0.8,0.9000000000000004,1.1,34.38495,42.02605,return,7.070339799975045,,,,,,,,,,,,,,,,,903,24,female,left_right_width,2024-10-15_12h39.46.065,exp1,2023.1.0,59.99703615178415,
,,,,,,,,,,,,,,,,3,9.1,10,10.9,0,0,0.9,0.35,0.55,2.35,10,initial,36.05,328,361,393,0,0,9,9,9,0,0,,,,,,,2,0,2,0,0,20,20,32,,,,,,,,,,,,num_3,1.2218188000842929,num_3,0.5,0.7,1.1000000000000005,1.3,42.02605,49.66716,return,10.430783200077713,,,,,,,,,,,,,,,,,903,24,female,left_right_width,2024-10-15_12h39.46.065,exp1,2023.1.0,59.99703615178415,
,,,,,,,,,,,,,,,,4,8.65,9.55,10.45,11.35,0,0.9,0.35,0.55,3.25,10,initial,36.05,312,344,377,409,0,9,9,9,9,0,,,,,,,2,0,2,0,0,21,21,43,,,,,,,,,,,,num_3,2.097076600068249,num_3,0.25,0.8,0.8000000000000002,1.35,30.5644,51.57743,return,8.444981600041501,,,,,,,,,,,,,,,,,903,24,female,left_right_width,2024-10-15_12h39.46.065,exp1,2023.1.0,59.99703615178415,
,,,,,,,,,,,,,,,,3,9.1,10,10.9,0,0,0.9,0.35,0.55,2.35,10,initial,36.05,328,361,393,0,0,9,9,9,0,0,,,,,,,2,0,2,0,0,22,22,8,,,,,,,,,,,,num_3,1.5759788999566808,num_3,0.5,1.1,1.0000000000000004,1.45,38.2055,55.39798,return,6.246888299938291,,,,,,,,,,,,,,,,,903,24,female,left_right_width,2024-10-15_12h39.46.065,exp1,2023.1.0,59.99703615178415,
,,,,,,,,,,,,,,,,4,8.65,9.55,10.45,11.35,0,0.9,0.35,0.55,3.25,10,initial,36.05,312,344,377,409,0,9,9,9,9,0,,,,,,,2,0,2,0,0,23,23,16,,,,,,,,,,,,num_3,1.6973366999300197,num_3,0.2,1.3,0.9500000000000002,1.35,36.29523,51.57743,return,9.099173599970527,,,,,,,,,,,,,,,,,903,24,female,left_right_width,2024-10-15_12h39.46.065,exp1,2023.1.0,59.99703615178415,
,,,,,,,,,,,,,,,,4,8.65,9.55,10.45,11.35,0,0.9,0.35,0.55,3.25,10,initial,36.05,312,344,377,409,0,9,9,9,9,0,,,,,,,2,0,2,0,0,24,24,38,,,,,,,,,,,,num_4,2.4561173000838608,num_4,0.5,0.6,0.8500000000000003,1.1,32.47468,42.02605,return,10.33415510004852,,,,,,,,,,,,,,,,,903,24,female,left_right_width,2024-10-15_12h39.46.065,exp1,2023.1.0,59.99703615178415,
,,,,,,,,,,,,,,,,4,8.65,9.55,10.45,11.35,0,0.9,0.35,0.55,3.25,10,initial,36.05,312,344,377,409,0,9,9,9,9,0,,,,,,,2,0,2,0,0,25,25,39,,,,,,,,,,,,num_5,1.4920861000427976,num_5,0.3,0.6,0.7000000000000001,0.85,26.74385,32.47468,return,5.633707900065929,,,,,,,,,,,,,,,,,903,24,female,left_right_width,2024-10-15_12h39.46.065,exp1,2023.1.0,59.99703615178415,
,,,,,,,,,,,,,,,,3,9.1,10,10.9,0,0,0.9,0.35,0.55,2.35,10,initial,36.05,328,361,393,0,0,9,9,9,0,0,,,,,,,2,0,2,0,0,26,26,34,,,,,,,,,,,,num_3,1.590367199969478,num_3,0.2,0.5,0.7000000000000001,0.9,26.74385,34.38495,return,7.312504400033504,,,,,,,,,,,,,,,,,903,24,female,left_right_width,2024-10-15_12h39.46.065,exp1,2023.1.0,59.99703615178415,
,,,,,,,,,,,,,,,,5,8.2,9.1,10,10.9,11.8,0.9,0.35,0.55,4.15,10,initial,36.05,296,328,361,393,425,9,9,9,9,9,,,,,,,2,0,2,0,0,27,27,23,,,,,,,,,,,,num_4,1.4051360000157729,num_4,0.4,0.9,0.7500000000000002,1.0,28.65413,38.2055,return,4.910483699990436,,,,,,,,,,,,,,,,,903,24,female,left_right_width,2024-10-15_12h39.46.065,exp1,2023.1.0,59.99703615178415,
,,,,,,,,,,,,,,,,4,8.65,9.55,10.45,11.35,0,0.9,0.35,0.55,3.25,10,initial,36.05,312,344,377,409,0,9,9,9,9,0,,,,,,,2,0,2,0,0,28,28,15,,,,,,,,,,,,num_3,1.0639939999673516,num_3,0.45,0.6,0.7000000000000002,0.95,26.74385,36.29523,return,6.663538199965842,,,,,,,,,,,,,,,,,903,24,female,left_right_width,2024-10-15_12h39.46.065,exp1,2023.1.0,59.99703615178415,
,,,,,,,,,,,,,,,,3,9.1,10,10.9,0,0,0.9,0.35,0.55,2.35,10,initial,36.05,328,361,393,0,0,9,9,9,0,0,,,,,,,2,0,2,0,0,29,29,4,,,,,,,,,,,,num_3,1.465864700032398,num_3,0.2,0.6,0.8500000000000002,1.1,32.47468,42.02605,return,12.95413179998286,,,,,,,,,,,,,,,,,903,24,female,left_right_width,2024-10-15_12h39.46.065,exp1,2023.1.0,59.99703615178415,
,,,,,,,,,,,,,,,,5,8.2,9.1,10,10.9,11.8,0.9,0.35,0.55,4.15,10,initial,36.05,296,328,361,393,425,9,9,9,9,9,,,,,,,2,0,2,0,0,30,30,47,,,,,,,,,,,,num_4,1.1697906999615952,num_4,0.4,1.3,0.9500000000000004,1.4,36.29523,53.48771,return,5.8849611999467015,,,,,,,,,,,,,,,,,903,24,female,left_right_width,2024-10-15_12h39.46.065,exp1,2023.1.0,59.99703615178415,
,,,,,,,,,,,,,,,,5,8.2,9.1,10,10.9,11.8,0.9,0.35,0.55,4.15,10,initial,36.05,296,328,361,393,425,9,9,9,9,9,,,,,,,2,0,2,0,0,31,31,19,,,,,,,,,,,,num_3,2.52201619988773,num_3,0.25,0.4,0.8000000000000002,1.6,30.5644,61.12881,return,10.882790600066073,,,,,,,,,,,,,,,,,903,24,female,left_right_width,2024-10-15_12h39.46.065,exp1,2023.1.0,59.99703615178415,
,,,,,,,,,,,,,,,,3,9.1,10,10.9,0,0,0.9,0.35,0.55,2.35,10,initial,36.05,328,361,393,0,0,9,9,9,0,0,,,,,,,2,0,2,0,0,32,32,0,,,,,,,,,,,,num_3,1.9013716999907047,num_3,0.5,1.3,0.8500000000000003,1.35,32.47468,51.57743,return,6.208414599997923,,,,,,,,,,,,,,,,,903,24,female,left_right_width,2024-10-15_12h39.46.065,exp1,2023.1.0,59.99703615178415,
,,,,,,,,,,,,,,,,3,9.1,10,10.9,0,0,0.9,0.35,0.55,2.35,10,initial,36.05,328,361,393,0,0,9,9,9,0,0,,,,,,,2,0,2,0,0,33,33,33,,,,,,,,,,,,num_3,1.2015252999262884,num_3,0.5,1.2,0.7000000000000002,1.1,26.74385,42.02605,return,7.247855399968103,,,,,,,,,,,,,,,,,903,24,female,left_right_width,2024-10-15_12h39.46.065,exp1,2023.1.0,59.99703615178415,
,,,,,,,,,,,,,,,,4,8.65,9.55,10.45,11.35,0,0.9,0.35,0.55,3.25,10,initial,36.05,312,344,377,409,0,9,9,9,9,0,,,,,,,2,0,2,0,0,34,34,9,,,,,,,,,,,,num_6,2.1453489999985322,num_6,0.2,0.5,0.49999999999999994,0.7,19.10275,26.74385,return,7.493885300005786,,,,,,,,,,,,,,,,,903,24,female,left_right_width,2024-10-15_12h39.46.065,exp1,2023.1.0,59.99703615178415,
,,,,,,,,,,,,,,,,5,8.2,9.1,10,10.9,11.8,0.9,0.35,0.55,4.15,10,initial,36.05,296,328,361,393,425,9,9,9,9,9,,,,,,,2,0,2,0,0,35,35,45,,,,,,,,,,,,num_7,2.3271141999866813,num_7,0.5,1.0,0.7000000000000002,0.95,26.74385,36.29523,return,4.996068799984641,,,,,,,,,,,,,,,,,903,24,female,left_right_width,2024-10-15_12h39.46.065,exp1,2023.1.0,59.99703615178415,
,,,,,,,,,,,,,,,,4,8.65,9.55,10.45,11.35,0,0.9,0.35,0.55,3.25,10,initial,36.05,312,344,377,409,0,9,9,9,9,0,,,,,,,2,0,2,0,0,36,36,13,,,,,,,,,,,,num_5,2.463040499947965,num_5,0.5,1.0,0.6500000000000001,0.85,24.83358,32.47468,return,8.920064999954775,,,,,,,,,,,,,,,,,903,24,female,left_right_width,2024-10-15_12h39.46.065,exp1,2023.1.0,59.99703615178415,
,,,,,,,,,,,,,,,,5,8.2,9.1,10,10.9,11.8,0.9,0.35,0.55,4.15,10,initial,36.05,296,328,361,393,425,9,9,9,9,9,,,,,,,2,0,2,0,0,37,37,46,,,,,,,,,,,,num_3,2.1254752000095323,num_3,0.55,1.2,0.8500000000000003,1.25,32.47468,47.75688,return,4.102901699952781,,,,,,,,,,,,,,,,,903,24,female,left_right_width,2024-10-15_12h39.46.065,exp1,2023.1.0,59.99703615178415,
,,,,,,,,,,,,,,,,5,8.2,9.1,10,10.9,11.8,0.9,0.35,0.55,4.15,10,initial,36.05,296,328,361,393,425,9,9,9,9,9,,,,,,,2,0,2,0,0,38,38,18,,,,,,,,,,,,num_7,3.1160727000096813,num_7,0.35,1.0,0.8500000000000002,1.1,32.47468,42.02605,return,8.729140699957497,,,,,,,,,,,,,,,,,903,24,female,left_right_width,2024-10-15_12h39.46.065,exp1,2023.1.0,59.99703615178415,
,,,,,,,,,,,,,,,,3,9.1,10,10.9,0,0,0.9,0.35,0.55,2.35,10,initial,36.05,328,361,393,0,0,9,9,9,0,0,,,,,,,2,0,2,0,0,39,39,28,,,,,,,,,,,,num_2,0.9527369000716135,num_2,0.55,0.6,0.7500000000000002,1.1,28.65413,42.02605,return,5.889062099973671,,,,,,,,,,,,,,,,,903,24,female,left_right_width,2024-10-15_12h39.46.065,exp1,2023.1.0,59.99703615178415,
,,,,,,,,,,,,,,,,3,9.1,10,10.9,0,0,0.9,0.35,0.55,2.35,10,initial,36.05,328,361,393,0,0,9,9,9,0,0,,,,,,,2,0,2,0,0,40,40,3,,,,,,,,,,,,num_2,1.1081803999841213,num_2,0.3,0.8,0.9000000000000002,1.2,34.38495,45.8466,return,8.896702100057155,,,,,,,,,,,,,,,,,903,24,female,left_right_width,2024-10-15_12h39.46.065,exp1,2023.1.0,59.99703615178415,
,,,,,,,,,,,,,,,,4,8.65,9.55,10.45,11.35,0,0.9,0.35,0.55,3.25,10,initial,36.05,312,344,377,409,0,9,9,9,9,0,,,,,,,2,0,2,0,0,41,41,40,,,,,,,,,,,,num_4,1.4917619000189006,num_4,0.25,0.9,0.7500000000000001,1.1,28.65413,42.02605,return,10.419664799934253,,,,,,,,,,,,,,,,,903,24,female,left_right_width,2024-10-15_12h39.46.065,exp1,2023.1.0,59.99703615178415,
,,,,,,,,,,,,,,,,3,9.1,10,10.9,0,0,0.9,0.35,0.55,2.35,10,initial,36.05,328,361,393,0,0,9,9,9,0,0,,,,,,,2,0,2,0,0,42,42,35,,,,,,,,,,,,num_2,1.0148750999942422,num_2,0.3,1.0,0.7500000000000001,1.0,28.65413,38.2055,return,6.344469100004062,,,,,,,,,,,,,,,,,903,24,female,left_right_width,2024-10-15_12h39.46.065,exp1,2023.1.0,59.99703615178415,
,,,,,,,,,,,,,,,,5,8.2,9.1,10,10.9,11.8,0.9,0.35,0.55,4.15,10,initial,36.05,296,328,361,393,425,9,9,9,9,9,,,,,,,2,0,2,0,0,43,43,49,,,,,,,,,,,,num_3,1.6539534000912681,num_3,0.25,1.2,0.9000000000000002,1.25,34.38495,47.75688,return,6.163317400030792,,,,,,,,,,,,,,,,,903,24,female,left_right_width,2024-10-15_12h39.46.065,exp1,2023.1.0,59.99703615178415,
,,,,,,,,,,,,,,,,4,8.65,9.55,10.45,11.35,0,0.9,0.35,0.55,3.25,10,initial,36.05,312,344,377,409,0,9,9,9,9,0,,,,,,,2,0,2,0,0,44,44,14,,,,,,,,,,,,num_3,2.11107099999208,num_3,0.3,0.7,0.9000000000000002,1.25,34.38495,47.75688,return,16.039874300011434,,,,,,,,,,,,,,,,,903,24,female,left_right_width,2024-10-15_12h39.46.065,exp1,2023.1.0,59.99703615178415,
,,,,,,,,,,,,,,,,5,8.2,9.1,10,10.9,11.8,0.9,0.35,0.55,4.15,10,initial,36.05,296,328,361,393,425,9,9,9,9,9,,,,,,,2,0,2,0,0,45,45,48,,,,,,,,,,,,num_5,2.3840457000769675,num_5,0.2,1.1,0.65,0.95,24.83358,36.29523,return,10.619377900031395,,,,,,,,,,,,,,,,,903,24,female,left_right_width,2024-10-15_12h39.46.065,exp1,2023.1.0,59.99703615178415,
,,,,,,,,,,,,,,,,5,8.2,9.1,10,10.9,11.8,0.9,0.35,0.55,4.15,10,initial,36.05,296,328,361,393,425,9,9,9,9,9,,,,,,,2,0,2,0,0,46,46,20,,,,,,,,,,,,num_6,1.661651200032793,num_6,0.2,0.9,0.9000000000000002,1.1,34.38495,42.02605,return,13.091204599943012,,,,,,,,,,,,,,,,,903,24,female,left_right_width,2024-10-15_12h39.46.065,exp1,2023.1.0,59.99703615178415,
,,,,,,,,,,,,,,,,3,9.1,10,10.9,0,0,0.9,0.35,0.55,2.35,10,initial,36.05,328,361,393,0,0,9,9,9,0,0,,,,,,,2,0,2,0,0,47,47,1,,,,,,,,,,,,num_2,2.0951864999951795,num_2,0.35,1.0,0.9000000000000002,1.4,34.38495,53.48771,return,7.573865800048225,,,,,,,,,,,,,,,,,903,24,female,left_right_width,2024-10-15_12h39.46.065,exp1,2023.1.0,59.99703615178415,
,,,,,,,,,,,,,,,,4,8.65,9.55,10.45,11.35,0,0.9,0.35,0.55,3.25,10,initial,36.05,312,344,377,409,0,9,9,9,9,0,,,,,,,2,0,2,0,0,48,48,12,,,,,,,,,,,,num_4,3.599399699945934,num_4,0.25,0.4,0.7000000000000001,0.9,26.74385,34.38495,return,5.582162200007588,,,,,,,,,,,,,,,,,903,24,female,left_right_width,2024-10-15_12h39.46.065,exp1,2023.1.0,59.99703615178415,
,,,,,,,,,,,,,,,,4,8.65,9.55,10.45,11.35,0,0.9,0.35,0.55,3.25,10,initial,36.05,312,344,377,409,0,9,9,9,9,0,,,,,,,2,0,2,0,0,49,49,36,,,,,,,,,,,,num_3,1.3015970999840647,num_3,0.45,1.3,0.7000000000000002,1.4,26.74385,53.48771,return,4.202193000004627,,,,,,,,,,,,,,,,,903,24,female,left_right_width,2024-10-15_12h39.46.065,exp1,2023.1.0,59.99703615178415,
,,,,,,,,,,,,,,,,3,9.1,10,10.9,0,0,0.9,0.35,0.55,2.35,10,initial,36.05,328,361,393,0,0,9,9,9,0,0,,,,,,,2,0,2,0,0,50,50,6,,,,,,,,,,,,num_3,1.4815481000114232,num_3,0.25,1.2,0.7000000000000001,1.3,26.74385,49.66716,return,7.980411999975331,,,,,,,,,,,,,,,,,903,24,female,left_right_width,2024-10-15_12h39.46.065,exp1,2023.1.0,59.99703615178415,
,,,,,,,,,,,,,,,,3,9.1,10,10.9,0,0,0.9,0.35,0.55,2.35,10,initial,36.05,328,361,393,0,0,9,9,9,0,0,,,,,,,2,0,2,0,0,51,51,2,,,,,,,,,,,,num_5,5.968866299954243,num_5,0.25,0.3,0.35,0.5,13.37193,19.10275,return,7.233176999958232,,,,,,,,,,,,,,,,,903,24,female,left_right_width,2024-10-15_12h39.46.065,exp1,2023.1.0,59.99703615178415,
,,,,,,,,,,,,,,,,3,9.1,10,10.9,0,0,0.9,0.35,0.55,2.35,10,initial,36.05,328,361,393,0,0,9,9,9,0,0,,,,,,,2,0,2,0,0,52,52,7,,,,,,,,,,,,num_3,1.3308075000531971,num_3,0.45,1.2,0.7000000000000002,1.0,26.74385,38.2055,return,6.588420300045982,,,,,,,,,,,,,,,,,903,24,female,left_right_width,2024-10-15_12h39.46.065,exp1,2023.1.0,59.99703615178415,
,,,,,,,,,,,,,,,,4,8.65,9.55,10.45,11.35,0,0.9,0.35,0.55,3.25,10,initial,36.05,312,344,377,409,0,9,9,9,9,0,,,,,,,2,0,2,0,0,53,53,10,,,,,,,,,,,,num_3,1.5822652999777347,num_3,0.25,0.4,0.65,0.95,24.83358,36.29523,return,5.774616600014269,,,,,,,,,,,,,,,,,903,24,female,left_right_width,2024-10-15_12h39.46.065,exp1,2023.1.0,59.99703615178415,
,,,,,,,,,,,,,,,,,,,,,,,,,,,,,,,,,,,,,,,,,,,,,2,0,2,0,,,,,,,,,,,,,,,,,,,,,,,,,,,,,2668.9446801999584,2668.9446801999584,2668.9446801999584,,,,,,,,,,,,903,24,female,left_right_width,2024-10-15_12h39.46.065,exp1,2023.1.0,59.99703615178415,
,,,,,,,,,,,,,,,,4,9.25,9.75,10.25,10.75,0,0.5,0.1,0.4,1.9000000000000001,10,initial,36.05,333,351,370,388,0,9,9,9,9,0,,,,,,,3,0,3,0,0,0,0,10,,,,,,,,,,,,num_4,2.716069799964316,num_4,0.3,0.9,0.3,0.4,11.46165,15.2822,return,4.168024800019339,,,,,,,,,,,,,,,,,903,24,female,left_right_width,2024-10-15_12h39.46.065,exp1,2023.1.0,59.99703615178415,
,,,,,,,,,,,,,,,,3,9.5,10,10.5,0,0,0.5,0.1,0.4,1.4000000000000001,10,initial,36.05,342,361,379,0,0,9,9,9,0,0,,,,,,,3,0,3,0,0,1,1,33,,,,,,,,,,,,num_3,2.0297245000256225,num_3,0.35,0.7,0.5499999999999999,0.65,21.01303,24.83358,return,4.581859100027941,,,,,,,,,,,,,,,,,903,24,female,left_right_width,2024-10-15_12h39.46.065,exp1,2023.1.0,59.99703615178415,
,,,,,,,,,,,,,,,,3,9.5,10,10.5,0,0,0.5,0.1,0.4,1.4000000000000001,10,initial,36.05,342,361,379,0,0,9,9,9,0,0,,,,,,,3,0,3,0,0,2,2,8,,,,,,,,,,,,num_4,2.10628980002366,num_4,0.4,0.6,0.5,0.7,19.10275,26.74385,return,6.310109799960628,,,,,,,,,,,,,,,,,903,24,female,left_right_width,2024-10-15_12h39.46.065,exp1,2023.1.0,59.99703615178415,
,,,,,,,,,,,,,,,,3,9.5,10,10.5,0,0,0.5,0.1,0.4,1.4000000000000001,10,initial,36.05,342,361,379,0,0,9,9,9,0,0,,,,,,,3,0,3,0,0,3,3,0,,,,,,,,,,,,num_3,1.1810547000495717,num_3,0.35,0.9,0.44999999999999996,0.55,17.19248,21.01303,return,6.813395000062883,,,,,,,,,,,,,,,,,903,24,female,left_right_width,2024-10-15_12h39.46.065,exp1,2023.1.0,59.99703615178415,
,,,,,,,,,,,,,,,,3,9.5,10,10.5,0,0,0.5,0.1,0.4,1.4000000000000001,10,initial,36.05,342,361,379,0,0,9,9,9,0,0,,,,,,,3,0,3,0,0,4,4,4,,,,,,,,,,,,num_4,0.9898431999608874,num_4,0.55,0.6,0.35000000000000003,0.5,13.37193,19.10275,return,3.7884783000918105,,,,,,,,,,,,,,,,,903,24,female,left_right_width,2024-10-15_12h39.46.065,exp1,2023.1.0,59.99703615178415,
,,,,,,,,,,,,,,,,3,9.5,10,10.5,0,0,0.5,0.1,0.4,1.4000000000000001,10,initial,36.05,342,361,379,0,0,9,9,9,0,0,,,,,,,3,0,3,0,0,5,5,7,,,,,,,,,,,,num_3,2.9102726000128314,num_3,0.25,1,0.35,0.5,13.37193,19.10275,return,6.622950999997556,,,,,,,,,,,,,,,,,903,24,female,left_right_width,2024-10-15_12h39.46.065,exp1,2023.1.0,59.99703615178415,
,,,,,,,,,,,,,,,,4,9.25,9.75,10.25,10.75,0,0.5,0.1,0.4,1.9000000000000001,10,initial,36.05,333,351,370,388,0,9,9,9,9,0,,,,,,,3,0,3,0,0,6,6,39,,,,,,,,,,,,num_4,1.1652551000006497,num_4,0.55,0.8,0.30000000000000004,0.5,11.46165,19.10275,return,7.404718599980697,,,,,,,,,,,,,,,,,903,24,female,left_right_width,2024-10-15_12h39.46.065,exp1,2023.1.0,59.99703615178415,
,,,,,,,,,,,,,,,,5,9,9.5,10,10.5,11,0.5,0.1,0.4,2.4,10,initial,36.05,324,342,361,379,397,9,9,9,9,9,,,,,,,3,0,3,0,0,7,7,50,,,,,,,,,,,,num_5,1.271097999997437,num_5,0.45,0.5,0.45,0.55,17.19248,21.01303,return,2.928963200072758,,,,,,,,,,,,,,,,,903,24,female,left_right_width,2024-10-15_12h39.46.065,exp1,2023.1.0,59.99703615178415,
,,,,,,,,,,,,,,,,5,9,9.5,10,10.5,11,0.5,0.1,0.4,2.4,10,initial,36.05,324,342,361,379,397,9,9,9,9,9,,,,,,,3,0,3,0,0,8,8,25,,,,,,,,,,,,num_5,1.223801099928096,num_5,0.55,1.0,0.5,0.6,19.10275,22.9233,return,6.758209599996917,,,,,,,,,,,,,,,,,903,24,female,left_right_width,2024-10-15_12h39.46.065,exp1,2023.1.0,59.99703615178415,
,,,,,,,,,,,,,,,,4,9.25,9.75,10.25,10.75,0,0.5,0.1,0.4,1.9000000000000001,10,initial,36.05,333,351,370,388,0,9,9,9,9,0,,,,,,,3,0,3,0,0,9,9,41,,,,,,,,,,,,num_5,1.9150207999628037,num_5,0.45,0.8,0.35000000000000003,0.45,13.37193,17.19248,return,7.724863299983554,,,,,,,,,,,,,,,,,903,24,female,left_right_width,2024-10-15_12h39.46.065,exp1,2023.1.0,59.99703615178415,
,,,,,,,,,,,,,,,,3,9.5,10,10.5,0,0,0.5,0.1,0.4,1.4000000000000001,10,initial,36.05,342,361,379,0,0,9,9,9,0,0,,,,,,,3,0,3,0,0,10,10,30,,,,,,,,,,,,num_5,4.106201700051315,num_5,0.2,0.6,0.3,0.4,11.46165,15.2822,return,7.4539826000109315,,,,,,,,,,,,,,,,,903,24,female,left_right_width,2024-10-15_12h39.46.065,exp1,2023.1.0,59.99703615178415,
,,,,,,,,,,,,,,,,5,9,9.5,10,10.5,11,0.5,0.1,0.4,2.4,10,initial,36.05,324,342,361,379,397,9,9,9,9,9,,,,,,,3,0,3,0,0,11,11,47,,,,,,,,,,,,num_4,1.7023641999112442,num_4,0.5,1.1,0.35000000000000003,0.5,13.37193,19.10275,return,4.1239503000397235,,,,,,,,,,,,,,,,,903,24,female,left_right_width,2024-10-15_12h39.46.065,exp1,2023.1.0,59.99703615178415,
,,,,,,,,,,,,,,,,3,9.5,10,10.5,0,0,0.5,0.1,0.4,1.4000000000000001,10,initial,36.05,342,361,379,0,0,9,9,9,0,0,,,,,,,3,0,3,0,0,12,12,28,,,,,,,,,,,,num_4,1.6529116000747308,num_4,0.35,1.3,0.3,0.4,11.46165,15.2822,return,5.680243500042707,,,,,,,,,,,,,,,,,903,24,female,left_right_width,2024-10-15_12h39.46.065,exp1,2023.1.0,59.99703615178415,
,,,,,,,,,,,,,,,,5,9,9.5,10,10.5,11,0.5,0.1,0.4,2.4,10,initial,36.05,324,342,361,379,397,9,9,9,9,9,,,,,,,3,0,3,0,0,13,13,23,,,,,,,,,,,,num_5,1.7585370999295264,num_5,0.2,1.1,0.3,0.45,11.46165,17.19248,return,5.935647200094536,,,,,,,,,,,,,,,,,903,24,female,left_right_width,2024-10-15_12h39.46.065,exp1,2023.1.0,59.99703615178415,
,,,,,,,,,,,,,,,,5,9,9.5,10,10.5,11,0.5,0.1,0.4,2.4,10,initial,36.05,324,342,361,379,397,9,9,9,9,9,,,,,,,3,0,3,0,0,14,14,46,,,,,,,,,,,,num_5,1.9680165000027046,num_5,0.3,0.9,0.3,0.45,11.46165,17.19248,return,5.482633100007661,,,,,,,,,,,,,,,,,903,24,female,left_right_width,2024-10-15_12h39.46.065,exp1,2023.1.0,59.99703615178415,
,,,,,,,,,,,,,,,,4,9.25,9.75,10.25,10.75,0,0.5,0.1,0.4,1.9000000000000001,10,initial,36.05,333,351,370,388,0,9,9,9,9,0,,,,,,,3,0,3,0,0,15,15,37,,,,,,,,,,,,num_4,1.3683448999654502,num_4,0.2,1.3,0.49999999999999994,0.6,19.10275,22.9233,return,5.8168607000261545,,,,,,,,,,,,,,,,,903,24,female,left_right_width,2024-10-15_12h39.46.065,exp1,2023.1.0,59.99703615178415,
,,,,,,,,,,,,,,,,3,9.5,10,10.5,0,0,0.5,0.1,0.4,1.4000000000000001,10,initial,36.05,342,361,379,0,0,9,9,9,0,0,,,,,,,3,0,3,0,0,16,16,5,,,,,,,,,,,,num_2,1.0756724999519065,num_2,0.45,0.6,0.45,0.6,17.19248,22.9233,return,1.3005854999646544,,,,,,,,,,,,,,,,,903,24,female,left_right_width,2024-10-15_12h39.46.065,exp1,2023.1.0,59.99703615178415,
,,,,,,,,,,,,,,,,3,9.5,10,10.5,0,0,0.5,0.1,0.4,1.4000000000000001,10,initial,36.05,342,361,379,0,0,9,9,9,0,0,,,,,,,3,0,3,0,0,17,17,32,,,,,,,,,,,,num_2,1.2651325000915676,num_2,0.35,0.4,0.35,0.6,13.37193,22.9233,return,2.5017683000769466,,,,,,,,,,,,,,,,,903,24,female,left_right_width,2024-10-15_12h39.46.065,exp1,2023.1.0,59.99703615178415,
,,,,,,,,,,,,,,,,5,9,9.5,10,10.5,11,0.5,0.1,0.4,2.4,10,initial,36.05,324,342,361,379,397,9,9,9,9,9,,,,,,,3,0,3,0,0,18,18,49,,,,,,,,,,,,num_6,2.00600110006053,num_6,0.3,1.2,0.35,0.5,13.37193,19.10275,return,5.18612910003867,,,,,,,,,,,,,,,,,903,24,female,left_right_width,2024-10-15_12h39.46.065,exp1,2023.1.0,59.99703615178415,
,,,,,,,,,,,,,,,,4,9.25,9.75,10.25,10.75,0,0.5,0.1,0.4,1.9000000000000001,10,initial,36.05,333,351,370,388,0,9,9,9,9,0,,,,,,,3,0,3,0,0,19,19,11,,,,,,,,,,,,num_2,2.0173470999579877,num_2,0.3,1.6,0.44999999999999996,0.6,17.19248,22.9233,return,7.212531599914655,,,,,,,,,,,,,,,,,903,24,female,left_right_width,2024-10-15_12h39.46.065,exp1,2023.1.0,59.99703615178415,
,,,,,,,,,,,,,,,,3,9.5,10,10.5,0,0,0.5,0.1,0.4,1.4000000000000001,10,initial,36.05,342,361,379,0,0,9,9,9,0,0,,,,,,,3,0,3,0,0,20,20,34,,,,,,,,,,,,num_3,1.7454109999816865,num_3,0.2,0.4,0.44999999999999996,0.55,17.19248,21.01303,return,6.4079087999416515,,,,,,,,,,,,,,,,,903,24,female,left_right_width,2024-10-15_12h39.46.065,exp1,2023.1.0,59.99703615178415,
,,,,,,,,,,,,,,,,4,9.25,9.75,10.25,10.75,0,0.5,0.1,0.4,1.9000000000000001,10,initial,36.05,333,351,370,388,0,9,9,9,9,0,,,,,,,3,0,3,0,0,21,21,14,,,,,,,,,,,,num_4,0.9863227000460029,num_4,0.2,1.3,0.44999999999999996,0.6,17.19248,22.9233,return,6.142127700033598,,,,,,,,,,,,,,,,,903,24,female,left_right_width,2024-10-15_12h39.46.065,exp1,2023.1.0,59.99703615178415,
,,,,,,,,,,,,,,,,4,9.25,9.75,10.25,10.75,0,0.5,0.1,0.4,1.9000000000000001,10,initial,36.05,333,351,370,388,0,9,9,9,9,0,,,,,,,3,0,3,0,0,22,22,38,,,,,,,,,,,,num_4,1.7600859999656677,num_4,0.2,1.2,0.44999999999999996,0.6,17.19248,22.9233,return,6.178293199976906,,,,,,,,,,,,,,,,,903,24,female,left_right_width,2024-10-15_12h39.46.065,exp1,2023.1.0,59.99703615178415,
,,,,,,,,,,,,,,,,4,9.25,9.75,10.25,10.75,0,0.5,0.1,0.4,1.9000000000000001,10,initial,36.05,333,351,370,388,0,9,9,9,9,0,,,,,,,3,0,3,0,0,23,23,42,,,,,,,,,,,,num_6,1.6678068999899551,num_6,0.35,0.7,0.44999999999999996,0.6,17.19248,22.9233,return,7.242216599988751,,,,,,,,,,,,,,,,,903,24,female,left_right_width,2024-10-15_12h39.46.065,exp1,2023.1.0,59.99703615178415,
,,,,,,,,,,,,,,,,3,9.5,10,10.5,0,0,0.5,0.1,0.4,1.4000000000000001,10,initial,36.05,342,361,379,0,0,9,9,9,0,0,,,,,,,3,0,3,0,0,24,24,1,,,,,,,,,,,,num_2,1.2221118999877945,num_2,0.3,1.0,0.49999999999999994,0.7,19.10275,26.74385,return,3.5386449999641627,,,,,,,,,,,,,,,,,903,24,female,left_right_width,2024-10-15_12h39.46.065,exp1,2023.1.0,59.99703615178415,
,,,,,,,,,,,,,,,,3,9.5,10,10.5,0,0,0.5,0.1,0.4,1.4000000000000001,10,initial,36.05,342,361,379,0,0,9,9,9,0,0,,,,,,,3,0,3,0,0,25,25,6,,,,,,,,,,,,num_3,2.1096782999811694,num_3,0.2,0.3,0.44999999999999996,0.55,17.19248,21.01303,return,7.87851980002597,,,,,,,,,,,,,,,,,903,24,female,left_right_width,2024-10-15_12h39.46.065,exp1,2023.1.0,59.99703615178415,
,,,,,,,,,,,,,,,,4,9.25,9.75,10.25,10.75,0,0.5,0.1,0.4,1.9000000000000001,10,initial,36.05,333,351,370,388,0,9,9,9,9,0,,,,,,,3,0,3,0,0,26,26,15,,,,,,,,,,,,num_3,1.8206073999172077,num_3,0.3,1.2,0.49999999999999994,0.65,19.10275,24.83358,return,5.9830011000158265,,,,,,,,,,,,,,,,,903,24,female,left_right_width,2024-10-15_12h39.46.065,exp1,2023.1.0,59.99703615178415,
,,,,,,,,,,,,,,,,4,9.25,9.75,10.25,10.75,0,0.5,0.1,0.4,1.9000000000000001,10,initial,36.05,333,351,370,388,0,9,9,9,9,0,,,,,,,3,0,3,0,0,27,27,16,,,,,,,,,,,,num_4,1.2798858999740332,num_4,0.3,0.3,0.44999999999999996,0.6,17.19248,22.9233,return,5.5113794999197125,,,,,,,,,,,,,,,,,903,24,female,left_right_width,2024-10-15_12h39.46.065,exp1,2023.1.0,59.99703615178415,
,,,,,,,,,,,,,,,,5,9,9.5,10,10.5,11,0.5,0.1,0.4,2.4,10,initial,36.05,324,342,361,379,397,9,9,9,9,9,,,,,,,3,0,3,0,0,28,28,20,,,,,,,,,,,,num_8,3.2559692999348044,num_8,0.45,1.0,0.30000000000000004,0.4,11.46165,15.2822,return,7.187315299990587,,,,,,,,,,,,,,,,,903,24,female,left_right_width,2024-10-15_12h39.46.065,exp1,2023.1.0,59.99703615178415,
,,,,,,,,,,,,,,,,5,9,9.5,10,10.5,11,0.5,0.1,0.4,2.4,10,initial,36.05,324,342,361,379,397,9,9,9,9,9,,,,,,,3,0,3,0,0,29,29,52,,,,,,,,,,,,num_7,2.189420299953781,num_7,0.55,1.3,0.4,0.55,15.2822,21.01303,return,5.841262700036168,,,,,,,,,,,,,,,,,903,24,female,left_right_width,2024-10-15_12h39.46.065,exp1,2023.1.0,59.99703615178415,
,,,,,,,,,,,,,,,,4,9.25,9.75,10.25,10.75,0,0.5,0.1,0.4,1.9000000000000001,10,initial,36.05,333,351,370,388,0,9,9,9,9,0,,,,,,,3,0,3,0,0,30,30,9,,,,,,,,,,,,num_6,3.870191900059581,num_6,0.25,1.0,0.35,0.5,13.37193,19.10275,return,4.593233600025997,,,,,,,,,,,,,,,,,903,24,female,left_right_width,2024-10-15_12h39.46.065,exp1,2023.1.0,59.99703615178415,
,,,,,,,,,,,,,,,,3,9.5,10,10.5,0,0,0.5,0.1,0.4,1.4000000000000001,10,initial,36.05,342,361,379,0,0,9,9,9,0,0,,,,,,,3,0,3,0,0,31,31,2,,,,,,,,,,,,num_2,2.550754899973981,num_2,0.25,1.0,0.39999999999999997,0.6,15.2822,22.9233,return,3.466402499936521,,,,,,,,,,,,,,,,,903,24,female,left_right_width,2024-10-15_12h39.46.065,exp1,2023.1.0,59.99703615178415,
,,,,,,,,,,,,,,,,5,9,9.5,10,10.5,11,0.5,0.1,0.4,2.4,10,initial,36.05,324,342,361,379,397,9,9,9,9,9,,,,,,,3,0,3,0,0,32,32,51,,,,,,,,,,,,num_6,1.20659680000972,num_6,0.5,1.0,0.5,0.6,19.10275,22.9233,return,4.81303099996876,,,,,,,,,,,,,,,,,903,24,female,left_right_width,2024-10-15_12h39.46.065,exp1,2023.1.0,59.99703615178415,
,,,,,,,,,,,,,,,,3,9.5,10,10.5,0,0,0.5,0.1,0.4,1.4000000000000001,10,initial,36.05,342,361,379,0,0,9,9,9,0,0,,,,,,,3,0,3,0,0,33,33,29,,,,,,,,,,,,num_2,1.220577499945648,num_2,0.55,1.0,0.5,0.6,19.10275,22.9233,return,6.4937550000613555,,,,,,,,,,,,,,,,,903,24,female,left_right_width,2024-10-15_12h39.46.065,exp1,2023.1.0,59.99703615178415,
,,,,,,,,,,,,,,,,3,9.5,10,10.5,0,0,0.5,0.1,0.4,1.4000000000000001,10,initial,36.05,342,361,379,0,0,9,9,9,0,0,,,,,,,3,0,3,0,0,34,34,27,,,,,,,,,,,,num_3,1.4568283000262454,num_3,0.3,0.4,0.5499999999999999,0.6,21.01303,22.9233,return,10.13302950002253,,,,,,,,,,,,,,,,,903,24,female,left_right_width,2024-10-15_12h39.46.065,exp1,2023.1.0,59.99703615178415,
,,,,,,,,,,,,,,,,4,9.25,9.75,10.25,10.75,0,0.5,0.1,0.4,1.9000000000000001,10,initial,36.05,333,351,370,388,0,9,9,9,9,0,,,,,,,3,0,3,0,0,35,35,44,,,,,,,,,,,,num_3,1.6179687000112608,num_3,0.45,0.8,0.55,0.65,21.01303,24.83358,return,5.678496300010011,,,,,,,,,,,,,,,,,903,24,female,left_right_width,2024-10-15_12h39.46.065,exp1,2023.1.0,59.99703615178415,
,,,,,,,,,,,,,,,,5,9,9.5,10,10.5,11,0.5,0.1,0.4,2.4,10,initial,36.05,324,342,361,379,397,9,9,9,9,9,,,,,,,3,0,3,0,0,36,36,21,,,,,,,,,,,,num_5,1.4977002000669017,num_5,0.5,1.0,0.55,0.65,21.01303,24.83358,return,3.53286030003801,,,,,,,,,,,,,,,,,903,24,female,left_right_width,2024-10-15_12h39.46.065,exp1,2023.1.0,59.99703615178415,
,,,,,,,,,,,,,,,,5,9,9.5,10,10.5,11,0.5,0.1,0.4,2.4,10,initial,36.05,324,342,361,379,397,9,9,9,9,9,,,,,,,3,0,3,0,0,37,37,18,,,,,,,,,,,,num_5,1.7683731999713928,num_5,0.45,0.9,0.55,0.65,21.01303,24.83358,return,5.35792219999712,,,,,,,,,,,,,,,,,903,24,female,left_right_width,2024-10-15_12h39.46.065,exp1,2023.1.0,59.99703615178415,
,,,,,,,,,,,,,,,,4,9.25,9.75,10.25,10.75,0,0.5,0.1,0.4,1.9000000000000001,10,initial,36.05,333,351,370,388,0,9,9,9,9,0,,,,,,,3,0,3,0,0,38,38,13,,,,,,,,,,,,num_4,1.4221903999568895,num_4,0.4,1.0,0.55,0.7,21.01303,26.74385,return,3.520077900029719,,,,,,,,,,,,,,,,,903,24,female,left_right_width,2024-10-15_12h39.46.065,exp1,2023.1.0,59.99703615178415,
,,,,,,,,,,,,,,,,5,9,9.5,10,10.5,11,0.5,0.1,0.4,2.4,10,initial,36.05,324,342,361,379,397,9,9,9,9,9,,,,,,,3,0,3,0,0,39,39,26,,,,,,,,,,,,num_5,1.2389488000189885,num_5,0.25,0.4,0.5499999999999999,0.65,21.01303,24.83358,return,6.2714051000075415,,,,,,,,,,,,,,,,,903,24,female,left_right_width,2024-10-15_12h39.46.065,exp1,2023.1.0,59.99703615178415,
,,,,,,,,,,,,,,,,4,9.25,9.75,10.25,10.75,0,0.5,0.1,0.4,1.9000000000000001,10,initial,36.05,333,351,370,388,0,9,9,9,9,0,,,,,,,3,0,3,0,0,40,40,17,,,,,,,,,,,,num_4,2.8868747000815347,num_4,0.2,0.3,0.44999999999999996,0.6,17.19248,22.9233,return,5.330598299973644,,,,,,,,,,,,,,,,,903,24,female,left_right_width,2024-10-15_12h39.46.065,exp1,2023.1.0,59.99703615178415,
,,,,,,,,,,,,,,,,5,9,9.5,10,10.5,11,0.5,0.1,0.4,2.4,10,initial,36.05,324,342,361,379,397,9,9,9,9,9,,,,,,,3,0,3,0,0,41,41,53,,,,,,,,,,,,num_5,2.2060182999121025,num_5,0.5,0.6,0.55,0.7,21.01303,26.74385,return,3.6657452000072226,,,,,,,,,,,,,,,,,903,24,female,left_right_width,2024-10-15_12h39.46.065,exp1,2023.1.0,59.99703615178415,
,,,,,,,,,,,,,,,,4,9.25,9.75,10.25,10.75,0,0.5,0.1,0.4,1.9000000000000001,10,initial,36.05,333,351,370,388,0,9,9,9,9,0,,,,,,,3,0,3,0,0,42,42,12,,,,,,,,,,,,num_5,2.7413694000570104,num_5,0.2,0.7,0.49999999999999994,0.65,19.10275,24.83358,return,5.169382199994288,,,,,,,,,,,,,,,,,903,24,female,left_right_width,2024-10-15_12h39.46.065,exp1,2023.1.0,59.99703615178415,
,,,,,,,,,,,,,,,,3,9.5,10,10.5,0,0,0.5,0.1,0.4,1.4000000000000001,10,initial,36.05,342,361,379,0,0,9,9,9,0,0,,,,,,,3,0,3,0,0,43,43,31,,,,,,,,,,,,num_3,1.4971701999893412,num_3,0.3,1.2,0.39999999999999997,0.6,15.2822,22.9233,return,5.260550200007856,,,,,,,,,,,,,,,,,903,24,female,left_right_width,2024-10-15_12h39.46.065,exp1,2023.1.0,59.99703615178415,
,,,,,,,,,,,,,,,,4,9.25,9.75,10.25,10.75,0,0.5,0.1,0.4,1.9000000000000001,10,initial,36.05,333,351,370,388,0,9,9,9,9,0,,,,,,,3,0,3,0,0,44,44,43,,,,,,,,,,,,num_6,3.5547776999883354,num_6,0.4,0.7,0.45,0.7,17.19248,26.74385,return,9.05411499994807,,,,,,,,,,,,,,,,,903,24,female,left_right_width,2024-10-15_12h39.46.065,exp1,2023.1.0,59.99703615178415,
,,,,,,,,,,,,,,,,5,9,9.5,10,10.5,11,0.5,0.1,0.4,2.4,10,initial,36.05,324,342,361,379,397,9,9,9,9,9,,,,,,,3,0,3,0,0,45,45,45,,,,,,,,,,,,num_4,2.7140681999735534,num_4,0.5,0.7,0.45,0.6,17.19248,22.9233,return,4.252417100011371,,,,,,,,,,,,,,,,,903,24,female,left_right_width,2024-10-15_12h39.46.065,exp1,2023.1.0,59.99703615178415,
,,,,,,,,,,,,,,,,5,9,9.5,10,10.5,11,0.5,0.1,0.4,2.4,10,initial,36.05,324,342,361,379,397,9,9,9,9,9,,,,,,,3,0,3,0,0,46,46,48,,,,,,,,,,,,num_5,2.9373104999540374,num_5,0.2,0.8,0.49999999999999994,0.6,19.10275,22.9233,return,6.319814800051972,,,,,,,,,,,,,,,,,903,24,female,left_right_width,2024-10-15_12h39.46.065,exp1,2023.1.0,59.99703615178415,
,,,,,,,,,,,,,,,,4,9.25,9.75,10.25,10.75,0,0.5,0.1,0.4,1.9000000000000001,10,initial,36.05,333,351,370,388,0,9,9,9,9,0,,,,,,,3,0,3,0,0,47,47,36,,,,,,,,,,,,num_4,1.3061085999943316,num_4,0.2,0.8,0.44999999999999996,0.6,17.19248,22.9233,return,3.5528981999959797,,,,,,,,,,,,,,,,,903,24,female,left_right_width,2024-10-15_12h39.46.065,exp1,2023.1.0,59.99703615178415,
,,,,,,,,,,,,,,,,3,9.5,10,10.5,0,0,0.5,0.1,0.4,1.4000000000000001,10,initial,36.05,342,361,379,0,0,9,9,9,0,0,,,,,,,3,0,3,0,0,48,48,3,,,,,,,,,,,,num_2,2.4788955999538302,num_2,0.3,0.6,0.39999999999999997,0.5,15.2822,19.10275,return,7.234716400038451,,,,,,,,,,,,,,,,,903,24,female,left_right_width,2024-10-15_12h39.46.065,exp1,2023.1.0,59.99703615178415,
,,,,,,,,,,,,,,,,3,9.5,10,10.5,0,0,0.5,0.1,0.4,1.4000000000000001,10,initial,36.05,342,361,379,0,0,9,9,9,0,0,,,,,,,3,0,3,0,0,49,49,35,,,,,,,,,,,,num_2,1.3768910999642685,num_2,0.2,0.6,0.5499999999999999,0.7,21.01303,26.74385,return,7.9723703999770805,,,,,,,,,,,,,,,,,903,24,female,left_right_width,2024-10-15_12h39.46.065,exp1,2023.1.0,59.99703615178415,
,,,,,,,,,,,,,,,,5,9,9.5,10,10.5,11,0.5,0.1,0.4,2.4,10,initial,36.05,324,342,361,379,397,9,9,9,9,9,,,,,,,3,0,3,0,0,50,50,22,,,,,,,,,,,,num_4,1.722824899945408,num_4,0.3,0.3,0.39999999999999997,0.5,15.2822,19.10275,return,7.038750099949539,,,,,,,,,,,,,,,,,903,24,female,left_right_width,2024-10-15_12h39.46.065,exp1,2023.1.0,59.99703615178415,
,,,,,,,,,,,,,,,,5,9,9.5,10,10.5,11,0.5,0.1,0.4,2.4,10,initial,36.05,324,342,361,379,397,9,9,9,9,9,,,,,,,3,0,3,0,0,51,51,19,,,,,,,,,,,,num_6,2.7120680999942124,num_6,0.55,0.8,0.4,0.5,15.2822,19.10275,return,4.740324200014584,,,,,,,,,,,,,,,,,903,24,female,left_right_width,2024-10-15_12h39.46.065,exp1,2023.1.0,59.99703615178415,
,,,,,,,,,,,,,,,,5,9,9.5,10,10.5,11,0.5,0.1,0.4,2.4,10,initial,36.05,324,342,361,379,397,9,9,9,9,9,,,,,,,3,0,3,0,0,52,52,24,,,,,,,,,,,,num_5,2.0540556999621913,num_5,0.55,0.6,0.4,0.5,15.2822,19.10275,return,7.053590600029565,,,,,,,,,,,,,,,,,903,24,female,left_right_width,2024-10-15_12h39.46.065,exp1,2023.1.0,59.99703615178415,
,,,,,,,,,,,,,,,,4,9.25,9.75,10.25,10.75,0,0.5,0.1,0.4,1.9000000000000001,10,initial,36.05,333,351,370,388,0,9,9,9,9,0,,,,,,,3,0,3,0,0,53,53,40,,,,,,,,,,,,num_4,3.2240017999429256,num_4,0.45,0.7,0.45,0.7,17.19248,26.74385,return,2.1786445999750867,,,,,,,,,,,,,,,,,903,24,female,left_right_width,2024-10-15_12h39.46.065,exp1,2023.1.0,59.99703615178415,
,,,,,,,,,,,,,,,,,,,,,,,,,,,,,,,,,,,,,,,,,,,,,3,0,3,0,,,,,,,,,,,,,,,,,,,,,,,,,,,,,3206.7435420999536,3206.7435420999536,3206.7435420999536,,,,,,,,,,,,903,24,female,left_right_width,2024-10-15_12h39.46.065,exp1,2023.1.0,59.99703615178415,
,,,,,,,,,,,,,,,,3,9.5,10,10.5,0,0,0.5,0.25,0.25,1.25,10,initial,36.05,342,361,379,0,0,9,9,9,0,0,,,,,,,4,0,4,0,0,0,0,29,,,,,,,,,,,,num_4,2.1837584999157116,num_4,0.35,0.8,0.39999999999999997,0.6,15.2822,22.9233,return,4.282146299956366,,,,,,,,,,,,,,,,,903,24,female,left_right_width,2024-10-15_12h39.46.065,exp1,2023.1.0,59.99703615178415,
,,,,,,,,,,,,,,,,3,9.5,10,10.5,0,0,0.5,0.25,0.25,1.25,10,initial,36.05,342,361,379,0,0,9,9,9,0,0,,,,,,,4,0,4,0,0,1,1,33,,,,,,,,,,,,num_3,1.1533873999724165,num_3,0.25,0.7,0.25,0.5,9.55138,19.10275,return,2.6365225000772625,,,,,,,,,,,,,,,,,903,24,female,left_right_width,2024-10-15_12h39.46.065,exp1,2023.1.0,59.99703615178415,
,,,,,,,,,,,,,,,,5,9,9.5,10,10.5,11,0.5,0.25,0.25,2.25,10,initial,36.05,324,342,361,379,397,9,9,9,9,9,,,,,,,4,0,4,0,0,2,2,53,,,,,,,,,,,,num_7,2.8011018000543118,num_7,0.3,0.5,0.15000000000000002,0.5,5.73083,19.10275,return,5.319113399949856,,,,,,,,,,,,,,,,,903,24,female,left_right_width,2024-10-15_12h39.46.065,exp1,2023.1.0,59.99703615178415,
,,,,,,,,,,,,,,,,4,9.25,9.75,10.25,10.75,0,0.5,0.25,0.25,1.75,10,initial,36.05,333,351,370,388,0,9,9,9,9,0,,,,,,,4,0,4,0,0,3,3,43,,,,,,,,,,,,num_4,3.634531000046991,num_4,0.55,0.7,0.15000000000000008,0.6,5.73083,22.9233,return,4.91071679990273,,,,,,,,,,,,,,,,,903,24,female,left_right_width,2024-10-15_12h39.46.065,exp1,2023.1.0,59.99703615178415,
,,,,,,,,,,,,,,,,4,9.25,9.75,10.25,10.75,0,0.5,0.25,0.25,1.75,10,initial,36.05,333,351,370,388,0,9,9,9,9,0,,,,,,,4,0,4,0,0,4,4,15,,,,,,,,,,,,num_4,1.9013114999979734,num_4,0.35,0.9,0.15000000000000002,0.6,5.73083,22.9233,return,8.795542299980298,,,,,,,,,,,,,,,,,903,24,female,left_right_width,2024-10-15_12h39.46.065,exp1,2023.1.0,59.99703615178415,
,,,,,,,,,,,,,,,,5,9,9.5,10,10.5,11,0.5,0.25,0.25,2.25,10,initial,36.05,324,342,361,379,397,9,9,9,9,9,,,,,,,4,0,4,0,0,5,5,49,,,,,,,,,,,,num_5,1.7644547999370843,num_5,0.5,1.3,0.15000000000000008,0.85,5.73083,32.47468,return,5.796493600006215,,,,,,,,,,,,,,,,,903,24,female,left_right_width,2024-10-15_12h39.46.065,exp1,2023.1.0,59.99703615178415,
,,,,,,,,,,,,,,,,4,9.25,9.75,10.25,10.75,0,0.5,0.25,0.25,1.75,10,initial,36.05,333,351,370,388,0,9,9,9,9,0,,,,,,,4,0,4,0,0,6,6,36,,,,,,,,,,,,num_4,1.223760599968955,num_4,0.55,0.6,0.20000000000000007,0.6,7.6411,22.9233,return,12.211808099993505,,,,,,,,,,,,,,,,,903,24,female,left_right_width,2024-10-15_12h39.46.065,exp1,2023.1.0,59.99703615178415,
,,,,,,,,,,,,,,,,3,9.5,10,10.5,0,0,0.5,0.25,0.25,1.25,10,initial,36.05,342,361,379,0,0,9,9,9,0,0,,,,,,,4,0,4,0,0,7,7,34,,,,,,,,,,,,num_3,3.098391400068067,num_3,0.4,0.7,0.20000000000000007,0.7,7.6411,26.74385,return,4.376597100053914,,,,,,,,,,,,,,,,,903,24,female,left_right_width,2024-10-15_12h39.46.065,exp1,2023.1.0,59.99703615178415,
,,,,,,,,,,,,,,,,3,9.5,10,10.5,0,0,0.5,0.25,0.25,1.25,10,initial,36.05,342,361,379,0,0,9,9,9,0,0,,,,,,,4,0,4,0,0,8,8,7,,,,,,,,,,,,num_3,1.9953415000345558,num_3,0.45,1.3,0.20000000000000007,1.0,7.6411,38.2055,return,4.870698899962008,,,,,,,,,,,,,,,,,903,24,female,left_right_width,2024-10-15_12h39.46.065,exp1,2023.1.0,59.99703615178415,
,,,,,,,,,,,,,,,,3,9.5,10,10.5,0,0,0.5,0.25,0.25,1.25,10,initial,36.05,342,361,379,0,0,9,9,9,0,0,,,,,,,4,0,4,0,0,9,9,30,,,,,,,,,,,,num_4,1.2658729000249878,num_4,0.55,0.8,0.20000000000000007,0.8,7.6411,30.5644,return,3.821287799975835,,,,,,,,,,,,,,,,,903,24,female,left_right_width,2024-10-15_12h39.46.065,exp1,2023.1.0,59.99703615178415,
,,,,,,,,,,,,,,,,3,9.5,10,10.5,0,0,0.5,0.25,0.25,1.25,10,initial,36.05,342,361,379,0,0,9,9,9,0,0,,,,,,,4,0,4,0,0,10,10,27,,,,,,,,,,,,num_4,1.1600347999483347,num_4,0.4,1.0,0.20000000000000007,0.9,7.6411,34.38495,return,2.9962034000782296,,,,,,,,,,,,,,,,,903,24,female,left_right_width,2024-10-15_12h39.46.065,exp1,2023.1.0,59.99703615178415,
,,,,,,,,,,,,,,,,4,9.25,9.75,10.25,10.75,0,0.5,0.25,0.25,1.75,10,initial,36.05,333,351,370,388,0,9,9,9,9,0,,,,,,,4,0,4,0,0,11,11,14,,,,,,,,,,,,num_5,1.0758445999817923,num_5,0.5,1.2,0.20000000000000007,1.0,7.6411,38.2055,return,5.123773099971004,,,,,,,,,,,,,,,,,903,24,female,left_right_width,2024-10-15_12h39.46.065,exp1,2023.1.0,59.99703615178415,
,,,,,,,,,,,,,,,,3,9.5,10,10.5,0,0,0.5,0.25,0.25,1.25,10,initial,36.05,342,361,379,0,0,9,9,9,0,0,,,,,,,4,0,4,0,0,12,12,4,,,,,,,,,,,,num_4,1.907393200090155,num_4,0.3,1.1,0.15000000000000002,0.8,5.73083,30.5644,return,3.103912299964577,,,,,,,,,,,,,,,,,903,24,female,left_right_width,2024-10-15_12h39.46.065,exp1,2023.1.0,59.99703615178415,
,,,,,,,,,,,,,,,,5,9,9.5,10,10.5,11,0.5,0.25,0.25,2.25,10,initial,36.05,324,342,361,379,397,9,9,9,9,9,,,,,,,4,0,4,0,0,13,13,23,,,,,,,,,,,,num_6,1.0846259000245482,num_6,0.25,1.3,0.10000000000000002,0.7,3.82055,26.74385,return,4.168276699958369,,,,,,,,,,,,,,,,,903,24,female,left_right_width,2024-10-15_12h39.46.065,exp1,2023.1.0,59.99703615178415,
,,,,,,,,,,,,,,,,4,9.25,9.75,10.25,10.75,0,0.5,0.25,0.25,1.75,10,initial,36.05,333,351,370,388,0,9,9,9,9,0,,,,,,,4,0,4,0,0,14,14,9,,,,,,,,,,,,num_4,1.546026400057599,num_4,0.3,1.2,0.15000000000000002,0.9,5.73083,34.38495,return,3.276575000025332,,,,,,,,,,,,,,,,,903,24,female,left_right_width,2024-10-15_12h39.46.065,exp1,2023.1.0,59.99703615178415,
,,,,,,,,,,,,,,,,4,9.25,9.75,10.25,10.75,0,0.5,0.25,0.25,1.75,10,initial,36.05,333,351,370,388,0,9,9,9,9,0,,,,,,,4,0,4,0,0,15,15,13,,,,,,,,,,,,num_5,1.0008377999765798,num_5,0.3,1.3,0.10000000000000002,1.15,3.82055,43.93633,return,3.4021492999745533,,,,,,,,,,,,,,,,,903,24,female,left_right_width,2024-10-15_12h39.46.065,exp1,2023.1.0,59.99703615178415,
,,,,,,,,,,,,,,,,5,9,9.5,10,10.5,11,0.5,0.25,0.25,2.25,10,initial,36.05,324,342,361,379,397,9,9,9,9,9,,,,,,,4,0,4,0,0,16,16,25,,,,,,,,,,,,num_6,1.7914360000286251,num_6,0.45,1.2,0.15000000000000008,1.0,5.73083,38.2055,return,5.795515700010583,,,,,,,,,,,,,,,,,903,24,female,left_right_width,2024-10-15_12h39.46.065,exp1,2023.1.0,59.99703615178415,
,,,,,,,,,,,,,,,,3,9.5,10,10.5,0,0,0.5,0.25,0.25,1.25,10,initial,36.05,342,361,379,0,0,9,9,9,0,0,,,,,,,4,0,4,0,0,17,17,32,,,,,,,,,,,,num_3,0.9873894000193104,num_3,0.25,0.4,0.10000000000000002,1.15,3.82055,43.93633,return,6.3489270999561995,,,,,,,,,,,,,,,,,903,24,female,left_right_width,2024-10-15_12h39.46.065,exp1,2023.1.0,59.99703615178415,
,,,,,,,,,,,,,,,,5,9,9.5,10,10.5,11,0.5,0.25,0.25,2.25,10,initial,36.05,324,342,361,379,397,9,9,9,9,9,,,,,,,4,0,4,0,0,18,18,46,,,,,,,,,,,,num_6,2.029630700009875,num_6,0.35,1.0,0.2,0.6,7.6411,22.9233,return,4.523575500003062,,,,,,,,,,,,,,,,,903,24,female,left_right_width,2024-10-15_12h39.46.065,exp1,2023.1.0,59.99703615178415,
,,,,,,,,,,,,,,,,4,9.25,9.75,10.25,10.75,0,0.5,0.25,0.25,1.75,10,initial,36.05,333,351,370,388,0,9,9,9,9,0,,,,,,,4,0,4,0,0,19,19,37,,,,,,,,,,,,num_4,1.4750386999221519,num_4,0.2,1.1,0.10000000000000002,0.6,3.82055,22.9233,return,3.375158399925567,,,,,,,,,,,,,,,,,903,24,female,left_right_width,2024-10-15_12h39.46.065,exp1,2023.1.0,59.99703615178415,
,,,,,,,,,,,,,,,,3,9.5,10,10.5,0,0,0.5,0.25,0.25,1.25,10,initial,36.05,342,361,379,0,0,9,9,9,0,0,,,,,,,4,0,4,0,0,20,20,3,,,,,,,,,,,,num_4,1.568557999911718,num_4,0.35,1.2,0.15000000000000002,0.6,5.73083,22.9233,return,4.90942229994107,,,,,,,,,,,,,,,,,903,24,female,left_right_width,2024-10-15_12h39.46.065,exp1,2023.1.0,59.99703615178415,
,,,,,,,,,,,,,,,,4,9.25,9.75,10.25,10.75,0,0.5,0.25,0.25,1.75,10,initial,36.05,333,351,370,388,0,9,9,9,9,0,,,,,,,4,0,4,0,0,21,21,12,,,,,,,,,,,,num_4,2.201858500018716,num_4,0.2,0.3,0.3,0.6,11.46165,22.9233,return,4.897702099988237,,,,,,,,,,,,,,,,,903,24,female,left_right_width,2024-10-15_12h39.46.065,exp1,2023.1.0,59.99703615178415,
,,,,,,,,,,,,,,,,5,9,9.5,10,10.5,11,0.5,0.25,0.25,2.25,10,initial,36.05,324,342,361,379,397,9,9,9,9,9,,,,,,,4,0,4,0,0,22,22,51,,,,,,,,,,,,num_5,1.0560007999883965,num_5,0.2,0.4,0.25,0.5,9.55138,19.10275,return,3.6161342000123113,,,,,,,,,,,,,,,,,903,24,female,left_right_width,2024-10-15_12h39.46.065,exp1,2023.1.0,59.99703615178415,
,,,,,,,,,,,,,,,,4,9.25,9.75,10.25,10.75,0,0.5,0.25,0.25,1.75,10,initial,36.05,333,351,370,388,0,9,9,9,9,0,,,,,,,4,0,4,0,0,23,23,39,,,,,,,,,,,,num_3,2.391694499994628,num_3,0.2,0.3,0.25,0.45,9.55138,17.19248,return,3.7901600999757648,,,,,,,,,,,,,,,,,903,24,female,left_right_width,2024-10-15_12h39.46.065,exp1,2023.1.0,59.99703615178415,
,,,,,,,,,,,,,,,,5,9,9.5,10,10.5,11,0.5,0.25,0.25,2.25,10,initial,36.05,324,342,361,379,397,9,9,9,9,9,,,,,,,4,0,4,0,0,24,24,21,,,,,,,,,,,,num_6,1.2967342999763787,num_6,0.2,1.1,0.2,0.4,7.6411,15.2822,return,2.933178700041026,,,,,,,,,,,,,,,,,903,24,female,left_right_width,2024-10-15_12h39.46.065,exp1,2023.1.0,59.99703615178415,
,,,,,,,,,,,,,,,,3,9.5,10,10.5,0,0,0.5,0.25,0.25,1.25,10,initial,36.05,342,361,379,0,0,9,9,9,0,0,,,,,,,4,0,4,0,0,25,25,28,,,,,,,,,,,,num_3,1.5434580999426544,num_3,0.35,0.4,0.35,0.55,13.37193,21.01303,return,2.8367921999888495,,,,,,,,,,,,,,,,,903,24,female,left_right_width,2024-10-15_12h39.46.065,exp1,2023.1.0,59.99703615178415,
,,,,,,,,,,,,,,,,5,9,9.5,10,10.5,11,0.5,0.25,0.25,2.25,10,initial,36.05,324,342,361,379,397,9,9,9,9,9,,,,,,,4,0,4,0,0,26,26,18,,,,,,,,,,,,num_4,1.391390800010413,num_4,0.25,1.3,0.3,0.5,11.46165,19.10275,return,5.654265200020745,,,,,,,,,,,,,,,,,903,24,female,left_right_width,2024-10-15_12h39.46.065,exp1,2023.1.0,59.99703615178415,
,,,,,,,,,,,,,,,,5,9,9.5,10,10.5,11,0.5,0.25,0.25,2.25,10,initial,36.05,324,342,361,379,397,9,9,9,9,9,,,,,,,4,0,4,0,0,27,27,22,,,,,,,,,,,,num_6,1.2816400999436155,num_6,0.4,0.6,0.25000000000000006,0.5,9.55138,19.10275,return,4.441379699972458,,,,,,,,,,,,,,,,,903,24,female,left_right_width,2024-10-15_12h39.46.065,exp1,2023.1.0,59.99703615178415,
,,,,,,,,,,,,,,,,3,9.5,10,10.5,0,0,0.5,0.25,0.25,1.25,10,initial,36.05,342,361,379,0,0,9,9,9,0,0,,,,,,,4,0,4,0,0,28,28,1,,,,,,,,,,,,num_2,1.0072443999815732,num_2,0.55,1.6,0.20000000000000007,0.5,7.6411,19.10275,return,4.719592300010845,,,,,,,,,,,,,,,,,903,24,female,left_right_width,2024-10-15_12h39.46.065,exp1,2023.1.0,59.99703615178415,
,,,,,,,,,,,,,,,,4,9.25,9.75,10.25,10.75,0,0.5,0.25,0.25,1.75,10,initial,36.05,333,351,370,388,0,9,9,9,9,0,,,,,,,4,0,4,0,0,29,29,11,,,,,,,,,,,,num_5,3.195773399900645,num_5,0.45,0.9,0.20000000000000007,0.55,7.6411,21.01303,return,4.058569299988449,,,,,,,,,,,,,,,,,903,24,female,left_right_width,2024-10-15_12h39.46.065,exp1,2023.1.0,59.99703615178415,
,,,,,,,,,,,,,,,,5,9,9.5,10,10.5,11,0.5,0.25,0.25,2.25,10,initial,36.05,324,342,361,379,397,9,9,9,9,9,,,,,,,4,0,4,0,0,30,30,45,,,,,,,,,,,,num_6,2.032847100053914,num_6,0.3,0.8,0.15000000000000002,0.4,5.73083,15.2822,return,2.832586499978788,,,,,,,,,,,,,,,,,903,24,female,left_right_width,2024-10-15_12h39.46.065,exp1,2023.1.0,59.99703615178415,
,,,,,,,,,,,,,,,,3,9.5,10,10.5,0,0,0.5,0.25,0.25,1.25,10,initial,36.05,342,361,379,0,0,9,9,9,0,0,,,,,,,4,0,4,0,0,31,31,0,,,,,,,,,,,,num_3,1.468341299914755,num_3,0.2,0.4,0.2,0.5,7.6411,19.10275,return,5.1826543000061065,,,,,,,,,,,,,,,,,903,24,female,left_right_width,2024-10-15_12h39.46.065,exp1,2023.1.0,59.99703615178415,
,,,,,,,,,,,,,,,,4,9.25,9.75,10.25,10.75,0,0.5,0.25,0.25,1.75,10,initial,36.05,333,351,370,388,0,9,9,9,9,0,,,,,,,4,0,4,0,0,32,32,42,,,,,,,,,,,,num_5,1.9717533000512049,num_5,0.45,0.7,0.25000000000000006,0.6,9.55138,22.9233,return,3.648374199983664,,,,,,,,,,,,,,,,,903,24,female,left_right_width,2024-10-15_12h39.46.065,exp1,2023.1.0,59.99703615178415,
,,,,,,,,,,,,,,,,4,9.25,9.75,10.25,10.75,0,0.5,0.25,0.25,1.75,10,initial,36.05,333,351,370,388,0,9,9,9,9,0,,,,,,,4,0,4,0,0,33,33,10,,,,,,,,,,,,num_5,1.5308999000117183,num_5,0.55,0.8,0.15000000000000008,0.6,5.73083,22.9233,return,4.701113800052553,,,,,,,,,,,,,,,,,903,24,female,left_right_width,2024-10-15_12h39.46.065,exp1,2023.1.0,59.99703615178415,
,,,,,,,,,,,,,,,,5,9,9.5,10,10.5,11,0.5,0.25,0.25,2.25,10,initial,36.05,324,342,361,379,397,9,9,9,9,9,,,,,,,4,0,4,0,0,34,34,24,,,,,,,,,,,,num_7,2.666229199967347,num_7,0.3,0.6,0.15000000000000002,0.3,5.73083,11.46165,return,4.7350526000373065,,,,,,,,,,,,,,,,,903,24,female,left_right_width,2024-10-15_12h39.46.065,exp1,2023.1.0,59.99703615178415,
,,,,,,,,,,,,,,,,5,9,9.5,10,10.5,11,0.5,0.25,0.25,2.25,10,initial,36.05,324,342,361,379,397,9,9,9,9,9,,,,,,,4,0,4,0,0,35,35,26,,,,,,,,,,,,num_4,3.5820994999958202,num_4,0.55,0.9,0.25000000000000006,0.5,9.55138,19.10275,return,3.6952291999477893,,,,,,,,,,,,,,,,,903,24,female,left_right_width,2024-10-15_12h39.46.065,exp1,2023.1.0,59.99703615178415,
,,,,,,,,,,,,,,,,4,9.25,9.75,10.25,10.75,0,0.5,0.25,0.25,1.75,10,initial,36.05,333,351,370,388,0,9,9,9,9,0,,,,,,,4,0,4,0,0,36,36,40,,,,,,,,,,,,num_5,1.435211700038053,num_5,0.45,0.5,0.20000000000000007,0.45,7.6411,17.19248,return,3.405985000077635,,,,,,,,,,,,,,,,,903,24,female,left_right_width,2024-10-15_12h39.46.065,exp1,2023.1.0,59.99703615178415,
,,,,,,,,,,,,,,,,3,9.5,10,10.5,0,0,0.5,0.25,0.25,1.25,10,initial,36.05,342,361,379,0,0,9,9,9,0,0,,,,,,,4,0,4,0,0,37,37,5,,,,,,,,,,,,num_3,1.1673438000725582,num_3,0.55,1,0.15000000000000008,0.5,5.73083,19.10275,return,4.603147999965586,,,,,,,,,,,,,,,,,903,24,female,left_right_width,2024-10-15_12h39.46.065,exp1,2023.1.0,59.99703615178415,
,,,,,,,,,,,,,,,,5,9,9.5,10,10.5,11,0.5,0.25,0.25,2.25,10,initial,36.05,324,342,361,379,397,9,9,9,9,9,,,,,,,4,0,4,0,0,38,38,50,,,,,,,,,,,,num_7,2.4150265000062063,num_7,0.2,1.0,0.25,0.55,9.55138,21.01303,return,7.892713199951686,,,,,,,,,,,,,,,,,903,24,female,left_right_width,2024-10-15_12h39.46.065,exp1,2023.1.0,59.99703615178415,
,,,,,,,,,,,,,,,,3,9.5,10,10.5,0,0,0.5,0.25,0.25,1.25,10,initial,36.05,342,361,379,0,0,9,9,9,0,0,,,,,,,4,0,4,0,0,39,39,35,,,,,,,,,,,,num_2,1.0934766000136733,num_2,0.5,1.6,0.30000000000000004,0.8,11.46165,30.5644,return,5.4274767000461,,,,,,,,,,,,,,,,,903,24,female,left_right_width,2024-10-15_12h39.46.065,exp1,2023.1.0,59.99703615178415,
,,,,,,,,,,,,,,,,5,9,9.5,10,10.5,11,0.5,0.25,0.25,2.25,10,initial,36.05,324,342,361,379,397,9,9,9,9,9,,,,,,,4,0,4,0,0,40,40,52,,,,,,,,,,,,num_7,2.8808874000096694,num_7,0.4,1.1,0.20000000000000007,0.65,7.6411,24.83358,return,6.438713500043377,,,,,,,,,,,,,,,,,903,24,female,left_right_width,2024-10-15_12h39.46.065,exp1,2023.1.0,59.99703615178415,
,,,,,,,,,,,,,,,,3,9.5,10,10.5,0,0,0.5,0.25,0.25,1.25,10,initial,36.05,342,361,379,0,0,9,9,9,0,0,,,,,,,4,0,4,0,0,41,41,31,,,,,,,,,,,,num_3,1.1341254999861121,num_3,0.35,1.3,0.2,0.7,7.6411,26.74385,return,3.96631950000301,,,,,,,,,,,,,,,,,903,24,female,left_right_width,2024-10-15_12h39.46.065,exp1,2023.1.0,59.99703615178415,
,,,,,,,,,,,,,,,,4,9.25,9.75,10.25,10.75,0,0.5,0.25,0.25,1.75,10,initial,36.05,333,351,370,388,0,9,9,9,9,0,,,,,,,4,0,4,0,0,42,42,16,,,,,,,,,,,,num_5,3.01201259996742,num_5,0.3,1.1,0.25,0.65,9.55138,24.83358,return,4.502505599986762,,,,,,,,,,,,,,,,,903,24,female,left_right_width,2024-10-15_12h39.46.065,exp1,2023.1.0,59.99703615178415,
,,,,,,,,,,,,,,,,4,9.25,9.75,10.25,10.75,0,0.5,0.25,0.25,1.75,10,initial,36.05,333,351,370,388,0,9,9,9,9,0,,,,,,,4,0,4,0,0,43,43,44,,,,,,,,,,,,num_5,1.4473813999211416,num_5,0.3,0.9,0.15000000000000002,0.65,5.73083,24.83358,return,4.233381600002758,,,,,,,,,,,,,,,,,903,24,female,left_right_width,2024-10-15_12h39.46.065,exp1,2023.1.0,59.99703615178415,
,,,,,,,,,,,,,,,,5,9,9.5,10,10.5,11,0.5,0.25,0.25,2.25,10,initial,36.05,324,342,361,379,397,9,9,9,9,9,,,,,,,4,0,4,0,0,44,44,20,,,,,,,,,,,,num_6,2.7946093999780715,num_6,0.3,0.8,0.2,0.5,7.6411,19.10275,return,4.276917099952698,,,,,,,,,,,,,,,,,903,24,female,left_right_width,2024-10-15_12h39.46.065,exp1,2023.1.0,59.99703615178415,
,,,,,,,,,,,,,,,,3,9.5,10,10.5,0,0,0.5,0.25,0.25,1.25,10,initial,36.05,342,361,379,0,0,9,9,9,0,0,,,,,,,4,0,4,0,0,45,45,2,,,,,,,,,,,,num_2,1.1120462000835687,num_2,0.35,0.4,0.2,0.4,7.6411,15.2822,return,2.135404200060293,,,,,,,,,,,,,,,,,903,24,female,left_right_width,2024-10-15_12h39.46.065,exp1,2023.1.0,59.99703615178415,
,,,,,,,,,,,,,,,,3,9.5,10,10.5,0,0,0.5,0.25,0.25,1.25,10,initial,36.05,342,361,379,0,0,9,9,9,0,0,,,,,,,4,0,4,0,0,46,46,8,,,,,,,,,,,,num_2,1.3414496999466792,num_2,0.5,1.4,0.20000000000000007,0.5,7.6411,19.10275,return,5.334554099943489,,,,,,,,,,,,,,,,,903,24,female,left_right_width,2024-10-15_12h39.46.065,exp1,2023.1.0,59.99703615178415,
,,,,,,,,,,,,,,,,4,9.25,9.75,10.25,10.75,0,0.5,0.25,0.25,1.75,10,initial,36.05,333,351,370,388,0,9,9,9,9,0,,,,,,,4,0,4,0,0,47,47,41,,,,,,,,,,,,num_6,2.020780300023034,num_6,0.3,1.3,0.15000000000000002,0.5,5.73083,19.10275,return,3.9682805000338703,,,,,,,,,,,,,,,,,903,24,female,left_right_width,2024-10-15_12h39.46.065,exp1,2023.1.0,59.99703615178415,
,,,,,,,,,,,,,,,,3,9.5,10,10.5,0,0,0.5,0.25,0.25,1.25,10,initial,36.05,342,361,379,0,0,9,9,9,0,0,,,,,,,4,0,4,0,0,48,48,6,,,,,,,,,,,,num_4,1.996845900081098,num_4,0.25,1.3,0.10000000000000002,0.4,3.82055,15.2822,return,4.918914000038058,,,,,,,,,,,,,,,,,903,24,female,left_right_width,2024-10-15_12h39.46.065,exp1,2023.1.0,59.99703615178415,
,,,,,,,,,,,,,,,,5,9,9.5,10,10.5,11,0.5,0.25,0.25,2.25,10,initial,36.05,324,342,361,379,397,9,9,9,9,9,,,,,,,4,0,4,0,0,49,49,47,,,,,,,,,,,,num_7,4.272848299937323,num_7,0.35,0.9,0.2,0.55,7.6411,21.01303,return,4.174492100020871,,,,,,,,,,,,,,,,,903,24,female,left_right_width,2024-10-15_12h39.46.065,exp1,2023.1.0,59.99703615178415,
,,,,,,,,,,,,,,,,5,9,9.5,10,10.5,11,0.5,0.25,0.25,2.25,10,initial,36.05,324,342,361,379,397,9,9,9,9,9,,,,,,,4,0,4,0,0,50,50,19,,,,,,,,,,,,num_5,2.6826294000493363,num_5,0.2,0.7,0.2,0.55,7.6411,21.01303,return,3.8833063000347465,,,,,,,,,,,,,,,,,903,24,female,left_right_width,2024-10-15_12h39.46.065,exp1,2023.1.0,59.99703615178415,
,,,,,,,,,,,,,,,,5,9,9.5,10,10.5,11,0.5,0.25,0.25,2.25,10,initial,36.05,324,342,361,379,397,9,9,9,9,9,,,,,,,4,0,4,0,0,51,51,48,,,,,,,,,,,,num_6,1.1900115000316873,num_6,0.4,0.9,0.15000000000000008,0.5,5.73083,19.10275,return,7.3914817000040784,,,,,,,,,,,,,,,,,903,24,female,left_right_width,2024-10-15_12h39.46.065,exp1,2023.1.0,59.99703615178415,
,,,,,,,,,,,,,,,,4,9.25,9.75,10.25,10.75,0,0.5,0.25,0.25,1.75,10,initial,36.05,333,351,370,388,0,9,9,9,9,0,,,,,,,4,0,4,0,0,52,52,17,,,,,,,,,,,,num_6,3.1029856000095606,num_6,0.4,0.5,0.30000000000000004,0.6,11.46165,22.9233,return,10.715070700040087,,,,,,,,,,,,,,,,,903,24,female,left_right_width,2024-10-15_12h39.46.065,exp1,2023.1.0,59.99703615178415,
,,,,,,,,,,,,,,,,4,9.25,9.75,10.25,10.75,0,0.5,0.25,0.25,1.75,10,initial,36.05,333,351,370,388,0,9,9,9,9,0,,,,,,,4,0,4,0,0,53,53,38,,,,,,,,,,,,num_4,1.824728999985382,num_4,0.2,0.3,0.25,0.5,9.55138,19.10275,return,3.987052800017409,,,,,,,,,,,,,,,,,903,24,female,left_right_width,2024-10-15_12h39.46.065,exp1,2023.1.0,59.99703615178415,
,,,,,,,,,,,,,,,,,,,,,,,,,,,,,,,,,,,,,,,,,,,,,4,0,4,0,,,,,,,,,,,,,,,,,,,,,,,,,,,,,3665.3425802000565,3665.3425802000565,3665.3425802000565,,,,,,,,,,,,903,24,female,left_right_width,2024-10-15_12h39.46.065,exp1,2023.1.0,59.99703615178415,
,,,,,,,,,,,,,,,,5,9,9.5,10,10.5,11,0.5,0.1,0.4,2.4,10,initial,36.05,324,342,361,379,397,9,9,9,9,9,,,,,,,5,0,5,0,0,0,0,51,,,,,,,,,,,,num_4,1.6581551999552175,num_4,0.55,0.7,0.6000000000000001,0.8,22.9233,30.5644,return,3.858764600008726,,,,,,,,,,,,,,,,,903,24,female,left_right_width,2024-10-15_12h39.46.065,exp1,2023.1.0,59.99703615178415,
,,,,,,,,,,,,,,,,3,9.5,10,10.5,0,0,0.5,0.1,0.4,1.4000000000000001,10,initial,36.05,342,361,379,0,0,9,9,9,0,0,,,,,,,5,0,5,0,0,1,1,33,,,,,,,,,,,,num_2,0.9437478999607265,num_2,0.4,1.2,0.7500000000000002,0.9,28.65413,34.38495,return,7.576748799998313,,,,,,,,,,,,,,,,,903,24,female,left_right_width,2024-10-15_12h39.46.065,exp1,2023.1.0,59.99703615178415,
,,,,,,,,,,,,,,,,4,9.25,9.75,10.25,10.75,0,0.5,0.1,0.4,1.9000000000000001,10,initial,36.05,333,351,370,388,0,9,9,9,9,0,,,,,,,5,0,5,0,0,2,2,13,,,,,,,,,,,,num_2,1.3373923000181094,num_2,0.45,1.6,0.7500000000000002,0.9,28.65413,34.38495,return,8.142302099964581,,,,,,,,,,,,,,,,,903,24,female,left_right_width,2024-10-15_12h39.46.065,exp1,2023.1.0,59.99703615178415,
,,,,,,,,,,,,,,,,3,9.5,10,10.5,0,0,0.5,0.1,0.4,1.4000000000000001,10,initial,36.05,342,361,379,0,0,9,9,9,0,0,,,,,,,5,0,5,0,0,3,3,8,,,,,,,,,,,,num_2,1.5208538000006229,num_2,0.35,1.0,0.9500000000000003,1.1,36.29523,42.02605,return,6.706201300024986,,,,,,,,,,,,,,,,,903,24,female,left_right_width,2024-10-15_12h39.46.065,exp1,2023.1.0,59.99703615178415,
,,,,,,,,,,,,,,,,3,9.5,10,10.5,0,0,0.5,0.1,0.4,1.4000000000000001,10,initial,36.05,342,361,379,0,0,9,9,9,0,0,,,,,,,5,0,5,0,0,4,4,30,,,,,,,,,,,,num_2,1.54538699996192,num_2,0.25,0.4,0.7500000000000001,1.4,28.65413,53.48771,return,10.36000929994043,,,,,,,,,,,,,,,,,903,24,female,left_right_width,2024-10-15_12h39.46.065,exp1,2023.1.0,59.99703615178415,
,,,,,,,,,,,,,,,,5,9,9.5,10,10.5,11,0.5,0.1,0.4,2.4,10,initial,36.05,324,342,361,379,397,9,9,9,9,9,,,,,,,5,0,5,0,0,5,5,45,,,,,,,,,,,,num_4,1.7736039999872446,num_4,0.25,1.0,0.7500000000000001,1.1,28.65413,42.02605,return,5.188828599988483,,,,,,,,,,,,,,,,,903,24,female,left_right_width,2024-10-15_12h39.46.065,exp1,2023.1.0,59.99703615178415,
,,,,,,,,,,,,,,,,4,9.25,9.75,10.25,10.75,0,0.5,0.1,0.4,1.9000000000000001,10,initial,36.05,333,351,370,388,0,9,9,9,9,0,,,,,,,5,0,5,0,0,6,6,36,,,,,,,,,,,,num_3,3.330822099931538,num_3,0.25,0.8,0.6,0.9,22.9233,34.38495,return,5.862044099951163,,,,,,,,,,,,,,,,,903,24,female,left_right_width,2024-10-15_12h39.46.065,exp1,2023.1.0,59.99703615178415,
