amount_p,posx1_p,posx2_p,posx3_p,posx4_p,posx5_p,center_to_center_p,edge_to_edge_p,w_p,stim_length_p,eccentricity_p,line1_p,line2_p,line3_p,line4_p,line5_p,amount,posx1,posx2,posx3,posx4,posx5,center_to_center,edge_to_edge,w,stim_length,eccentricity,trial_type,deg_to_pix_index,posx1_in_pix,posx2_in_pix,posx3_in_pix,posx4_in_pix,posx5_in_pix,line1,line2,line3,line4,line5,posx,setsize_cobdi,trials.thisRepN,trials.thisTrialN,trials.thisN,trials.thisIndex,blocks.thisRepN,blocks.thisTrialN,blocks.thisN,blocks.thisIndex,loop.thisRepN,loop.thisTrialN,loop.thisN,loop.thisIndex,first.thisRepN,first.thisTrialN,first.thisN,first.thisIndex,second.thisRepN,second.thisTrialN,second.thisN,second.thisIndex,key_resp_3.started,key_resp_3.keys,key_resp_3.rt,key_resp.keys,key_resp.rt,response,starting_width_deg,starting_space_deg,response_width_degree,response_spacing_degree,response_width_pixel,response_spacing_pixel,next_5.keys,next_5.rt,key_resp_4.keys,key_resp_4.rt,text_3.started,text_4.started,key_resp_2.started,text_2.started,key_resp_2.keys,key_resp_2.rt,adjusting.started,next.keys,next.rt,text_control2.started,key_resp.started,key_resp.corr,text_bye.started,text_bye.stopped,participant,age,gender,resp_group,date,expName,psychopyVersion,frameRate,
,,,,,,,,,,,,,,,,,,,,,,,,,,,,,,,,,,,,,,,,,,,,,,,,,,,,,,,,,,,,,272.7889077999862,c,151.12545849999879,,,,,,,,,,,,,,,,,,,,,,,,,,,,905,23,female,up_down_width,2024-10-15_18h36.47.989,exp1,2023.1.0,59.998584008666015,
3,9.5,10,10.5,0,0,0.5,0.25,0.25,1.25,10,9,9,9,0,0,,,,,,,,,,,,,,,,,,,,,,,,,,0,0,0,0,,,,,,,,,,,,,,,,,,,,num_3,4.882687200093642,num_3,0.35,0.4,0.35,0.65,13.37193,24.83358,return,15.081734100007452,,,,,,,,,,,,,,,,,905,23,female,up_down_width,2024-10-15_18h36.47.989,exp1,2023.1.0,59.998584008666015,
4,9.25,9.75,10.25,10.75,0,0.5,0.1,0.4,1.9000000000000001,10,9,9,9,9,0,,,,,,,,,,,,,,,,,,,,,,,,,,0,1,1,4,,,,,,,,,,,,,,,,,,,,num_3,4.544904600013979,num_3,0.55,1.2,0.55,1.1,21.01303,42.02605,return,5.159784100018442,,,,,,,,,,,,,,,,,905,23,female,up_down_width,2024-10-15_18h36.47.989,exp1,2023.1.0,59.998584008666015,
4,9.25,9.75,10.25,10.75,0,0.5,0.25,0.25,1.75,10,9,9,9,9,0,,,,,,,,,,,,,,,,,,,,,,,,,,0,2,2,1,,,,,,,,,,,,,,,,,,,,num_3,3.3161903000436723,num_3,0.2,0.4,0.25,0.5,9.55138,19.10275,return,16.059099199948832,,,,,,,,,,,,,,,,,905,23,female,up_down_width,2024-10-15_18h36.47.989,exp1,2023.1.0,59.998584008666015,
3,9.1,10,10.9,0,0,0.9,0.35,0.55,2.35,10,9,9,9,0,0,,,,,,,,,,,,,,,,,,,,,,,,,,0,3,3,3,,,,,,,,,,,,,,,,,,,,num_3,5.508201800053939,num_3,0.4,0.5,0.5,0.8,19.10275,30.5644,return,14.612867099931464,,,,,,,,,,,,,,,,,905,23,female,up_down_width,2024-10-15_18h36.47.989,exp1,2023.1.0,59.998584008666015,
5,9,9.5,10,10.5,11,0.5,0.1,0.4,2.4,10,9,9,9,9,9,,,,,,,,,,,,,,,,,,,,,,,,,,0,4,4,5,,,,,,,,,,,,,,,,,,,,num_3,2.5040705000283197,num_3,0.45,0.5,0.45,0.7,17.19248,26.74385,return,7.635067300056107,,,,,,,,,,,,,,,,,905,23,female,up_down_width,2024-10-15_18h36.47.989,exp1,2023.1.0,59.998584008666015,
5,8.2,9.1,10,10.9,11.8,0.9,0.35,0.55,4.15,10,9,9,9,9,9,,,,,,,,,,,,,,,,,,,,,,,,,,0,5,5,2,,,,,,,,,,,,,,,,,,,,num_4,2.650316199986264,num_4,0.4,1.0,0.45,0.8,17.19248,30.5644,return,5.214583700057119,,,,,,,,,,,,,,,,,905,23,female,up_down_width,2024-10-15_18h36.47.989,exp1,2023.1.0,59.998584008666015,
,,,,,,,,,,,,,,,,,,,,,,,,,,,,,,,,,,,,,,,,,,,,,,,,,,,,,,,,,,,,,,,,,,,,,,,,,,,c,75.71008969994728,,,,,,,,,,,,,,,905,23,female,up_down_width,2024-10-15_18h36.47.989,exp1,2023.1.0,59.998584008666015,
,,,,,,,,,,,,,,,,3,9.1,10,10.9,0,0,0.9,0.35,0.55,2.35,10,initial,36.05,328,361,393,0,0,9,9,9,0,0,,,,,,,0,0,0,0,0,0,0,0,,,,,,,,,,,,num_3,1.634179399930872,num_3,0.3,0.5,0.44999999999999996,0.65,17.19248,24.83358,return,5.611576700001024,,,,,,,,,,,,,,,,,905,23,female,up_down_width,2024-10-15_18h36.47.989,exp1,2023.1.0,59.998584008666015,
,,,,,,,,,,,,,,,,5,8.2,9.1,10,10.9,11.8,0.9,0.35,0.55,4.15,10,initial,36.05,296,328,361,393,425,9,9,9,9,9,,,,,,,0,0,0,0,0,1,1,49,,,,,,,,,,,,num_4,1.5919829999329522,num_4,0.3,0.5,0.49999999999999994,0.8,19.10275,30.5644,return,8.22344339999836,,,,,,,,,,,,,,,,,905,23,female,up_down_width,2024-10-15_18h36.47.989,exp1,2023.1.0,59.998584008666015,
,,,,,,,,,,,,,,,,3,9.1,10,10.9,0,0,0.9,0.35,0.55,2.35,10,initial,36.05,328,361,393,0,0,9,9,9,0,0,,,,,,,0,0,0,0,0,2,2,27,,,,,,,,,,,,num_3,1.5090532000176609,num_3,0.2,1.2,0.6,1.0,22.9233,38.2055,return,5.138980200048536,,,,,,,,,,,,,,,,,905,23,female,up_down_width,2024-10-15_18h36.47.989,exp1,2023.1.0,59.998584008666015,
,,,,,,,,,,,,,,,,5,8.2,9.1,10,10.9,11.8,0.9,0.35,0.55,4.15,10,initial,36.05,296,328,361,393,425,9,9,9,9,9,,,,,,,0,0,0,0,0,3,3,51,,,,,,,,,,,,num_4,2.2208010000176728,num_4,0.35,0.4,0.44999999999999996,0.7,17.19248,26.74385,return,4.1105863999109715,,,,,,,,,,,,,,,,,905,23,female,up_down_width,2024-10-15_18h36.47.989,exp1,2023.1.0,59.998584008666015,
,,,,,,,,,,,,,,,,5,8.2,9.1,10,10.9,11.8,0.9,0.35,0.55,4.15,10,initial,36.05,296,328,361,393,425,9,9,9,9,9,,,,,,,0,0,0,0,0,4,4,52,,,,,,,,,,,,num_4,1.5440037999069318,num_4,0.35,0.4,0.49999999999999994,0.8,19.10275,30.5644,return,7.17509010003414,,,,,,,,,,,,,,,,,905,23,female,up_down_width,2024-10-15_18h36.47.989,exp1,2023.1.0,59.998584008666015,
,,,,,,,,,,,,,,,,3,9.1,10,10.9,0,0,0.9,0.35,0.55,2.35,10,initial,36.05,328,361,393,0,0,9,9,9,0,0,,,,,,,0,0,0,0,0,5,5,6,,,,,,,,,,,,num_3,1.5812091000843793,num_3,0.2,0.7,0.49999999999999994,0.7,19.10275,26.74385,return,9.525084100081585,,,,,,,,,,,,,,,,,905,23,female,up_down_width,2024-10-15_18h36.47.989,exp1,2023.1.0,59.998584008666015,
,,,,,,,,,,,,,,,,3,9.1,10,10.9,0,0,0.9,0.35,0.55,2.35,10,initial,36.05,328,361,393,0,0,9,9,9,0,0,,,,,,,0,0,0,0,0,6,6,7,,,,,,,,,,,,num_3,1.591387000051327,num_3,0.55,1.1,0.6500000000000001,1.0,24.83358,38.2055,return,4.211438999976963,,,,,,,,,,,,,,,,,905,23,female,up_down_width,2024-10-15_18h36.47.989,exp1,2023.1.0,59.998584008666015,
,,,,,,,,,,,,,,,,4,8.65,9.55,10.45,11.35,0,0.9,0.35,0.55,3.25,10,initial,36.05,312,344,377,409,0,9,9,9,9,0,,,,,,,0,0,0,0,0,7,7,11,,,,,,,,,,,,num_4,2.2993139000609517,num_4,0.5,1.0,0.6000000000000001,0.8,22.9233,30.5644,return,4.874520400073379,,,,,,,,,,,,,,,,,905,23,female,up_down_width,2024-10-15_18h36.47.989,exp1,2023.1.0,59.998584008666015,
,,,,,,,,,,,,,,,,5,8.2,9.1,10,10.9,11.8,0.9,0.35,0.55,4.15,10,initial,36.05,296,328,361,393,425,9,9,9,9,9,,,,,,,0,0,0,0,0,8,8,23,,,,,,,,,,,,num_4,2.2365174000151455,num_4,0.25,0.7,0.44999999999999996,0.7,17.19248,26.74385,return,4.162015300011262,,,,,,,,,,,,,,,,,905,23,female,up_down_width,2024-10-15_18h36.47.989,exp1,2023.1.0,59.998584008666015,
,,,,,,,,,,,,,,,,4,8.65,9.55,10.45,11.35,0,0.9,0.35,0.55,3.25,10,initial,36.05,312,344,377,409,0,9,9,9,9,0,,,,,,,0,0,0,0,0,9,9,38,,,,,,,,,,,,num_4,1.9443572999443859,num_4,0.55,0.6,0.6000000000000001,0.8,22.9233,30.5644,return,7.127619699924253,,,,,,,,,,,,,,,,,905,23,female,up_down_width,2024-10-15_18h36.47.989,exp1,2023.1.0,59.998584008666015,
,,,,,,,,,,,,,,,,4,8.65,9.55,10.45,11.35,0,0.9,0.35,0.55,3.25,10,initial,36.05,312,344,377,409,0,9,9,9,9,0,,,,,,,0,0,0,0,0,10,10,41,,,,,,,,,,,,num_3,2.6342827000189573,num_3,0.4,0.8,0.55,0.75,21.01303,28.65413,return,3.4962245000060648,,,,,,,,,,,,,,,,,905,23,female,up_down_width,2024-10-15_18h36.47.989,exp1,2023.1.0,59.998584008666015,
,,,,,,,,,,,,,,,,5,8.2,9.1,10,10.9,11.8,0.9,0.35,0.55,4.15,10,initial,36.05,296,328,361,393,425,9,9,9,9,9,,,,,,,0,0,0,0,0,11,11,47,,,,,,,,,,,,num_4,1.3090087999589741,num_4,0.3,1.1,0.5499999999999999,0.9,21.01303,34.38495,return,4.1516648000106215,,,,,,,,,,,,,,,,,905,23,female,up_down_width,2024-10-15_18h36.47.989,exp1,2023.1.0,59.998584008666015,
,,,,,,,,,,,,,,,,3,9.1,10,10.9,0,0,0.9,0.35,0.55,2.35,10,initial,36.05,328,361,393,0,0,9,9,9,0,0,,,,,,,0,0,0,0,0,12,12,35,,,,,,,,,,,,num_3,1.3383178000804037,num_3,0.25,1,0.49999999999999994,0.85,19.10275,32.47468,return,4.580361399916001,,,,,,,,,,,,,,,,,905,23,female,up_down_width,2024-10-15_18h36.47.989,exp1,2023.1.0,59.998584008666015,
,,,,,,,,,,,,,,,,4,8.65,9.55,10.45,11.35,0,0.9,0.35,0.55,3.25,10,initial,36.05,312,344,377,409,0,9,9,9,9,0,,,,,,,0,0,0,0,0,13,13,16,,,,,,,,,,,,num_4,1.149368999991566,num_4,0.2,0.5,0.39999999999999997,0.7,15.2822,26.74385,return,5.338919599889778,,,,,,,,,,,,,,,,,905,23,female,up_down_width,2024-10-15_18h36.47.989,exp1,2023.1.0,59.998584008666015,
,,,,,,,,,,,,,,,,4,8.65,9.55,10.45,11.35,0,0.9,0.35,0.55,3.25,10,initial,36.05,312,344,377,409,0,9,9,9,9,0,,,,,,,0,0,0,0,0,14,14,9,,,,,,,,,,,,num_4,1.178734099958092,num_4,0.2,0.6,0.35,0.5,13.37193,19.10275,return,3.6557378999423236,,,,,,,,,,,,,,,,,905,23,female,up_down_width,2024-10-15_18h36.47.989,exp1,2023.1.0,59.998584008666015,
,,,,,,,,,,,,,,,,5,8.2,9.1,10,10.9,11.8,0.9,0.35,0.55,4.15,10,initial,36.05,296,328,361,393,425,9,9,9,9,9,,,,,,,0,0,0,0,0,15,15,25,,,,,,,,,,,,num_4,2.607806200045161,num_4,0.5,1.2,0.8000000000000003,1.2,30.5644,45.8466,return,9.697020799969323,,,,,,,,,,,,,,,,,905,23,female,up_down_width,2024-10-15_18h36.47.989,exp1,2023.1.0,59.998584008666015,
,,,,,,,,,,,,,,,,4,8.65,9.55,10.45,11.35,0,0.9,0.35,0.55,3.25,10,initial,36.05,312,344,377,409,0,9,9,9,9,0,,,,,,,0,0,0,0,0,16,16,37,,,,,,,,,,,,num_4,1.9074268999975175,num_4,0.45,0.6,0.6000000000000001,0.8,22.9233,30.5644,return,4.526740500004962,,,,,,,,,,,,,,,,,905,23,female,up_down_width,2024-10-15_18h36.47.989,exp1,2023.1.0,59.998584008666015,
,,,,,,,,,,,,,,,,3,9.1,10,10.9,0,0,0.9,0.35,0.55,2.35,10,initial,36.05,328,361,393,0,0,9,9,9,0,0,,,,,,,0,0,0,0,0,17,17,33,,,,,,,,,,,,num_3,1.1654439000412822,num_3,0.4,1,0.55,0.9,21.01303,34.38495,return,4.844161399989389,,,,,,,,,,,,,,,,,905,23,female,up_down_width,2024-10-15_18h36.47.989,exp1,2023.1.0,59.998584008666015,
,,,,,,,,,,,,,,,,5,8.2,9.1,10,10.9,11.8,0.9,0.35,0.55,4.15,10,initial,36.05,296,328,361,393,425,9,9,9,9,9,,,,,,,0,0,0,0,0,18,18,24,,,,,,,,,,,,num_4,1.437190799973905,num_4,0.3,0.3,0.5499999999999999,0.8,21.01303,30.5644,return,7.52018540003337,,,,,,,,,,,,,,,,,905,23,female,up_down_width,2024-10-15_18h36.47.989,exp1,2023.1.0,59.998584008666015,
,,,,,,,,,,,,,,,,3,9.1,10,10.9,0,0,0.9,0.35,0.55,2.35,10,initial,36.05,328,361,393,0,0,9,9,9,0,0,,,,,,,0,0,0,0,0,19,19,28,,,,,,,,,,,,num_3,1.1227985000004992,num_3,0.3,0.7,0.5499999999999999,0.8,21.01303,30.5644,return,6.4315946999704465,,,,,,,,,,,,,,,,,905,23,female,up_down_width,2024-10-15_18h36.47.989,exp1,2023.1.0,59.998584008666015,
,,,,,,,,,,,,,,,,4,8.65,9.55,10.45,11.35,0,0.9,0.35,0.55,3.25,10,initial,36.05,312,344,377,409,0,9,9,9,9,0,,,,,,,0,0,0,0,0,20,20,14,,,,,,,,,,,,num_4,1.253021499956958,num_4,0.25,1.0,0.65,1.0,24.83358,38.2055,return,6.859873999957927,,,,,,,,,,,,,,,,,905,23,female,up_down_width,2024-10-15_18h36.47.989,exp1,2023.1.0,59.998584008666015,
,,,,,,,,,,,,,,,,5,8.2,9.1,10,10.9,11.8,0.9,0.35,0.55,4.15,10,initial,36.05,296,328,361,393,425,9,9,9,9,9,,,,,,,0,0,0,0,0,21,21,21,,,,,,,,,,,,num_4,1.265863599954173,num_4,0.35,0.4,0.6,0.9,22.9233,34.38495,return,6.780609200010076,,,,,,,,,,,,,,,,,905,23,female,up_down_width,2024-10-15_18h36.47.989,exp1,2023.1.0,59.998584008666015,
,,,,,,,,,,,,,,,,4,8.65,9.55,10.45,11.35,0,0.9,0.35,0.55,3.25,10,initial,36.05,312,344,377,409,0,9,9,9,9,0,,,,,,,0,0,0,0,0,22,22,10,,,,,,,,,,,,num_4,1.3052425000350922,num_4,0.3,0.8,0.49999999999999994,0.7,19.10275,26.74385,return,3.213395299972035,,,,,,,,,,,,,,,,,905,23,female,up_down_width,2024-10-15_18h36.47.989,exp1,2023.1.0,59.998584008666015,
,,,,,,,,,,,,,,,,3,9.1,10,10.9,0,0,0.9,0.35,0.55,2.35,10,initial,36.05,328,361,393,0,0,9,9,9,0,0,,,,,,,0,0,0,0,0,23,23,2,,,,,,,,,,,,num_3,1.5199146999511868,num_3,0.35,0.8,0.5499999999999999,0.85,21.01303,32.47468,return,2.7497434000251815,,,,,,,,,,,,,,,,,905,23,female,up_down_width,2024-10-15_18h36.47.989,exp1,2023.1.0,59.998584008666015,
,,,,,,,,,,,,,,,,4,8.65,9.55,10.45,11.35,0,0.9,0.35,0.55,3.25,10,initial,36.05,312,344,377,409,0,9,9,9,9,0,,,,,,,0,0,0,0,0,24,24,36,,,,,,,,,,,,num_4,1.472544000018388,num_4,0.25,0.5,0.44999999999999996,0.7,17.19248,26.74385,return,3.089303100015968,,,,,,,,,,,,,,,,,905,23,female,up_down_width,2024-10-15_18h36.47.989,exp1,2023.1.0,59.998584008666015,
,,,,,,,,,,,,,,,,3,9.1,10,10.9,0,0,0.9,0.35,0.55,2.35,10,initial,36.05,328,361,393,0,0,9,9,9,0,0,,,,,,,0,0,0,0,0,25,25,1,,,,,,,,,,,,num_3,1.1906280999537557,num_3,0.4,0.5,0.45,0.65,17.19248,24.83358,return,5.359402499976568,,,,,,,,,,,,,,,,,905,23,female,up_down_width,2024-10-15_18h36.47.989,exp1,2023.1.0,59.998584008666015,
,,,,,,,,,,,,,,,,3,9.1,10,10.9,0,0,0.9,0.35,0.55,2.35,10,initial,36.05,328,361,393,0,0,9,9,9,0,0,,,,,,,0,0,0,0,0,26,26,34,,,,,,,,,,,,num_3,1.0151121999369934,num_3,0.35,0.8,0.5499999999999999,0.85,21.01303,32.47468,return,2.5881608999334276,,,,,,,,,,,,,,,,,905,23,female,up_down_width,2024-10-15_18h36.47.989,exp1,2023.1.0,59.998584008666015,
,,,,,,,,,,,,,,,,5,8.2,9.1,10,10.9,11.8,0.9,0.35,0.55,4.15,10,initial,36.05,296,328,361,393,425,9,9,9,9,9,,,,,,,0,0,0,0,0,27,27,53,,,,,,,,,,,,num_4,0.9685601000674069,num_4,0.3,0.4,0.49999999999999994,0.8,19.10275,30.5644,return,5.295756199979223,,,,,,,,,,,,,,,,,905,23,female,up_down_width,2024-10-15_18h36.47.989,exp1,2023.1.0,59.998584008666015,
,,,,,,,,,,,,,,,,4,8.65,9.55,10.45,11.35,0,0.9,0.35,0.55,3.25,10,initial,36.05,312,344,377,409,0,9,9,9,9,0,,,,,,,0,0,0,0,0,28,28,12,,,,,,,,,,,,num_3,1.4444536999799311,num_3,0.2,1,0.5499999999999999,0.9,21.01303,34.38495,return,5.556983000016771,,,,,,,,,,,,,,,,,905,23,female,up_down_width,2024-10-15_18h36.47.989,exp1,2023.1.0,59.998584008666015,
,,,,,,,,,,,,,,,,3,9.1,10,10.9,0,0,0.9,0.35,0.55,2.35,10,initial,36.05,328,361,393,0,0,9,9,9,0,0,,,,,,,0,0,0,0,0,29,29,5,,,,,,,,,,,,num_3,1.1604184000752866,num_3,0.3,1,0.6,0.95,22.9233,36.29523,return,3.6242235000245273,,,,,,,,,,,,,,,,,905,23,female,up_down_width,2024-10-15_18h36.47.989,exp1,2023.1.0,59.998584008666015,
,,,,,,,,,,,,,,,,5,8.2,9.1,10,10.9,11.8,0.9,0.35,0.55,4.15,10,initial,36.05,296,328,361,393,425,9,9,9,9,9,,,,,,,0,0,0,0,0,30,30,20,,,,,,,,,,,,num_4,1.220636999933049,num_4,0.3,0.9,0.5499999999999999,0.8,21.01303,30.5644,return,3.4540708999847993,,,,,,,,,,,,,,,,,905,23,female,up_down_width,2024-10-15_18h36.47.989,exp1,2023.1.0,59.998584008666015,
,,,,,,,,,,,,,,,,5,8.2,9.1,10,10.9,11.8,0.9,0.35,0.55,4.15,10,initial,36.05,296,328,361,393,425,9,9,9,9,9,,,,,,,0,0,0,0,0,31,31,26,,,,,,,,,,,,num_4,1.3213119000429288,num_4,0.5,1.1,0.6000000000000001,0.9,22.9233,34.38495,return,7.027330000069924,,,,,,,,,,,,,,,,,905,23,female,up_down_width,2024-10-15_18h36.47.989,exp1,2023.1.0,59.998584008666015,
,,,,,,,,,,,,,,,,3,9.1,10,10.9,0,0,0.9,0.35,0.55,2.35,10,initial,36.05,328,361,393,0,0,9,9,9,0,0,,,,,,,0,0,0,0,0,32,32,31,,,,,,,,,,,,num_3,1.8022212999640033,num_3,0.3,1.2,0.6,1.05,22.9233,40.11578,return,5.023174399975687,,,,,,,,,,,,,,,,,905,23,female,up_down_width,2024-10-15_18h36.47.989,exp1,2023.1.0,59.998584008666015,
,,,,,,,,,,,,,,,,4,8.65,9.55,10.45,11.35,0,0.9,0.35,0.55,3.25,10,initial,36.05,312,344,377,409,0,9,9,9,9,0,,,,,,,0,0,0,0,0,33,33,44,,,,,,,,,,,,num_4,1.4500117000425234,num_4,0.25,0.9,0.6,1.0,22.9233,38.2055,return,4.366917199920863,,,,,,,,,,,,,,,,,905,23,female,up_down_width,2024-10-15_18h36.47.989,exp1,2023.1.0,59.998584008666015,
,,,,,,,,,,,,,,,,5,8.2,9.1,10,10.9,11.8,0.9,0.35,0.55,4.15,10,initial,36.05,296,328,361,393,425,9,9,9,9,9,,,,,,,0,0,0,0,0,34,34,48,,,,,,,,,,,,num_4,1.0917395000578836,num_4,0.3,0.6,0.44999999999999996,0.7,17.19248,26.74385,return,3.7117707000579685,,,,,,,,,,,,,,,,,905,23,female,up_down_width,2024-10-15_18h36.47.989,exp1,2023.1.0,59.998584008666015,
,,,,,,,,,,,,,,,,3,9.1,10,10.9,0,0,0.9,0.35,0.55,2.35,10,initial,36.05,328,361,393,0,0,9,9,9,0,0,,,,,,,0,0,0,0,0,35,35,32,,,,,,,,,,,,num_3,1.0357321000192314,num_3,0.45,0.9,0.6000000000000001,0.9,22.9233,34.38495,return,1.473577699973248,,,,,,,,,,,,,,,,,905,23,female,up_down_width,2024-10-15_18h36.47.989,exp1,2023.1.0,59.998584008666015,
,,,,,,,,,,,,,,,,3,9.1,10,10.9,0,0,0.9,0.35,0.55,2.35,10,initial,36.05,328,361,393,0,0,9,9,9,0,0,,,,,,,0,0,0,0,0,36,36,4,,,,,,,,,,,,num_3,1.0010883000213653,num_3,0.25,1.1,0.49999999999999994,1.1,19.10275,42.02605,return,5.232217699987814,,,,,,,,,,,,,,,,,905,23,female,up_down_width,2024-10-15_18h36.47.989,exp1,2023.1.0,59.998584008666015,
,,,,,,,,,,,,,,,,4,8.65,9.55,10.45,11.35,0,0.9,0.35,0.55,3.25,10,initial,36.05,312,344,377,409,0,9,9,9,9,0,,,,,,,0,0,0,0,0,37,37,39,,,,,,,,,,,,num_3,0.966011599986814,num_3,0.3,0.5,0.39999999999999997,0.7,15.2822,26.74385,return,8.281891999999061,,,,,,,,,,,,,,,,,905,23,female,up_down_width,2024-10-15_18h36.47.989,exp1,2023.1.0,59.998584008666015,
,,,,,,,,,,,,,,,,5,8.2,9.1,10,10.9,11.8,0.9,0.35,0.55,4.15,10,initial,36.05,296,328,361,393,425,9,9,9,9,9,,,,,,,0,0,0,0,0,38,38,19,,,,,,,,,,,,num_4,1.3081068000756204,num_4,0.55,0.7,0.6500000000000001,0.9,24.83358,34.38495,return,3.9712197999469936,,,,,,,,,,,,,,,,,905,23,female,up_down_width,2024-10-15_18h36.47.989,exp1,2023.1.0,59.998584008666015,
,,,,,,,,,,,,,,,,4,8.65,9.55,10.45,11.35,0,0.9,0.35,0.55,3.25,10,initial,36.05,312,344,377,409,0,9,9,9,9,0,,,,,,,0,0,0,0,0,39,39,42,,,,,,,,,,,,num_4,0.9712913999101147,num_4,0.35,0.8,0.49999999999999994,0.7,19.10275,26.74385,return,5.18208450009115,,,,,,,,,,,,,,,,,905,23,female,up_down_width,2024-10-15_18h36.47.989,exp1,2023.1.0,59.998584008666015,
,,,,,,,,,,,,,,,,4,8.65,9.55,10.45,11.35,0,0.9,0.35,0.55,3.25,10,initial,36.05,312,344,377,409,0,9,9,9,9,0,,,,,,,0,0,0,0,0,40,40,13,,,,,,,,,,,,num_3,1.3097154999850318,num_3,0.5,1.3,0.6500000000000001,1.25,24.83358,47.75688,return,2.9199255000567064,,,,,,,,,,,,,,,,,905,23,female,up_down_width,2024-10-15_18h36.47.989,exp1,2023.1.0,59.998584008666015,
,,,,,,,,,,,,,,,,4,8.65,9.55,10.45,11.35,0,0.9,0.35,0.55,3.25,10,initial,36.05,312,344,377,409,0,9,9,9,9,0,,,,,,,0,0,0,0,0,41,41,15,,,,,,,,,,,,num_3,1.0519789999816567,num_3,0.45,0.9,0.6000000000000001,0.9,22.9233,34.38495,return,2.0755834999727085,,,,,,,,,,,,,,,,,905,23,female,up_down_width,2024-10-15_18h36.47.989,exp1,2023.1.0,59.998584008666015,
,,,,,,,,,,,,,,,,3,9.1,10,10.9,0,0,0.9,0.35,0.55,2.35,10,initial,36.05,328,361,393,0,0,9,9,9,0,0,,,,,,,0,0,0,0,0,42,42,3,,,,,,,,,,,,num_3,1.1157975000096485,num_3,0.3,0.7,0.44999999999999996,0.6,17.19248,22.9233,return,4.743268299964257,,,,,,,,,,,,,,,,,905,23,female,up_down_width,2024-10-15_18h36.47.989,exp1,2023.1.0,59.998584008666015,
,,,,,,,,,,,,,,,,3,9.1,10,10.9,0,0,0.9,0.35,0.55,2.35,10,initial,36.05,328,361,393,0,0,9,9,9,0,0,,,,,,,0,0,0,0,0,43,43,29,,,,,,,,,,,,num_3,1.13280110002961,num_3,0.55,0.6,0.6000000000000001,0.75,22.9233,28.65413,return,3.2090433000121266,,,,,,,,,,,,,,,,,905,23,female,up_down_width,2024-10-15_18h36.47.989,exp1,2023.1.0,59.998584008666015,
,,,,,,,,,,,,,,,,4,8.65,9.55,10.45,11.35,0,0.9,0.35,0.55,3.25,10,initial,36.05,312,344,377,409,0,9,9,9,9,0,,,,,,,0,0,0,0,0,44,44,43,,,,,,,,,,,,num_3,0.9513240000233054,num_3,0.2,0.4,0.5499999999999999,0.85,21.01303,32.47468,return,8.636702600051649,,,,,,,,,,,,,,,,,905,23,female,up_down_width,2024-10-15_18h36.47.989,exp1,2023.1.0,59.998584008666015,
,,,,,,,,,,,,,,,,5,8.2,9.1,10,10.9,11.8,0.9,0.35,0.55,4.15,10,initial,36.05,296,328,361,393,425,9,9,9,9,9,,,,,,,0,0,0,0,0,45,45,45,,,,,,,,,,,,num_4,1.2300502000143752,num_4,0.5,0.6,0.6500000000000001,0.9,24.83358,34.38495,return,6.732735400088131,,,,,,,,,,,,,,,,,905,23,female,up_down_width,2024-10-15_18h36.47.989,exp1,2023.1.0,59.998584008666015,
,,,,,,,,,,,,,,,,4,8.65,9.55,10.45,11.35,0,0.9,0.35,0.55,3.25,10,initial,36.05,312,344,377,409,0,9,9,9,9,0,,,,,,,0,0,0,0,0,46,46,17,,,,,,,,,,,,num_4,1.234910300001502,num_4,0.25,1.1,0.6,0.8,22.9233,30.5644,return,4.623223500093445,,,,,,,,,,,,,,,,,905,23,female,up_down_width,2024-10-15_18h36.47.989,exp1,2023.1.0,59.998584008666015,
,,,,,,,,,,,,,,,,5,8.2,9.1,10,10.9,11.8,0.9,0.35,0.55,4.15,10,initial,36.05,296,328,361,393,425,9,9,9,9,9,,,,,,,0,0,0,0,0,47,47,50,,,,,,,,,,,,num_5,1.4155544999521226,num_5,0.4,0.7,0.55,0.8,21.01303,30.5644,return,3.1307984000304714,,,,,,,,,,,,,,,,,905,23,female,up_down_width,2024-10-15_18h36.47.989,exp1,2023.1.0,59.998584008666015,
,,,,,,,,,,,,,,,,5,8.2,9.1,10,10.9,11.8,0.9,0.35,0.55,4.15,10,initial,36.05,296,328,361,393,425,9,9,9,9,9,,,,,,,0,0,0,0,0,48,48,18,,,,,,,,,,,,num_4,1.9760660999454558,num_4,0.45,1.0,0.6500000000000001,1.0,24.83358,38.2055,return,4.865765499998815,,,,,,,,,,,,,,,,,905,23,female,up_down_width,2024-10-15_18h36.47.989,exp1,2023.1.0,59.998584008666015,
,,,,,,,,,,,,,,,,4,8.65,9.55,10.45,11.35,0,0.9,0.35,0.55,3.25,10,initial,36.05,312,344,377,409,0,9,9,9,9,0,,,,,,,0,0,0,0,0,49,49,40,,,,,,,,,,,,num_4,1.7783309000078589,num_4,0.35,1.3,0.7000000000000001,1.2,26.74385,45.8466,return,3.7212642000522465,,,,,,,,,,,,,,,,,905,23,female,up_down_width,2024-10-15_18h36.47.989,exp1,2023.1.0,59.998584008666015,
,,,,,,,,,,,,,,,,5,8.2,9.1,10,10.9,11.8,0.9,0.35,0.55,4.15,10,initial,36.05,296,328,361,393,425,9,9,9,9,9,,,,,,,0,0,0,0,0,50,50,46,,,,,,,,,,,,num_4,1.0996223000111058,num_4,0.3,0.3,0.6,1.0,22.9233,38.2055,return,5.992289899964817,,,,,,,,,,,,,,,,,905,23,female,up_down_width,2024-10-15_18h36.47.989,exp1,2023.1.0,59.998584008666015,
,,,,,,,,,,,,,,,,3,9.1,10,10.9,0,0,0.9,0.35,0.55,2.35,10,initial,36.05,328,361,393,0,0,9,9,9,0,0,,,,,,,0,0,0,0,0,51,51,30,,,,,,,,,,,,num_3,1.452087799902074,num_3,0.35,0.8,0.5499999999999999,0.8,21.01303,30.5644,return,3.0849195000482723,,,,,,,,,,,,,,,,,905,23,female,up_down_width,2024-10-15_18h36.47.989,exp1,2023.1.0,59.998584008666015,
,,,,,,,,,,,,,,,,5,8.2,9.1,10,10.9,11.8,0.9,0.35,0.55,4.15,10,initial,36.05,296,328,361,393,425,9,9,9,9,9,,,,,,,0,0,0,0,0,52,52,22,,,,,,,,,,,,num_4,1.3404277000809088,num_4,0.45,0.8,0.6000000000000001,0.9,22.9233,34.38495,return,2.995752399903722,,,,,,,,,,,,,,,,,905,23,female,up_down_width,2024-10-15_18h36.47.989,exp1,2023.1.0,59.998584008666015,
,,,,,,,,,,,,,,,,3,9.1,10,10.9,0,0,0.9,0.35,0.55,2.35,10,initial,36.05,328,361,393,0,0,9,9,9,0,0,,,,,,,0,0,0,0,0,53,53,8,,,,,,,,,,,,num_3,1.0563818000955507,num_3,0.25,1.2,0.5499999999999999,1.05,21.01303,40.11578,return,5.039453500066884,,,,,,,,,,,,,,,,,905,23,female,up_down_width,2024-10-15_18h36.47.989,exp1,2023.1.0,59.998584008666015,
,,,,,,,,,,,,,,,,,,,,,,,,,,,,,,,,,,,,,,,,,,,,,0,0,0,0,,,,,,,,,,,,,,,,,,,,,,,,,,,,,1036.6062436000211,1036.6062436000211,1036.6062436000211,,,,,,,,,,,,905,23,female,up_down_width,2024-10-15_18h36.47.989,exp1,2023.1.0,59.998584008666015,
,,,,,,,,,,,,,,,,5,9,9.5,10,10.5,11,0.5,0.25,0.25,2.25,10,initial,36.05,324,342,361,379,397,9,9,9,9,9,,,,,,,1,0,1,0,0,0,0,24,,,,,,,,,,,,num_4,1.0787283000536263,num_4,0.55,0.8,0.30000000000000004,1.0,11.46165,38.2055,return,4.070776700042188,,,,,,,,,,,,,,,,,905,23,female,up_down_width,2024-10-15_18h36.47.989,exp1,2023.1.0,59.998584008666015,
,,,,,,,,,,,,,,,,3,9.5,10,10.5,0,0,0.5,0.25,0.25,1.25,10,initial,36.05,342,361,379,0,0,9,9,9,0,0,,,,,,,1,0,1,0,0,1,1,3,,,,,,,,,,,,num_2,1.134093499975279,num_2,0.5,1.4,0.30000000000000004,1.2,11.46165,45.8466,return,4.735276099992916,,,,,,,,,,,,,,,,,905,23,female,up_down_width,2024-10-15_18h36.47.989,exp1,2023.1.0,59.998584008666015,
,,,,,,,,,,,,,,,,4,9.25,9.75,10.25,10.75,0,0.5,0.25,0.25,1.75,10,initial,36.05,333,351,370,388,0,9,9,9,9,0,,,,,,,1,0,1,0,0,2,2,14,,,,,,,,,,,,num_3,1.0145837999880314,num_3,0.3,0.4,0.3,0.65,11.46165,24.83358,return,2.1878389000194147,,,,,,,,,,,,,,,,,905,23,female,up_down_width,2024-10-15_18h36.47.989,exp1,2023.1.0,59.998584008666015,
,,,,,,,,,,,,,,,,4,9.25,9.75,10.25,10.75,0,0.5,0.25,0.25,1.75,10,initial,36.05,333,351,370,388,0,9,9,9,9,0,,,,,,,1,0,1,0,0,3,3,15,,,,,,,,,,,,num_3,1.7821998000144958,num_3,0.2,0.4,0.25,0.7,9.55138,26.74385,return,6.282734500011429,,,,,,,,,,,,,,,,,905,23,female,up_down_width,2024-10-15_18h36.47.989,exp1,2023.1.0,59.998584008666015,
,,,,,,,,,,,,,,,,4,9.25,9.75,10.25,10.75,0,0.5,0.25,0.25,1.75,10,initial,36.05,333,351,370,388,0,9,9,9,9,0,,,,,,,1,0,1,0,0,4,4,44,,,,,,,,,,,,num_3,1.0942120999097824,num_3,0.5,1.2,0.20000000000000007,1.1,7.6411,42.02605,return,5.25717130000703,,,,,,,,,,,,,,,,,905,23,female,up_down_width,2024-10-15_18h36.47.989,exp1,2023.1.0,59.998584008666015,
,,,,,,,,,,,,,,,,3,9.5,10,10.5,0,0,0.5,0.25,0.25,1.25,10,initial,36.05,342,361,379,0,0,9,9,9,0,0,,,,,,,1,0,1,0,0,5,5,7,,,,,,,,,,,,num_3,1.0726838000118732,num_3,0.55,1,0.30000000000000004,0.7,11.46165,26.74385,return,5.409728599945083,,,,,,,,,,,,,,,,,905,23,female,up_down_width,2024-10-15_18h36.47.989,exp1,2023.1.0,59.998584008666015,
,,,,,,,,,,,,,,,,4,9.25,9.75,10.25,10.75,0,0.5,0.25,0.25,1.75,10,initial,36.05,333,351,370,388,0,9,9,9,9,0,,,,,,,1,0,1,0,0,6,6,16,,,,,,,,,,,,num_3,1.2411246999399737,num_3,0.55,0.9,0.25000000000000006,0.7,9.55138,26.74385,return,4.175702199921943,,,,,,,,,,,,,,,,,905,23,female,up_down_width,2024-10-15_18h36.47.989,exp1,2023.1.0,59.998584008666015,
,,,,,,,,,,,,,,,,4,9.25,9.75,10.25,10.75,0,0.5,0.25,0.25,1.75,10,initial,36.05,333,351,370,388,0,9,9,9,9,0,,,,,,,1,0,1,0,0,7,7,10,,,,,,,,,,,,num_3,0.9680893999757245,num_3,0.25,0.5,0.25,0.5,9.55138,19.10275,return,0.9384664999088272,,,,,,,,,,,,,,,,,905,23,female,up_down_width,2024-10-15_18h36.47.989,exp1,2023.1.0,59.998584008666015,
,,,,,,,,,,,,,,,,3,9.5,10,10.5,0,0,0.5,0.25,0.25,1.25,10,initial,36.05,342,361,379,0,0,9,9,9,0,0,,,,,,,1,0,1,0,0,8,8,0,,,,,,,,,,,,num_2,1.149260799982585,num_2,0.45,0.6,0.30000000000000004,0.6,11.46165,22.9233,return,7.647267899941653,,,,,,,,,,,,,,,,,905,23,female,up_down_width,2024-10-15_18h36.47.989,exp1,2023.1.0,59.998584008666015,
,,,,,,,,,,,,,,,,4,9.25,9.75,10.25,10.75,0,0.5,0.25,0.25,1.75,10,initial,36.05,333,351,370,388,0,9,9,9,9,0,,,,,,,1,0,1,0,0,9,9,17,,,,,,,,,,,,num_3,1.0824932999676093,num_3,0.3,0.7,0.3,0.7,11.46165,26.74385,return,3.6438616999657825,,,,,,,,,,,,,,,,,905,23,female,up_down_width,2024-10-15_18h36.47.989,exp1,2023.1.0,59.998584008666015,
,,,,,,,,,,,,,,,,3,9.5,10,10.5,0,0,0.5,0.25,0.25,1.25,10,initial,36.05,342,361,379,0,0,9,9,9,0,0,,,,,,,1,0,1,0,0,10,10,28,,,,,,,,,,,,num_3,1.0430760000599548,num_3,0.25,0.8,0.25,0.85,9.55138,32.47468,return,2.6007017999654636,,,,,,,,,,,,,,,,,905,23,female,up_down_width,2024-10-15_18h36.47.989,exp1,2023.1.0,59.998584008666015,
,,,,,,,,,,,,,,,,3,9.5,10,10.5,0,0,0.5,0.25,0.25,1.25,10,initial,36.05,342,361,379,0,0,9,9,9,0,0,,,,,,,1,0,1,0,0,11,11,30,,,,,,,,,,,,num_2,1.076163199963048,num_2,0.5,1.6,0.25000000000000006,1.4,9.55138,53.48771,return,3.683464500005357,,,,,,,,,,,,,,,,,905,23,female,up_down_width,2024-10-15_18h36.47.989,exp1,2023.1.0,59.998584008666015,
,,,,,,,,,,,,,,,,5,9,9.5,10,10.5,11,0.5,0.25,0.25,2.25,10,initial,36.05,324,342,361,379,397,9,9,9,9,9,,,,,,,1,0,1,0,0,12,12,26,,,,,,,,,,,,num_4,1.1112702999962494,num_4,0.2,0.5,0.2,0.7,7.6411,26.74385,return,4.92952340003103,,,,,,,,,,,,,,,,,905,23,female,up_down_width,2024-10-15_18h36.47.989,exp1,2023.1.0,59.998584008666015,
,,,,,,,,,,,,,,,,5,9,9.5,10,10.5,11,0.5,0.25,0.25,2.25,10,initial,36.05,324,342,361,379,397,9,9,9,9,9,,,,,,,1,0,1,0,0,13,13,21,,,,,,,,,,,,num_4,1.0051395000191405,num_4,0.3,0.6,0.10000000000000002,0.9,3.82055,34.38495,return,6.634254299919121,,,,,,,,,,,,,,,,,905,23,female,up_down_width,2024-10-15_18h36.47.989,exp1,2023.1.0,59.998584008666015,
,,,,,,,,,,,,,,,,3,9.5,10,10.5,0,0,0.5,0.25,0.25,1.25,10,initial,36.05,342,361,379,0,0,9,9,9,0,0,,,,,,,1,0,1,0,0,14,14,35,,,,,,,,,,,,num_3,1.249333499930799,num_3,0.3,1.3,0.2,0.95,7.6411,36.29523,return,6.023547999910079,,,,,,,,,,,,,,,,,905,23,female,up_down_width,2024-10-15_18h36.47.989,exp1,2023.1.0,59.998584008666015,
,,,,,,,,,,,,,,,,3,9.5,10,10.5,0,0,0.5,0.25,0.25,1.25,10,initial,36.05,342,361,379,0,0,9,9,9,0,0,,,,,,,1,0,1,0,0,15,15,29,,,,,,,,,,,,num_3,0.8963939000386745,num_3,0.3,0.9,0.15000000000000002,0.75,5.73083,28.65413,return,3.9753054999746382,,,,,,,,,,,,,,,,,905,23,female,up_down_width,2024-10-15_18h36.47.989,exp1,2023.1.0,59.998584008666015,
,,,,,,,,,,,,,,,,3,9.5,10,10.5,0,0,0.5,0.25,0.25,1.25,10,initial,36.05,342,361,379,0,0,9,9,9,0,0,,,,,,,1,0,1,0,0,16,16,8,,,,,,,,,,,,num_3,1.86552190000657,num_3,0.25,1.2,0.2,0.85,7.6411,32.47468,return,7.630912099964917,,,,,,,,,,,,,,,,,905,23,female,up_down_width,2024-10-15_18h36.47.989,exp1,2023.1.0,59.998584008666015,
,,,,,,,,,,,,,,,,5,9,9.5,10,10.5,11,0.5,0.25,0.25,2.25,10,initial,36.05,324,342,361,379,397,9,9,9,9,9,,,,,,,1,0,1,0,0,17,17,53,,,,,,,,,,,,num_4,1.7640496999956667,num_4,0.3,1.3,0.25,0.7,9.55138,26.74385,return,6.424846299923956,,,,,,,,,,,,,,,,,905,23,female,up_down_width,2024-10-15_18h36.47.989,exp1,2023.1.0,59.998584008666015,
,,,,,,,,,,,,,,,,4,9.25,9.75,10.25,10.75,0,0.5,0.25,0.25,1.75,10,initial,36.05,333,351,370,388,0,9,9,9,9,0,,,,,,,1,0,1,0,0,18,18,11,,,,,,,,,,,,num_3,1.468677599914372,num_3,0.35,1.2,0.2,0.85,7.6411,32.47468,return,8.776828999980353,,,,,,,,,,,,,,,,,905,23,female,up_down_width,2024-10-15_18h36.47.989,exp1,2023.1.0,59.998584008666015,
,,,,,,,,,,,,,,,,3,9.5,10,10.5,0,0,0.5,0.25,0.25,1.25,10,initial,36.05,342,361,379,0,0,9,9,9,0,0,,,,,,,1,0,1,0,0,19,19,2,,,,,,,,,,,,num_2,2.063323699985631,num_2,0.4,0.6,0.25000000000000006,0.7,9.55138,26.74385,return,2.6767483999719843,,,,,,,,,,,,,,,,,905,23,female,up_down_width,2024-10-15_18h36.47.989,exp1,2023.1.0,59.998584008666015,
,,,,,,,,,,,,,,,,4,9.25,9.75,10.25,10.75,0,0.5,0.25,0.25,1.75,10,initial,36.05,333,351,370,388,0,9,9,9,9,0,,,,,,,1,0,1,0,0,20,20,13,,,,,,,,,,,,num_3,1.223823199979961,num_3,0.2,0.5,0.25,0.55,9.55138,21.01303,return,3.8575306999264285,,,,,,,,,,,,,,,,,905,23,female,up_down_width,2024-10-15_18h36.47.989,exp1,2023.1.0,59.998584008666015,
,,,,,,,,,,,,,,,,5,9,9.5,10,10.5,11,0.5,0.25,0.25,2.25,10,initial,36.05,324,342,361,379,397,9,9,9,9,9,,,,,,,1,0,1,0,0,21,21,49,,,,,,,,,,,,num_4,1.0424765000352636,num_4,0.2,1.2,0.3,0.9,11.46165,34.38495,return,3.8114309000084177,,,,,,,,,,,,,,,,,905,23,female,up_down_width,2024-10-15_18h36.47.989,exp1,2023.1.0,59.998584008666015,
,,,,,,,,,,,,,,,,5,9,9.5,10,10.5,11,0.5,0.25,0.25,2.25,10,initial,36.05,324,342,361,379,397,9,9,9,9,9,,,,,,,1,0,1,0,0,22,22,20,,,,,,,,,,,,num_4,1.219104600022547,num_4,0.35,1.1,0.25,0.7,9.55138,26.74385,return,4.751626000041142,,,,,,,,,,,,,,,,,905,23,female,up_down_width,2024-10-15_18h36.47.989,exp1,2023.1.0,59.998584008666015,
,,,,,,,,,,,,,,,,3,9.5,10,10.5,0,0,0.5,0.25,0.25,1.25,10,initial,36.05,342,361,379,0,0,9,9,9,0,0,,,,,,,1,0,1,0,0,23,23,5,,,,,,,,,,,,num_3,1.1350336999166757,num_3,0.55,1.1,0.30000000000000004,0.8,11.46165,30.5644,return,5.0695892999647185,,,,,,,,,,,,,,,,,905,23,female,up_down_width,2024-10-15_18h36.47.989,exp1,2023.1.0,59.998584008666015,
,,,,,,,,,,,,,,,,5,9,9.5,10,10.5,11,0.5,0.25,0.25,2.25,10,initial,36.05,324,342,361,379,397,9,9,9,9,9,,,,,,,1,0,1,0,0,24,24,23,,,,,,,,,,,,num_3,3.1240359999937937,num_3,0.25,1.1,0.3,0.8,11.46165,30.5644,return,6.512059799977578,,,,,,,,,,,,,,,,,905,23,female,up_down_width,2024-10-15_18h36.47.989,exp1,2023.1.0,59.998584008666015,
,,,,,,,,,,,,,,,,5,9,9.5,10,10.5,11,0.5,0.25,0.25,2.25,10,initial,36.05,324,342,361,379,397,9,9,9,9,9,,,,,,,1,0,1,0,0,25,25,46,,,,,,,,,,,,num_4,1.0760055999271572,num_4,0.4,1.3,0.30000000000000004,0.7,11.46165,26.74385,return,5.57245660002809,,,,,,,,,,,,,,,,,905,23,female,up_down_width,2024-10-15_18h36.47.989,exp1,2023.1.0,59.998584008666015,
,,,,,,,,,,,,,,,,5,9,9.5,10,10.5,11,0.5,0.25,0.25,2.25,10,initial,36.05,324,342,361,379,397,9,9,9,9,9,,,,,,,1,0,1,0,0,26,26,47,,,,,,,,,,,,num_4,1.02665019989945,num_4,0.3,0.9,0.3,0.7,11.46165,26.74385,return,4.663058600039221,,,,,,,,,,,,,,,,,905,23,female,up_down_width,2024-10-15_18h36.47.989,exp1,2023.1.0,59.998584008666015,
,,,,,,,,,,,,,,,,4,9.25,9.75,10.25,10.75,0,0.5,0.25,0.25,1.75,10,initial,36.05,333,351,370,388,0,9,9,9,9,0,,,,,,,1,0,1,0,0,27,27,43,,,,,,,,,,,,num_3,1.6385257999645546,num_3,0.45,1.1,0.35000000000000003,1.0,13.37193,38.2055,return,3.0436767999781296,,,,,,,,,,,,,,,,,905,23,female,up_down_width,2024-10-15_18h36.47.989,exp1,2023.1.0,59.998584008666015,
,,,,,,,,,,,,,,,,3,9.5,10,10.5,0,0,0.5,0.25,0.25,1.25,10,initial,36.05,342,361,379,0,0,9,9,9,0,0,,,,,,,1,0,1,0,0,28,28,32,,,,,,,,,,,,num_2,1.0349540000315756,num_2,0.4,1.0,0.35000000000000003,0.6,13.37193,22.9233,return,5.548221999895759,,,,,,,,,,,,,,,,,905,23,female,up_down_width,2024-10-15_18h36.47.989,exp1,2023.1.0,59.998584008666015,
,,,,,,,,,,,,,,,,5,9,9.5,10,10.5,11,0.5,0.25,0.25,2.25,10,initial,36.05,324,342,361,379,397,9,9,9,9,9,,,,,,,1,0,1,0,0,29,29,52,,,,,,,,,,,,num_4,1.0918867000145838,num_4,0.25,1.3,0.25,0.7,9.55138,26.74385,return,6.838329799938947,,,,,,,,,,,,,,,,,905,23,female,up_down_width,2024-10-15_18h36.47.989,exp1,2023.1.0,59.998584008666015,
,,,,,,,,,,,,,,,,4,9.25,9.75,10.25,10.75,0,0.5,0.25,0.25,1.75,10,initial,36.05,333,351,370,388,0,9,9,9,9,0,,,,,,,1,0,1,0,0,30,30,41,,,,,,,,,,,,num_3,1.2467174999183044,num_3,0.4,1.2,0.30000000000000004,0.8,11.46165,30.5644,return,6.055304000037722,,,,,,,,,,,,,,,,,905,23,female,up_down_width,2024-10-15_18h36.47.989,exp1,2023.1.0,59.998584008666015,
,,,,,,,,,,,,,,,,4,9.25,9.75,10.25,10.75,0,0.5,0.25,0.25,1.75,10,initial,36.05,333,351,370,388,0,9,9,9,9,0,,,,,,,1,0,1,0,0,31,31,42,,,,,,,,,,,,num_3,1.1808074000291526,num_3,0.25,0.4,0.3,0.7,11.46165,26.74385,return,4.312660200055689,,,,,,,,,,,,,,,,,905,23,female,up_down_width,2024-10-15_18h36.47.989,exp1,2023.1.0,59.998584008666015,
,,,,,,,,,,,,,,,,4,9.25,9.75,10.25,10.75,0,0.5,0.25,0.25,1.75,10,initial,36.05,333,351,370,388,0,9,9,9,9,0,,,,,,,1,0,1,0,0,32,32,36,,,,,,,,,,,,num_3,1.0424485999392346,num_3,0.2,0.3,0.25,0.7,9.55138,26.74385,return,8.373591399984434,,,,,,,,,,,,,,,,,905,23,female,up_down_width,2024-10-15_18h36.47.989,exp1,2023.1.0,59.998584008666015,
,,,,,,,,,,,,,,,,3,9.5,10,10.5,0,0,0.5,0.25,0.25,1.25,10,initial,36.05,342,361,379,0,0,9,9,9,0,0,,,,,,,1,0,1,0,0,33,33,31,,,,,,,,,,,,num_3,0.9625025999266654,num_3,0.2,0.5,0.3,0.6,11.46165,22.9233,return,6.554274599999189,,,,,,,,,,,,,,,,,905,23,female,up_down_width,2024-10-15_18h36.47.989,exp1,2023.1.0,59.998584008666015,
,,,,,,,,,,,,,,,,5,9,9.5,10,10.5,11,0.5,0.25,0.25,2.25,10,initial,36.05,324,342,361,379,397,9,9,9,9,9,,,,,,,1,0,1,0,0,34,34,18,,,,,,,,,,,,num_4,1.5228039999492466,num_4,0.55,0.6,0.35000000000000003,1.1,13.37193,42.02605,return,5.9851205999730155,,,,,,,,,,,,,,,,,905,23,female,up_down_width,2024-10-15_18h36.47.989,exp1,2023.1.0,59.998584008666015,
,,,,,,,,,,,,,,,,5,9,9.5,10,10.5,11,0.5,0.25,0.25,2.25,10,initial,36.05,324,342,361,379,397,9,9,9,9,9,,,,,,,1,0,1,0,0,35,35,50,,,,,,,,,,,,num_4,1.9953147999476641,num_4,0.3,0.4,0.35,0.8,13.37193,30.5644,return,5.475611799978651,,,,,,,,,,,,,,,,,905,23,female,up_down_width,2024-10-15_18h36.47.989,exp1,2023.1.0,59.998584008666015,
,,,,,,,,,,,,,,,,5,9,9.5,10,10.5,11,0.5,0.25,0.25,2.25,10,initial,36.05,324,342,361,379,397,9,9,9,9,9,,,,,,,1,0,1,0,0,36,36,22,,,,,,,,,,,,num_4,1.0489976000972092,num_4,0.4,0.7,0.25000000000000006,0.7,9.55138,26.74385,return,2.729083799989894,,,,,,,,,,,,,,,,,905,23,female,up_down_width,2024-10-15_18h36.47.989,exp1,2023.1.0,59.998584008666015,
,,,,,,,,,,,,,,,,4,9.25,9.75,10.25,10.75,0,0.5,0.25,0.25,1.75,10,initial,36.05,333,351,370,388,0,9,9,9,9,0,,,,,,,1,0,1,0,0,37,37,38,,,,,,,,,,,,num_3,1.8822376999305561,num_3,0.3,1,0.3,0.75,11.46165,28.65413,return,5.446727000060491,,,,,,,,,,,,,,,,,905,23,female,up_down_width,2024-10-15_18h36.47.989,exp1,2023.1.0,59.998584008666015,
,,,,,,,,,,,,,,,,3,9.5,10,10.5,0,0,0.5,0.25,0.25,1.25,10,initial,36.05,342,361,379,0,0,9,9,9,0,0,,,,,,,1,0,1,0,0,38,38,6,,,,,,,,,,,,num_3,1.1014946000650525,num_3,0.4,1.3,0.20000000000000007,0.85,7.6411,32.47468,return,7.119618900003843,,,,,,,,,,,,,,,,,905,23,female,up_down_width,2024-10-15_18h36.47.989,exp1,2023.1.0,59.998584008666015,
,,,,,,,,,,,,,,,,3,9.5,10,10.5,0,0,0.5,0.25,0.25,1.25,10,initial,36.05,342,361,379,0,0,9,9,9,0,0,,,,,,,1,0,1,0,0,39,39,33,,,,,,,,,,,,num_2,1.1519848000025377,num_2,0.4,0.6,0.20000000000000007,0.7,7.6411,26.74385,return,5.233109999913722,,,,,,,,,,,,,,,,,905,23,female,up_down_width,2024-10-15_18h36.47.989,exp1,2023.1.0,59.998584008666015,
,,,,,,,,,,,,,,,,3,9.5,10,10.5,0,0,0.5,0.25,0.25,1.25,10,initial,36.05,342,361,379,0,0,9,9,9,0,0,,,,,,,1,0,1,0,0,40,40,34,,,,,,,,,,,,num_2,1.1452950000530109,num_2,0.2,1.0,0.25,0.6,9.55138,22.9233,return,3.9156029999721795,,,,,,,,,,,,,,,,,905,23,female,up_down_width,2024-10-15_18h36.47.989,exp1,2023.1.0,59.998584008666015,
,,,,,,,,,,,,,,,,3,9.5,10,10.5,0,0,0.5,0.25,0.25,1.25,10,initial,36.05,342,361,379,0,0,9,9,9,0,0,,,,,,,1,0,1,0,0,41,41,27,,,,,,,,,,,,num_2,1.2562599000521004,num_2,0.3,0.6,0.3,0.6,11.46165,22.9233,return,1.3722337000072002,,,,,,,,,,,,,,,,,905,23,female,up_down_width,2024-10-15_18h36.47.989,exp1,2023.1.0,59.998584008666015,
,,,,,,,,,,,,,,,,3,9.5,10,10.5,0,0,0.5,0.25,0.25,1.25,10,initial,36.05,342,361,379,0,0,9,9,9,0,0,,,,,,,1,0,1,0,0,42,42,1,,,,,,,,,,,,num_2,1.2578020000364631,num_2,0.3,0.4,0.3,0.8,11.46165,30.5644,return,2.263434800086543,,,,,,,,,,,,,,,,,905,23,female,up_down_width,2024-10-15_18h36.47.989,exp1,2023.1.0,59.998584008666015,
,,,,,,,,,,,,,,,,4,9.25,9.75,10.25,10.75,0,0.5,0.25,0.25,1.75,10,initial,36.05,333,351,370,388,0,9,9,9,9,0,,,,,,,1,0,1,0,0,43,43,39,,,,,,,,,,,,num_2,1.397555400035344,num_2,0.3,1.6,0.25,1.1,9.55138,42.02605,return,2.795868600020185,,,,,,,,,,,,,,,,,905,23,female,up_down_width,2024-10-15_18h36.47.989,exp1,2023.1.0,59.998584008666015,
,,,,,,,,,,,,,,,,5,9,9.5,10,10.5,11,0.5,0.25,0.25,2.25,10,initial,36.05,324,342,361,379,397,9,9,9,9,9,,,,,,,1,0,1,0,0,44,44,25,,,,,,,,,,,,num_3,0.9691188000142574,num_3,0.55,0.7,0.30000000000000004,0.6,11.46165,22.9233,return,2.9139000000432134,,,,,,,,,,,,,,,,,905,23,female,up_down_width,2024-10-15_18h36.47.989,exp1,2023.1.0,59.998584008666015,
,,,,,,,,,,,,,,,,5,9,9.5,10,10.5,11,0.5,0.25,0.25,2.25,10,initial,36.05,324,342,361,379,397,9,9,9,9,9,,,,,,,1,0,1,0,0,45,45,45,,,,,,,,,,,,num_4,1.1664337000111118,num_4,0.35,0.7,0.2,0.6,7.6411,22.9233,return,3.1272615999914706,,,,,,,,,,,,,,,,,905,23,female,up_down_width,2024-10-15_18h36.47.989,exp1,2023.1.0,59.998584008666015,
,,,,,,,,,,,,,,,,4,9.25,9.75,10.25,10.75,0,0.5,0.25,0.25,1.75,10,initial,36.05,333,351,370,388,0,9,9,9,9,0,,,,,,,1,0,1,0,0,46,46,37,,,,,,,,,,,,num_3,1.0333193999249488,num_3,0.45,1,0.25000000000000006,0.85,9.55138,32.47468,return,3.2870893999934196,,,,,,,,,,,,,,,,,905,23,female,up_down_width,2024-10-15_18h36.47.989,exp1,2023.1.0,59.998584008666015,
,,,,,,,,,,,,,,,,4,9.25,9.75,10.25,10.75,0,0.5,0.25,0.25,1.75,10,initial,36.05,333,351,370,388,0,9,9,9,9,0,,,,,,,1,0,1,0,0,47,47,12,,,,,,,,,,,,num_4,0.8825520999962464,num_4,0.2,0.5,0.3,0.7,11.46165,26.74385,return,3.693831600015983,,,,,,,,,,,,,,,,,905,23,female,up_down_width,2024-10-15_18h36.47.989,exp1,2023.1.0,59.998584008666015,
,,,,,,,,,,,,,,,,5,9,9.5,10,10.5,11,0.5,0.25,0.25,2.25,10,initial,36.05,324,342,361,379,397,9,9,9,9,9,,,,,,,1,0,1,0,0,48,48,48,,,,,,,,,,,,num_4,0.8983954000286758,num_4,0.4,1.1,0.25000000000000006,0.9,9.55138,34.38495,return,3.558667100034654,,,,,,,,,,,,,,,,,905,23,female,up_down_width,2024-10-15_18h36.47.989,exp1,2023.1.0,59.998584008666015,
,,,,,,,,,,,,,,,,5,9,9.5,10,10.5,11,0.5,0.25,0.25,2.25,10,initial,36.05,324,342,361,379,397,9,9,9,9,9,,,,,,,1,0,1,0,0,49,49,51,,,,,,,,,,,,num_4,0.8325560999801382,num_4,0.25,0.3,0.3,0.6,11.46165,22.9233,return,3.740866299951449,,,,,,,,,,,,,,,,,905,23,female,up_down_width,2024-10-15_18h36.47.989,exp1,2023.1.0,59.998584008666015,
,,,,,,,,,,,,,,,,3,9.5,10,10.5,0,0,0.5,0.25,0.25,1.25,10,initial,36.05,342,361,379,0,0,9,9,9,0,0,,,,,,,1,0,1,0,0,50,50,4,,,,,,,,,,,,num_2,0.9458424000767991,num_2,0.45,1.0,0.35000000000000003,0.7,13.37193,26.74385,return,4.518184500047937,,,,,,,,,,,,,,,,,905,23,female,up_down_width,2024-10-15_18h36.47.989,exp1,2023.1.0,59.998584008666015,
,,,,,,,,,,,,,,,,5,9,9.5,10,10.5,11,0.5,0.25,0.25,2.25,10,initial,36.05,324,342,361,379,397,9,9,9,9,9,,,,,,,1,0,1,0,0,51,51,19,,,,,,,,,,,,num_4,0.9629627999383956,num_4,0.2,0.7,0.3,0.7,11.46165,26.74385,return,2.342968000099063,,,,,,,,,,,,,,,,,905,23,female,up_down_width,2024-10-15_18h36.47.989,exp1,2023.1.0,59.998584008666015,
,,,,,,,,,,,,,,,,4,9.25,9.75,10.25,10.75,0,0.5,0.25,0.25,1.75,10,initial,36.05,333,351,370,388,0,9,9,9,9,0,,,,,,,1,0,1,0,0,52,52,40,,,,,,,,,,,,num_3,1.031122700078413,num_3,0.3,0.4,0.35,0.55,13.37193,21.01303,return,3.9491345999995247,,,,,,,,,,,,,,,,,905,23,female,up_down_width,2024-10-15_18h36.47.989,exp1,2023.1.0,59.998584008666015,
,,,,,,,,,,,,,,,,4,9.25,9.75,10.25,10.75,0,0.5,0.25,0.25,1.75,10,initial,36.05,333,351,370,388,0,9,9,9,9,0,,,,,,,1,0,1,0,0,53,53,9,,,,,,,,,,,,num_3,1.0904403000604361,num_3,0.3,0.7,0.39999999999999997,0.75,15.2822,28.65413,return,2.0827086999779567,,,,,,,,,,,,,,,,,905,23,female,up_down_width,2024-10-15_18h36.47.989,exp1,2023.1.0,59.998584008666015,
,,,,,,,,,,,,,,,,,,,,,,,,,,,,,,,,,,,,,,,,,,,,,1,0,1,0,,,,,,,,,,,,,,,,,,,,,,,,,,,,,1451.6553713999456,1451.6553713999456,1451.6553713999456,,,,,,,,,,,,905,23,female,up_down_width,2024-10-15_18h36.47.989,exp1,2023.1.0,59.998584008666015,
,,,,,,,,,,,,,,,,3,9.5,10,10.5,0,0,0.5,0.1,0.4,1.4000000000000001,10,initial,36.05,342,361,379,0,0,9,9,9,0,0,,,,,,,2,0,2,0,0,0,0,33,,,,,,,,,,,,num_2,1.5426579000195488,num_2,0.35,0.4,0.39999999999999997,0.6,15.2822,22.9233,return,2.5024691000580788,,,,,,,,,,,,,,,,,905,23,female,up_down_width,2024-10-15_18h36.47.989,exp1,2023.1.0,59.998584008666015,
,,,,,,,,,,,,,,,,4,9.25,9.75,10.25,10.75,0,0.5,0.1,0.4,1.9000000000000001,10,initial,36.05,333,351,370,388,0,9,9,9,9,0,,,,,,,2,0,2,0,0,1,1,40,,,,,,,,,,,,num_3,1.1091005000052974,num_3,0.2,0.9,0.5499999999999999,0.9,21.01303,34.38495,return,2.406461099977605,,,,,,,,,,,,,,,,,905,23,female,up_down_width,2024-10-15_18h36.47.989,exp1,2023.1.0,59.998584008666015,
,,,,,,,,,,,,,,,,4,9.25,9.75,10.25,10.75,0,0.5,0.1,0.4,1.9000000000000001,10,initial,36.05,333,351,370,388,0,9,9,9,9,0,,,,,,,2,0,2,0,0,2,2,16,,,,,,,,,,,,num_3,1.4237587999086827,num_3,0.3,1.2,0.5499999999999999,0.8,21.01303,30.5644,return,6.452212300035171,,,,,,,,,,,,,,,,,905,23,female,up_down_width,2024-10-15_18h36.47.989,exp1,2023.1.0,59.998584008666015,
,,,,,,,,,,,,,,,,5,9,9.5,10,10.5,11,0.5,0.1,0.4,2.4,10,initial,36.05,324,342,361,379,397,9,9,9,9,9,,,,,,,2,0,2,0,0,3,3,24,,,,,,,,,,,,num_4,0.9506567999487743,num_4,0.45,1.1,0.6500000000000001,0.9,24.83358,34.38495,return,5.567266799975187,,,,,,,,,,,,,,,,,905,23,female,up_down_width,2024-10-15_18h36.47.989,exp1,2023.1.0,59.998584008666015,
,,,,,,,,,,,,,,,,4,9.25,9.75,10.25,10.75,0,0.5,0.1,0.4,1.9000000000000001,10,initial,36.05,333,351,370,388,0,9,9,9,9,0,,,,,,,2,0,2,0,0,4,4,13,,,,,,,,,,,,num_3,1.4590224999701604,num_3,0.55,1.1,0.6500000000000001,0.85,24.83358,32.47468,return,3.137437800061889,,,,,,,,,,,,,,,,,905,23,female,up_down_width,2024-10-15_18h36.47.989,exp1,2023.1.0,59.998584008666015,
,,,,,,,,,,,,,,,,5,9,9.5,10,10.5,11,0.5,0.1,0.4,2.4,10,initial,36.05,324,342,361,379,397,9,9,9,9,9,,,,,,,2,0,2,0,0,5,5,19,,,,,,,,,,,,num_4,1.0718184999423102,num_4,0.3,1.3,0.7000000000000001,0.9,26.74385,34.38495,return,4.49586210004054,,,,,,,,,,,,,,,,,905,23,female,up_down_width,2024-10-15_18h36.47.989,exp1,2023.1.0,59.998584008666015,
,,,,,,,,,,,,,,,,5,9,9.5,10,10.5,11,0.5,0.1,0.4,2.4,10,initial,36.05,324,342,361,379,397,9,9,9,9,9,,,,,,,2,0,2,0,0,6,6,25,,,,,,,,,,,,num_3,1.9265069999964908,num_3,0.25,0.5,0.7000000000000001,0.9,26.74385,34.38495,return,7.961386900045909,,,,,,,,,,,,,,,,,905,23,female,up_down_width,2024-10-15_18h36.47.989,exp1,2023.1.0,59.998584008666015,
,,,,,,,,,,,,,,,,5,9,9.5,10,10.5,11,0.5,0.1,0.4,2.4,10,initial,36.05,324,342,361,379,397,9,9,9,9,9,,,,,,,2,0,2,0,0,7,7,23,,,,,,,,,,,,num_4,1.1342579999472946,num_4,0.25,1.0,0.49999999999999994,0.7,19.10275,26.74385,return,10.634916899958625,,,,,,,,,,,,,,,,,905,23,female,up_down_width,2024-10-15_18h36.47.989,exp1,2023.1.0,59.998584008666015,
,,,,,,,,,,,,,,,,3,9.5,10,10.5,0,0,0.5,0.1,0.4,1.4000000000000001,10,initial,36.05,342,361,379,0,0,9,9,9,0,0,,,,,,,2,0,2,0,0,8,8,35,,,,,,,,,,,,num_2,1.0649520000442863,num_2,0.4,1.2,0.55,0.8,21.01303,30.5644,return,4.2328618000028655,,,,,,,,,,,,,,,,,905,23,female,up_down_width,2024-10-15_18h36.47.989,exp1,2023.1.0,59.998584008666015,
,,,,,,,,,,,,,,,,5,9,9.5,10,10.5,11,0.5,0.1,0.4,2.4,10,initial,36.05,324,342,361,379,397,9,9,9,9,9,,,,,,,2,0,2,0,0,9,9,53,,,,,,,,,,,,num_4,0.8591713999630883,num_4,0.35,0.7,0.49999999999999994,0.7,19.10275,26.74385,return,1.5068959000054747,,,,,,,,,,,,,,,,,905,23,female,up_down_width,2024-10-15_18h36.47.989,exp1,2023.1.0,59.998584008666015,
,,,,,,,,,,,,,,,,4,9.25,9.75,10.25,10.75,0,0.5,0.1,0.4,1.9000000000000001,10,initial,36.05,333,351,370,388,0,9,9,9,9,0,,,,,,,2,0,2,0,0,10,10,15,,,,,,,,,,,,num_3,1.0649361000396311,num_3,0.25,1.2,0.6,0.85,22.9233,32.47468,return,5.928765399963595,,,,,,,,,,,,,,,,,905,23,female,up_down_width,2024-10-15_18h36.47.989,exp1,2023.1.0,59.998584008666015,
,,,,,,,,,,,,,,,,5,9,9.5,10,10.5,11,0.5,0.1,0.4,2.4,10,initial,36.05,324,342,361,379,397,9,9,9,9,9,,,,,,,2,0,2,0,0,11,11,51,,,,,,,,,,,,num_4,0.9508145999861881,num_4,0.25,0.9,0.49999999999999994,0.7,19.10275,26.74385,return,4.955730700050481,,,,,,,,,,,,,,,,,905,23,female,up_down_width,2024-10-15_18h36.47.989,exp1,2023.1.0,59.998584008666015,
,,,,,,,,,,,,,,,,3,9.5,10,10.5,0,0,0.5,0.1,0.4,1.4000000000000001,10,initial,36.05,342,361,379,0,0,9,9,9,0,0,,,,,,,2,0,2,0,0,12,12,29,,,,,,,,,,,,num_2,1.0586769999936223,num_2,0.5,0.8,0.55,0.8,21.01303,30.5644,return,1.671472099958919,,,,,,,,,,,,,,,,,905,23,female,up_down_width,2024-10-15_18h36.47.989,exp1,2023.1.0,59.998584008666015,
,,,,,,,,,,,,,,,,4,9.25,9.75,10.25,10.75,0,0.5,0.1,0.4,1.9000000000000001,10,initial,36.05,333,351,370,388,0,9,9,9,9,0,,,,,,,2,0,2,0,0,13,13,36,,,,,,,,,,,,num_3,0.9812716000014916,num_3,0.35,0.5,0.5499999999999999,0.7,21.01303,26.74385,return,7.3496635999763384,,,,,,,,,,,,,,,,,905,23,female,up_down_width,2024-10-15_18h36.47.989,exp1,2023.1.0,59.998584008666015,
,,,,,,,,,,,,,,,,4,9.25,9.75,10.25,10.75,0,0.5,0.1,0.4,1.9000000000000001,10,initial,36.05,333,351,370,388,0,9,9,9,9,0,,,,,,,2,0,2,0,0,14,14,14,,,,,,,,,,,,num_3,1.0404570000246167,num_3,0.5,0.7,0.6500000000000001,0.75,24.83358,28.65413,return,3.361420699977316,,,,,,,,,,,,,,,,,905,23,female,up_down_width,2024-10-15_18h36.47.989,exp1,2023.1.0,59.998584008666015,
,,,,,,,,,,,,,,,,5,9,9.5,10,10.5,11,0.5,0.1,0.4,2.4,10,initial,36.05,324,342,361,379,397,9,9,9,9,9,,,,,,,2,0,2,0,0,15,15,45,,,,,,,,,,,,num_4,1.099244499928318,num_4,0.2,1.3,0.6,0.8,22.9233,30.5644,return,6.569613700034097,,,,,,,,,,,,,,,,,905,23,female,up_down_width,2024-10-15_18h36.47.989,exp1,2023.1.0,59.998584008666015,
,,,,,,,,,,,,,,,,5,9,9.5,10,10.5,11,0.5,0.1,0.4,2.4,10,initial,36.05,324,342,361,379,397,9,9,9,9,9,,,,,,,2,0,2,0,0,16,16,18,,,,,,,,,,,,num_3,1.5159415999660268,num_3,0.4,1.1,0.7500000000000002,1.0,28.65413,38.2055,return,3.305299500003457,,,,,,,,,,,,,,,,,905,23,female,up_down_width,2024-10-15_18h36.47.989,exp1,2023.1.0,59.998584008666015,
,,,,,,,,,,,,,,,,5,9,9.5,10,10.5,11,0.5,0.1,0.4,2.4,10,initial,36.05,324,342,361,379,397,9,9,9,9,9,,,,,,,2,0,2,0,0,17,17,26,,,,,,,,,,,,num_4,1.0092260000528768,num_4,0.3,1.2,0.5499999999999999,0.8,21.01303,30.5644,return,5.062447999953292,,,,,,,,,,,,,,,,,905,23,female,up_down_width,2024-10-15_18h36.47.989,exp1,2023.1.0,59.998584008666015,
,,,,,,,,,,,,,,,,4,9.25,9.75,10.25,10.75,0,0.5,0.1,0.4,1.9000000000000001,10,initial,36.05,333,351,370,388,0,9,9,9,9,0,,,,,,,2,0,2,0,0,18,18,43,,,,,,,,,,,,num_4,1.3277742000063881,num_4,0.4,1.1,0.6000000000000001,0.7,22.9233,26.74385,return,4.390774199971929,,,,,,,,,,,,,,,,,905,23,female,up_down_width,2024-10-15_18h36.47.989,exp1,2023.1.0,59.998584008666015,
,,,,,,,,,,,,,,,,3,9.5,10,10.5,0,0,0.5,0.1,0.4,1.4000000000000001,10,initial,36.05,342,361,379,0,0,9,9,9,0,0,,,,,,,2,0,2,0,0,19,19,0,,,,,,,,,,,,num_2,1.0158010999439284,num_2,0.35,1.6,0.5499999999999999,1.0,21.01303,38.2055,return,5.246561500011012,,,,,,,,,,,,,,,,,905,23,female,up_down_width,2024-10-15_18h36.47.989,exp1,2023.1.0,59.998584008666015,
,,,,,,,,,,,,,,,,3,9.5,10,10.5,0,0,0.5,0.1,0.4,1.4000000000000001,10,initial,36.05,342,361,379,0,0,9,9,9,0,0,,,,,,,2,0,2,0,0,20,20,7,,,,,,,,,,,,num_2,0.9465063000097871,num_2,0.25,1.2,0.49999999999999994,0.8,19.10275,30.5644,return,5.832510799984448,,,,,,,,,,,,,,,,,905,23,female,up_down_width,2024-10-15_18h36.47.989,exp1,2023.1.0,59.998584008666015,
,,,,,,,,,,,,,,,,5,9,9.5,10,10.5,11,0.5,0.1,0.4,2.4,10,initial,36.05,324,342,361,379,397,9,9,9,9,9,,,,,,,2,0,2,0,0,21,21,46,,,,,,,,,,,,num_4,0.8516931999474764,num_4,0.5,0.6,0.55,0.8,21.01303,30.5644,return,4.254661599989049,,,,,,,,,,,,,,,,,905,23,female,up_down_width,2024-10-15_18h36.47.989,exp1,2023.1.0,59.998584008666015,
,,,,,,,,,,,,,,,,4,9.25,9.75,10.25,10.75,0,0.5,0.1,0.4,1.9000000000000001,10,initial,36.05,333,351,370,388,0,9,9,9,9,0,,,,,,,2,0,2,0,0,22,22,10,,,,,,,,,,,,num_3,1.7352315000025555,num_3,0.55,0.7,0.55,0.75,21.01303,28.65413,return,3.85216709994711,,,,,,,,,,,,,,,,,905,23,female,up_down_width,2024-10-15_18h36.47.989,exp1,2023.1.0,59.998584008666015,
,,,,,,,,,,,,,,,,3,9.5,10,10.5,0,0,0.5,0.1,0.4,1.4000000000000001,10,initial,36.05,342,361,379,0,0,9,9,9,0,0,,,,,,,2,0,2,0,0,23,23,34,,,,,,,,,,,,num_2,0.9325579000869766,num_2,0.25,1.6,0.5499999999999999,1.0,21.01303,38.2055,return,4.429234300041571,,,,,,,,,,,,,,,,,905,23,female,up_down_width,2024-10-15_18h36.47.989,exp1,2023.1.0,59.998584008666015,
,,,,,,,,,,,,,,,,4,9.25,9.75,10.25,10.75,0,0.5,0.1,0.4,1.9000000000000001,10,initial,36.05,333,351,370,388,0,9,9,9,9,0,,,,,,,2,0,2,0,0,24,24,9,,,,,,,,,,,,num_3,1.1081115999259055,num_3,0.5,0.9,0.6000000000000001,0.85,22.9233,32.47468,return,2.9478571000508964,,,,,,,,,,,,,,,,,905,23,female,up_down_width,2024-10-15_18h36.47.989,exp1,2023.1.0,59.998584008666015,
,,,,,,,,,,,,,,,,5,9,9.5,10,10.5,11,0.5,0.1,0.4,2.4,10,initial,36.05,324,342,361,379,397,9,9,9,9,9,,,,,,,2,0,2,0,0,25,25,20,,,,,,,,,,,,num_4,1.198405500035733,num_4,0.2,1.1,0.5499999999999999,0.8,21.01303,30.5644,return,3.453207300044596,,,,,,,,,,,,,,,,,905,23,female,up_down_width,2024-10-15_18h36.47.989,exp1,2023.1.0,59.998584008666015,
,,,,,,,,,,,,,,,,4,9.25,9.75,10.25,10.75,0,0.5,0.1,0.4,1.9000000000000001,10,initial,36.05,333,351,370,388,0,9,9,9,9,0,,,,,,,2,0,2,0,0,26,26,11,,,,,,,,,,,,num_3,1.050852100015618,num_3,0.3,1.3,0.5499999999999999,0.95,21.01303,36.29523,return,3.982590099913068,,,,,,,,,,,,,,,,,905,23,female,up_down_width,2024-10-15_18h36.47.989,exp1,2023.1.0,59.998584008666015,
,,,,,,,,,,,,,,,,5,9,9.5,10,10.5,11,0.5,0.1,0.4,2.4,10,initial,36.05,324,342,361,379,397,9,9,9,9,9,,,,,,,2,0,2,0,0,27,27,50,,,,,,,,,,,,num_4,0.8833119000773877,num_4,0.3,1.2,0.49999999999999994,0.8,19.10275,30.5644,return,3.934898699983023,,,,,,,,,,,,,,,,,905,23,female,up_down_width,2024-10-15_18h36.47.989,exp1,2023.1.0,59.998584008666015,
,,,,,,,,,,,,,,,,4,9.25,9.75,10.25,10.75,0,0.5,0.1,0.4,1.9000000000000001,10,initial,36.05,333,351,370,388,0,9,9,9,9,0,,,,,,,2,0,2,0,0,28,28,44,,,,,,,,,,,,num_3,1.131102400016971,num_3,0.35,0.7,0.44999999999999996,0.7,17.19248,26.74385,return,10.246066899970174,,,,,,,,,,,,,,,,,905,23,female,up_down_width,2024-10-15_18h36.47.989,exp1,2023.1.0,59.998584008666015,
,,,,,,,,,,,,,,,,3,9.5,10,10.5,0,0,0.5,0.1,0.4,1.4000000000000001,10,initial,36.05,342,361,379,0,0,9,9,9,0,0,,,,,,,2,0,2,0,0,29,29,2,,,,,,,,,,,,num_3,2.9249604999786243,num_3,0.4,1,0.55,0.8,21.01303,30.5644,return,13.601218800060451,,,,,,,,,,,,,,,,,905,23,female,up_down_width,2024-10-15_18h36.47.989,exp1,2023.1.0,59.998584008666015,
,,,,,,,,,,,,,,,,5,9,9.5,10,10.5,11,0.5,0.1,0.4,2.4,10,initial,36.05,324,342,361,379,397,9,9,9,9,9,,,,,,,2,0,2,0,0,30,30,49,,,,,,,,,,,,num_4,1.0976215000264347,num_4,0.5,1.0,0.5,0.9,19.10275,34.38495,return,3.549687399994582,,,,,,,,,,,,,,,,,905,23,female,up_down_width,2024-10-15_18h36.47.989,exp1,2023.1.0,59.998584008666015,
,,,,,,,,,,,,,,,,3,9.5,10,10.5,0,0,0.5,0.1,0.4,1.4000000000000001,10,initial,36.05,342,361,379,0,0,9,9,9,0,0,,,,,,,2,0,2,0,0,31,31,4,,,,,,,,,,,,num_2,2.76004710001871,num_2,0.4,1.4,0.8500000000000003,1.0,32.47468,38.2055,return,13.395878399955109,,,,,,,,,,,,,,,,,905,23,female,up_down_width,2024-10-15_18h36.47.989,exp1,2023.1.0,59.998584008666015,
,,,,,,,,,,,,,,,,3,9.5,10,10.5,0,0,0.5,0.1,0.4,1.4000000000000001,10,initial,36.05,342,361,379,0,0,9,9,9,0,0,,,,,,,2,0,2,0,0,32,32,5,,,,,,,,,,,,num_2,1.2242951000807807,num_2,0.3,1.6,0.7500000000000001,0.9,28.65413,34.38495,return,7.842820700025186,,,,,,,,,,,,,,,,,905,23,female,up_down_width,2024-10-15_18h36.47.989,exp1,2023.1.0,59.998584008666015,
,,,,,,,,,,,,,,,,3,9.5,10,10.5,0,0,0.5,0.1,0.4,1.4000000000000001,10,initial,36.05,342,361,379,0,0,9,9,9,0,0,,,,,,,2,0,2,0,0,33,33,3,,,,,,,,,,,,num_2,0.9920050000073388,num_2,0.25,1.6,0.39999999999999997,0.7,15.2822,26.74385,return,6.705443300073966,,,,,,,,,,,,,,,,,905,23,female,up_down_width,2024-10-15_18h36.47.989,exp1,2023.1.0,59.998584008666015,
,,,,,,,,,,,,,,,,4,9.25,9.75,10.25,10.75,0,0.5,0.1,0.4,1.9000000000000001,10,initial,36.05,333,351,370,388,0,9,9,9,9,0,,,,,,,2,0,2,0,0,34,34,37,,,,,,,,,,,,num_3,1.1315160000231117,num_3,0.45,1.3,0.35000000000000003,0.7,13.37193,26.74385,return,4.728174399933778,,,,,,,,,,,,,,,,,905,23,female,up_down_width,2024-10-15_18h36.47.989,exp1,2023.1.0,59.998584008666015,
,,,,,,,,,,,,,,,,5,9,9.5,10,10.5,11,0.5,0.1,0.4,2.4,10,initial,36.05,324,342,361,379,397,9,9,9,9,9,,,,,,,2,0,2,0,0,35,35,52,,,,,,,,,,,,num_4,0.9741264999611303,num_4,0.45,0.8,0.35000000000000003,0.6,13.37193,22.9233,return,5.326588699943386,,,,,,,,,,,,,,,,,905,23,female,up_down_width,2024-10-15_18h36.47.989,exp1,2023.1.0,59.998584008666015,
,,,,,,,,,,,,,,,,3,9.5,10,10.5,0,0,0.5,0.1,0.4,1.4000000000000001,10,initial,36.05,342,361,379,0,0,9,9,9,0,0,,,,,,,2,0,2,0,0,36,36,1,,,,,,,,,,,,num_2,0.9952872000867501,num_2,0.3,1.6,0.39999999999999997,0.7,15.2822,26.74385,return,5.174015500000678,,,,,,,,,,,,,,,,,905,23,female,up_down_width,2024-10-15_18h36.47.989,exp1,2023.1.0,59.998584008666015,
,,,,,,,,,,,,,,,,5,9,9.5,10,10.5,11,0.5,0.1,0.4,2.4,10,initial,36.05,324,342,361,379,397,9,9,9,9,9,,,,,,,2,0,2,0,0,37,37,48,,,,,,,,,,,,num_3,1.047960800002329,num_3,0.4,1.2,0.5,0.85,19.10275,32.47468,return,4.043373399996199,,,,,,,,,,,,,,,,,905,23,female,up_down_width,2024-10-15_18h36.47.989,exp1,2023.1.0,59.998584008666015,
,,,,,,,,,,,,,,,,4,9.25,9.75,10.25,10.75,0,0.5,0.1,0.4,1.9000000000000001,10,initial,36.05,333,351,370,388,0,9,9,9,9,0,,,,,,,2,0,2,0,0,38,38,17,,,,,,,,,,,,num_3,0.9017814999679103,num_3,0.45,0.6,0.45,0.6,17.19248,22.9233,return,1.071879499941133,,,,,,,,,,,,,,,,,905,23,female,up_down_width,2024-10-15_18h36.47.989,exp1,2023.1.0,59.998584008666015,
,,,,,,,,,,,,,,,,3,9.5,10,10.5,0,0,0.5,0.1,0.4,1.4000000000000001,10,initial,36.05,342,361,379,0,0,9,9,9,0,0,,,,,,,2,0,2,0,0,39,39,8,,,,,,,,,,,,num_2,1.1482944999588653,num_2,0.5,1.2,0.6000000000000001,1.0,22.9233,38.2055,return,4.346027299994603,,,,,,,,,,,,,,,,,905,23,female,up_down_width,2024-10-15_18h36.47.989,exp1,2023.1.0,59.998584008666015,
,,,,,,,,,,,,,,,,4,9.25,9.75,10.25,10.75,0,0.5,0.1,0.4,1.9000000000000001,10,initial,36.05,333,351,370,388,0,9,9,9,9,0,,,,,,,2,0,2,0,0,40,40,39,,,,,,,,,,,,num_3,0.9560587999876589,num_3,0.35,1.2,0.5499999999999999,0.95,21.01303,36.29523,return,5.520715599996038,,,,,,,,,,,,,,,,,905,23,female,up_down_width,2024-10-15_18h36.47.989,exp1,2023.1.0,59.998584008666015,
,,,,,,,,,,,,,,,,5,9,9.5,10,10.5,11,0.5,0.1,0.4,2.4,10,initial,36.05,324,342,361,379,397,9,9,9,9,9,,,,,,,2,0,2,0,0,41,41,22,,,,,,,,,,,,num_4,0.8961225999519229,num_4,0.25,1.1,0.39999999999999997,0.7,15.2822,26.74385,return,3.6907134999055415,,,,,,,,,,,,,,,,,905,23,female,up_down_width,2024-10-15_18h36.47.989,exp1,2023.1.0,59.998584008666015,
,,,,,,,,,,,,,,,,3,9.5,10,10.5,0,0,0.5,0.1,0.4,1.4000000000000001,10,initial,36.05,342,361,379,0,0,9,9,9,0,0,,,,,,,2,0,2,0,0,42,42,30,,,,,,,,,,,,num_2,0.9201776999980211,num_2,0.55,1.0,0.45,0.9,17.19248,34.38495,return,4.700585099984892,,,,,,,,,,,,,,,,,905,23,female,up_down_width,2024-10-15_18h36.47.989,exp1,2023.1.0,59.998584008666015,
,,,,,,,,,,,,,,,,3,9.5,10,10.5,0,0,0.5,0.1,0.4,1.4000000000000001,10,initial,36.05,342,361,379,0,0,9,9,9,0,0,,,,,,,2,0,2,0,0,43,43,28,,,,,,,,,,,,num_2,1.4144833000609651,num_2,0.45,0.6,0.4,0.7,15.2822,26.74385,return,5.177729399991222,,,,,,,,,,,,,,,,,905,23,female,up_down_width,2024-10-15_18h36.47.989,exp1,2023.1.0,59.998584008666015,
,,,,,,,,,,,,,,,,3,9.5,10,10.5,0,0,0.5,0.1,0.4,1.4000000000000001,10,initial,36.05,342,361,379,0,0,9,9,9,0,0,,,,,,,2,0,2,0,0,44,44,6,,,,,,,,,,,,num_2,0.9988763999426737,num_2,0.5,0.8,0.5,0.9,19.10275,34.38495,return,1.5269183999625966,,,,,,,,,,,,,,,,,905,23,female,up_down_width,2024-10-15_18h36.47.989,exp1,2023.1.0,59.998584008666015,
,,,,,,,,,,,,,,,,5,9,9.5,10,10.5,11,0.5,0.1,0.4,2.4,10,initial,36.05,324,342,361,379,397,9,9,9,9,9,,,,,,,2,0,2,0,0,45,45,21,,,,,,,,,,,,num_4,1.066537500009872,num_4,0.45,1.0,0.4,0.7,15.2822,26.74385,return,4.367963999975473,,,,,,,,,,,,,,,,,905,23,female,up_down_width,2024-10-15_18h36.47.989,exp1,2023.1.0,59.998584008666015,
,,,,,,,,,,,,,,,,3,9.5,10,10.5,0,0,0.5,0.1,0.4,1.4000000000000001,10,initial,36.05,342,361,379,0,0,9,9,9,0,0,,,,,,,2,0,2,0,0,46,46,32,,,,,,,,,,,,num_2,1.1945088000502437,num_2,0.5,1.6,0.30000000000000004,0.6,11.46165,22.9233,return,6.420049999956973,,,,,,,,,,,,,,,,,905,23,female,up_down_width,2024-10-15_18h36.47.989,exp1,2023.1.0,59.998584008666015,
,,,,,,,,,,,,,,,,4,9.25,9.75,10.25,10.75,0,0.5,0.1,0.4,1.9000000000000001,10,initial,36.05,333,351,370,388,0,9,9,9,9,0,,,,,,,2,0,2,0,0,47,47,12,,,,,,,,,,,,num_3,1.4073851000284776,num_3,0.3,1.3,0.35,0.85,13.37193,32.47468,return,6.261660599964671,,,,,,,,,,,,,,,,,905,23,female,up_down_width,2024-10-15_18h36.47.989,exp1,2023.1.0,59.998584008666015,
,,,,,,,,,,,,,,,,5,9,9.5,10,10.5,11,0.5,0.1,0.4,2.4,10,initial,36.05,324,342,361,379,397,9,9,9,9,9,,,,,,,2,0,2,0,0,48,48,47,,,,,,,,,,,,num_4,0.8572313999757171,num_4,0.55,1.1,0.4,0.7,15.2822,26.74385,return,5.424642300000414,,,,,,,,,,,,,,,,,905,23,female,up_down_width,2024-10-15_18h36.47.989,exp1,2023.1.0,59.998584008666015,
,,,,,,,,,,,,,,,,4,9.25,9.75,10.25,10.75,0,0.5,0.1,0.4,1.9000000000000001,10,initial,36.05,333,351,370,388,0,9,9,9,9,0,,,,,,,2,0,2,0,0,49,49,41,,,,,,,,,,,,num_2,1.0530195999890566,num_2,0.45,0.8,0.45,0.8,17.19248,30.5644,return,1.998461200040765,,,,,,,,,,,,,,,,,905,23,female,up_down_width,2024-10-15_18h36.47.989,exp1,2023.1.0,59.998584008666015,
,,,,,,,,,,,,,,,,3,9.5,10,10.5,0,0,0.5,0.1,0.4,1.4000000000000001,10,initial,36.05,342,361,379,0,0,9,9,9,0,0,,,,,,,2,0,2,0,0,50,50,31,,,,,,,,,,,,num_2,0.955197700066492,num_2,0.4,1.2,0.30000000000000004,0.7,11.46165,26.74385,return,3.709900099900551,,,,,,,,,,,,,,,,,905,23,female,up_down_width,2024-10-15_18h36.47.989,exp1,2023.1.0,59.998584008666015,
,,,,,,,,,,,,,,,,4,9.25,9.75,10.25,10.75,0,0.5,0.1,0.4,1.9000000000000001,10,initial,36.05,333,351,370,388,0,9,9,9,9,0,,,,,,,2,0,2,0,0,51,51,38,,,,,,,,,,,,num_3,1.0149758999468759,num_3,0.2,0.7,0.39999999999999997,0.7,15.2822,26.74385,return,4.668359000002965,,,,,,,,,,,,,,,,,905,23,female,up_down_width,2024-10-15_18h36.47.989,exp1,2023.1.0,59.998584008666015,
,,,,,,,,,,,,,,,,4,9.25,9.75,10.25,10.75,0,0.5,0.1,0.4,1.9000000000000001,10,initial,36.05,333,351,370,388,0,9,9,9,9,0,,,,,,,2,0,2,0,0,52,52,42,,,,,,,,,,,,num_3,1.0659215999767184,num_3,0.45,1,0.6500000000000001,1,24.83358,38.2055,return,2.363220499944873,,,,,,,,,,,,,,,,,905,23,female,up_down_width,2024-10-15_18h36.47.989,exp1,2023.1.0,59.998584008666015,
,,,,,,,,,,,,,,,,3,9.5,10,10.5,0,0,0.5,0.1,0.4,1.4000000000000001,10,initial,36.05,342,361,379,0,0,9,9,9,0,0,,,,,,,2,0,2,0,0,53,53,27,,,,,,,,,,,,num_2,0.977472799946554,num_2,0.55,0.6,0.6000000000000001,1.0,22.9233,38.2055,return,3.1767909000627697,,,,,,,,,,,,,,,,,905,23,female,up_down_width,2024-10-15_18h36.47.989,exp1,2023.1.0,59.998584008666015,
,,,,,,,,,,,,,,,,,,,,,,,,,,,,,,,,,,,,,,,,,,,,,2,0,2,0,,,,,,,,,,,,,,,,,,,,,,,,,,,,,1878.6545133000473,1878.6545133000473,1878.6545133000473,,,,,,,,,,,,905,23,female,up_down_width,2024-10-15_18h36.47.989,exp1,2023.1.0,59.998584008666015,
,,,,,,,,,,,,,,,,4,9.25,9.75,10.25,10.75,0,0.5,0.25,0.25,1.75,10,initial,36.05,333,351,370,388,0,9,9,9,9,0,,,,,,,3,0,3,0,0,0,0,38,,,,,,,,,,,,num_3,1.1266752999508753,num_3,0.25,0.7,0.3,0.75,11.46165,28.65413,return,3.1119181000394747,,,,,,,,,,,,,,,,,905,23,female,up_down_width,2024-10-15_18h36.47.989,exp1,2023.1.0,59.998584008666015,
,,,,,,,,,,,,,,,,5,9,9.5,10,10.5,11,0.5,0.25,0.25,2.25,10,initial,36.05,324,342,361,379,397,9,9,9,9,9,,,,,,,3,0,3,0,0,1,1,20,,,,,,,,,,,,num_3,1.1572353000519797,num_3,0.5,1.1,0.25000000000000006,1.05,9.55138,40.11578,return,3.486193699995056,,,,,,,,,,,,,,,,,905,23,female,up_down_width,2024-10-15_18h36.47.989,exp1,2023.1.0,59.998584008666015,
,,,,,,,,,,,,,,,,4,9.25,9.75,10.25,10.75,0,0.5,0.25,0.25,1.75,10,initial,36.05,333,351,370,388,0,9,9,9,9,0,,,,,,,3,0,3,0,0,2,2,12,,,,,,,,,,,,num_3,1.3417353000259027,num_3,0.3,0.5,0.2,0.95,7.6411,36.29523,return,4.773916900041513,,,,,,,,,,,,,,,,,905,23,female,up_down_width,2024-10-15_18h36.47.989,exp1,2023.1.0,59.998584008666015,
,,,,,,,,,,,,,,,,4,9.25,9.75,10.25,10.75,0,0.5,0.25,0.25,1.75,10,initial,36.05,333,351,370,388,0,9,9,9,9,0,,,,,,,3,0,3,0,0,3,3,39,,,,,,,,,,,,num_3,0.925791300018318,num_3,0.3,0.8,0.25,0.95,9.55138,36.29523,return,2.836700599989854,,,,,,,,,,,,,,,,,905,23,female,up_down_width,2024-10-15_18h36.47.989,exp1,2023.1.0,59.998584008666015,
,,,,,,,,,,,,,,,,4,9.25,9.75,10.25,10.75,0,0.5,0.25,0.25,1.75,10,initial,36.05,333,351,370,388,0,9,9,9,9,0,,,,,,,3,0,3,0,0,4,4,40,,,,,,,,,,,,num_3,0.9117244000080973,num_3,0.5,1,0.20000000000000007,1.25,7.6411,47.75688,return,5.346327199949883,,,,,,,,,,,,,,,,,905,23,female,up_down_width,2024-10-15_18h36.47.989,exp1,2023.1.0,59.998584008666015,
,,,,,,,,,,,,,,,,5,9,9.5,10,10.5,11,0.5,0.25,0.25,2.25,10,initial,36.05,324,342,361,379,397,9,9,9,9,9,,,,,,,3,0,3,0,0,5,5,48,,,,,,,,,,,,num_3,0.9260475999908522,num_3,0.25,0.6,0.3,1.0,11.46165,38.2055,return,3.528035700088367,,,,,,,,,,,,,,,,,905,23,female,up_down_width,2024-10-15_18h36.47.989,exp1,2023.1.0,59.998584008666015,
,,,,,,,,,,,,,,,,3,9.5,10,10.5,0,0,0.5,0.25,0.25,1.25,10,initial,36.05,342,361,379,0,0,9,9,9,0,0,,,,,,,3,0,3,0,0,6,6,3,,,,,,,,,,,,num_3,0.7912241999292746,num_3,0.25,1.3,0.2,1.05,7.6411,40.11578,return,4.353280699928291,,,,,,,,,,,,,,,,,905,23,female,up_down_width,2024-10-15_18h36.47.989,exp1,2023.1.0,59.998584008666015,
,,,,,,,,,,,,,,,,5,9,9.5,10,10.5,11,0.5,0.25,0.25,2.25,10,initial,36.05,324,342,361,379,397,9,9,9,9,9,,,,,,,3,0,3,0,0,7,7,45,,,,,,,,,,,,num_4,1.369201400084421,num_4,0.3,0.3,0.3,0.9,11.46165,34.38495,return,3.6319828999694437,,,,,,,,,,,,,,,,,905,23,female,up_down_width,2024-10-15_18h36.47.989,exp1,2023.1.0,59.998584008666015,
,,,,,,,,,,,,,,,,3,9.5,10,10.5,0,0,0.5,0.25,0.25,1.25,10,initial,36.05,342,361,379,0,0,9,9,9,0,0,,,,,,,3,0,3,0,0,8,8,31,,,,,,,,,,,,num_3,1.0816047999542207,num_3,0.45,1.1,0.25000000000000006,1.15,9.55138,43.93633,return,3.143920300062746,,,,,,,,,,,,,,,,,905,23,female,up_down_width,2024-10-15_18h36.47.989,exp1,2023.1.0,59.998584008666015,
,,,,,,,,,,,,,,,,4,9.25,9.75,10.25,10.75,0,0.5,0.25,0.25,1.75,10,initial,36.05,333,351,370,388,0,9,9,9,9,0,,,,,,,3,0,3,0,0,9,9,44,,,,,,,,,,,,num_3,0.8707021999871358,num_3,0.3,1.3,0.10000000000000002,1.15,3.82055,43.93633,return,2.9628470999887213,,,,,,,,,,,,,,,,,905,23,female,up_down_width,2024-10-15_18h36.47.989,exp1,2023.1.0,59.998584008666015,
,,,,,,,,,,,,,,,,3,9.5,10,10.5,0,0,0.5,0.25,0.25,1.25,10,initial,36.05,342,361,379,0,0,9,9,9,0,0,,,,,,,3,0,3,0,0,10,10,4,,,,,,,,,,,,num_2,1.055285400012508,num_2,0.3,0.6,0.15000000000000002,0.9,5.73083,34.38495,return,3.1794112999923527,,,,,,,,,,,,,,,,,905,23,female,up_down_width,2024-10-15_18h36.47.989,exp1,2023.1.0,59.998584008666015,
,,,,,,,,,,,,,,,,3,9.5,10,10.5,0,0,0.5,0.25,0.25,1.25,10,initial,36.05,342,361,379,0,0,9,9,9,0,0,,,,,,,3,0,3,0,0,11,11,27,,,,,,,,,,,,num_2,0.8875371000031009,num_2,0.4,0.8,0.15000000000000008,0.6,5.73083,22.9233,return,3.603569000028074,,,,,,,,,,,,,,,,,905,23,female,up_down_width,2024-10-15_18h36.47.989,exp1,2023.1.0,59.998584008666015,
,,,,,,,,,,,,,,,,4,9.25,9.75,10.25,10.75,0,0.5,0.25,0.25,1.75,10,initial,36.05,333,351,370,388,0,9,9,9,9,0,,,,,,,3,0,3,0,0,12,12,16,,,,,,,,,,,,num_3,0.923852700041607,num_3,0.2,0.5,0.25,0.65,9.55138,24.83358,return,3.7603141999570653,,,,,,,,,,,,,,,,,905,23,female,up_down_width,2024-10-15_18h36.47.989,exp1,2023.1.0,59.998584008666015,
,,,,,,,,,,,,,,,,5,9,9.5,10,10.5,11,0.5,0.25,0.25,2.25,10,initial,36.05,324,342,361,379,397,9,9,9,9,9,,,,,,,3,0,3,0,0,13,13,52,,,,,,,,,,,,num_4,1.2801270000636578,num_4,0.35,0.4,0.2,1.0,7.6411,38.2055,return,3.899755600024946,,,,,,,,,,,,,,,,,905,23,female,up_down_width,2024-10-15_18h36.47.989,exp1,2023.1.0,59.998584008666015,
,,,,,,,,,,,,,,,,4,9.25,9.75,10.25,10.75,0,0.5,0.25,0.25,1.75,10,initial,36.05,333,351,370,388,0,9,9,9,9,0,,,,,,,3,0,3,0,0,14,14,15,,,,,,,,,,,,num_3,0.809330299962312,num_3,0.2,1.3,0.15000000000000002,0.85,5.73083,32.47468,return,3.576210099970922,,,,,,,,,,,,,,,,,905,23,female,up_down_width,2024-10-15_18h36.47.989,exp1,2023.1.0,59.998584008666015,
,,,,,,,,,,,,,,,,5,9,9.5,10,10.5,11,0.5,0.25,0.25,2.25,10,initial,36.05,324,342,361,379,397,9,9,9,9,9,,,,,,,3,0,3,0,0,15,15,26,,,,,,,,,,,,num_4,0.8698223000392318,num_4,0.5,1.1,0.20000000000000007,0.8,7.6411,30.5644,return,3.9951106999069452,,,,,,,,,,,,,,,,,905,23,female,up_down_width,2024-10-15_18h36.47.989,exp1,2023.1.0,59.998584008666015,
,,,,,,,,,,,,,,,,3,9.5,10,10.5,0,0,0.5,0.25,0.25,1.25,10,initial,36.05,342,361,379,0,0,9,9,9,0,0,,,,,,,3,0,3,0,0,16,16,8,,,,,,,,,,,,num_2,1.5080004000337794,num_2,0.4,0.8,0.20000000000000007,0.9,7.6411,34.38495,return,2.854446699959226,,,,,,,,,,,,,,,,,905,23,female,up_down_width,2024-10-15_18h36.47.989,exp1,2023.1.0,59.998584008666015,
,,,,,,,,,,,,,,,,5,9,9.5,10,10.5,11,0.5,0.25,0.25,2.25,10,initial,36.05,324,342,361,379,397,9,9,9,9,9,,,,,,,3,0,3,0,0,17,17,50,,,,,,,,,,,,num_4,0.7649569999193773,num_4,0.5,1.0,0.20000000000000007,0.8,7.6411,30.5644,return,2.8075780998915434,,,,,,,,,,,,,,,,,905,23,female,up_down_width,2024-10-15_18h36.47.989,exp1,2023.1.0,59.998584008666015,
,,,,,,,,,,,,,,,,5,9,9.5,10,10.5,11,0.5,0.25,0.25,2.25,10,initial,36.05,324,342,361,379,397,9,9,9,9,9,,,,,,,3,0,3,0,0,18,18,22,,,,,,,,,,,,num_4,0.8425581000046805,num_4,0.25,0.4,0.15000000000000002,0.7,5.73083,26.74385,return,3.8159611000446603,,,,,,,,,,,,,,,,,905,23,female,up_down_width,2024-10-15_18h36.47.989,exp1,2023.1.0,59.998584008666015,
,,,,,,,,,,,,,,,,4,9.25,9.75,10.25,10.75,0,0.5,0.25,0.25,1.75,10,initial,36.05,333,351,370,388,0,9,9,9,9,0,,,,,,,3,0,3,0,0,19,19,9,,,,,,,,,,,,num_3,0.9404636999825016,num_3,0.25,1.1,0.3,1.0,11.46165,38.2055,return,2.2735733999870718,,,,,,,,,,,,,,,,,905,23,female,up_down_width,2024-10-15_18h36.47.989,exp1,2023.1.0,59.998584008666015,
,,,,,,,,,,,,,,,,5,9,9.5,10,10.5,11,0.5,0.25,0.25,2.25,10,initial,36.05,324,342,361,379,397,9,9,9,9,9,,,,,,,3,0,3,0,0,20,20,24,,,,,,,,,,,,num_4,0.7640776999760419,num_4,0.35,0.8,0.3,0.9,11.46165,34.38495,return,2.6479676000308245,,,,,,,,,,,,,,,,,905,23,female,up_down_width,2024-10-15_18h36.47.989,exp1,2023.1.0,59.998584008666015,
,,,,,,,,,,,,,,,,3,9.5,10,10.5,0,0,0.5,0.25,0.25,1.25,10,initial,36.05,342,361,379,0,0,9,9,9,0,0,,,,,,,3,0,3,0,0,21,21,2,,,,,,,,,,,,num_2,0.9012056000065058,num_2,0.3,0.4,0.35,0.7,13.37193,26.74385,return,5.1966054000658914,,,,,,,,,,,,,,,,,905,23,female,up_down_width,2024-10-15_18h36.47.989,exp1,2023.1.0,59.998584008666015,
,,,,,,,,,,,,,,,,4,9.25,9.75,10.25,10.75,0,0.5,0.25,0.25,1.75,10,initial,36.05,333,351,370,388,0,9,9,9,9,0,,,,,,,3,0,3,0,0,22,22,37,,,,,,,,,,,,num_4,2.3688687999965623,num_4,0.35,1.1,0.3,0.8,11.46165,30.5644,return,5.104924199986272,,,,,,,,,,,,,,,,,905,23,female,up_down_width,2024-10-15_18h36.47.989,exp1,2023.1.0,59.998584008666015,
,,,,,,,,,,,,,,,,3,9.5,10,10.5,0,0,0.5,0.25,0.25,1.25,10,initial,36.05,342,361,379,0,0,9,9,9,0,0,,,,,,,3,0,3,0,0,23,23,0,,,,,,,,,,,,num_2,0.7805870999582112,num_2,0.3,0.6,0.3,0.7,11.46165,26.74385,return,2.0084584000287578,,,,,,,,,,,,,,,,,905,23,female,up_down_width,2024-10-15_18h36.47.989,exp1,2023.1.0,59.998584008666015,
,,,,,,,,,,,,,,,,5,9,9.5,10,10.5,11,0.5,0.25,0.25,2.25,10,initial,36.05,324,342,361,379,397,9,9,9,9,9,,,,,,,3,0,3,0,0,24,24,49,,,,,,,,,,,,num_4,0.8149714999599382,num_4,0.2,0.8,0.39999999999999997,0.8,15.2822,30.5644,return,1.511978599941358,,,,,,,,,,,,,,,,,905,23,female,up_down_width,2024-10-15_18h36.47.989,exp1,2023.1.0,59.998584008666015,
,,,,,,,,,,,,,,,,5,9,9.5,10,10.5,11,0.5,0.25,0.25,2.25,10,initial,36.05,324,342,361,379,397,9,9,9,9,9,,,,,,,3,0,3,0,0,25,25,19,,,,,,,,,,,,num_4,0.9032909999368712,num_4,0.45,0.7,0.25000000000000006,0.6,9.55138,22.9233,return,3.6107117000501603,,,,,,,,,,,,,,,,,905,23,female,up_down_width,2024-10-15_18h36.47.989,exp1,2023.1.0,59.998584008666015,
,,,,,,,,,,,,,,,,4,9.25,9.75,10.25,10.75,0,0.5,0.25,0.25,1.75,10,initial,36.05,333,351,370,388,0,9,9,9,9,0,,,,,,,3,0,3,0,0,26,26,41,,,,,,,,,,,,num_3,1.4134689000202343,num_3,0.55,0.6,0.25000000000000006,0.5,9.55138,19.10275,return,4.087918799952604,,,,,,,,,,,,,,,,,905,23,female,up_down_width,2024-10-15_18h36.47.989,exp1,2023.1.0,59.998584008666015,
,,,,,,,,,,,,,,,,5,9,9.5,10,10.5,11,0.5,0.25,0.25,2.25,10,initial,36.05,324,342,361,379,397,9,9,9,9,9,,,,,,,3,0,3,0,0,27,27,46,,,,,,,,,,,,num_4,0.8531641999725252,num_4,0.35,1.0,0.2,0.6,7.6411,22.9233,return,4.042294999933802,,,,,,,,,,,,,,,,,905,23,female,up_down_width,2024-10-15_18h36.47.989,exp1,2023.1.0,59.998584008666015,
,,,,,,,,,,,,,,,,4,9.25,9.75,10.25,10.75,0,0.5,0.25,0.25,1.75,10,initial,36.05,333,351,370,388,0,9,9,9,9,0,,,,,,,3,0,3,0,0,28,28,36,,,,,,,,,,,,num_3,1.1535290000028908,num_3,0.2,0.8,0.35,0.9,13.37193,34.38495,return,2.913458799943328,,,,,,,,,,,,,,,,,905,23,female,up_down_width,2024-10-15_18h36.47.989,exp1,2023.1.0,59.998584008666015,
,,,,,,,,,,,,,,,,4,9.25,9.75,10.25,10.75,0,0.5,0.25,0.25,1.75,10,initial,36.05,333,351,370,388,0,9,9,9,9,0,,,,,,,3,0,3,0,0,29,29,13,,,,,,,,,,,,num_3,1.1307647000066936,num_3,0.25,0.3,0.3,0.55,11.46165,21.01303,return,2.856798099935986,,,,,,,,,,,,,,,,,905,23,female,up_down_width,2024-10-15_18h36.47.989,exp1,2023.1.0,59.998584008666015,
,,,,,,,,,,,,,,,,4,9.25,9.75,10.25,10.75,0,0.5,0.25,0.25,1.75,10,initial,36.05,333,351,370,388,0,9,9,9,9,0,,,,,,,3,0,3,0,0,30,30,17,,,,,,,,,,,,num_3,0.7975210000295192,num_3,0.3,0.8,0.39999999999999997,0.85,15.2822,32.47468,return,2.470962900086306,,,,,,,,,,,,,,,,,905,23,female,up_down_width,2024-10-15_18h36.47.989,exp1,2023.1.0,59.998584008666015,
,,,,,,,,,,,,,,,,3,9.5,10,10.5,0,0,0.5,0.25,0.25,1.25,10,initial,36.05,342,361,379,0,0,9,9,9,0,0,,,,,,,3,0,3,0,0,31,31,35,,,,,,,,,,,,num_2,1.1159567999420688,num_2,0.2,0.8,0.3,0.6,11.46165,22.9233,return,2.7489461000077426,,,,,,,,,,,,,,,,,905,23,female,up_down_width,2024-10-15_18h36.47.989,exp1,2023.1.0,59.998584008666015,
,,,,,,,,,,,,,,,,4,9.25,9.75,10.25,10.75,0,0.5,0.25,0.25,1.75,10,initial,36.05,333,351,370,388,0,9,9,9,9,0,,,,,,,3,0,3,0,0,32,32,10,,,,,,,,,,,,num_3,0.979276500060223,num_3,0.45,0.7,0.25000000000000006,0.65,9.55138,24.83358,return,4.437530099996366,,,,,,,,,,,,,,,,,905,23,female,up_down_width,2024-10-15_18h36.47.989,exp1,2023.1.0,59.998584008666015,
,,,,,,,,,,,,,,,,4,9.25,9.75,10.25,10.75,0,0.5,0.25,0.25,1.75,10,initial,36.05,333,351,370,388,0,9,9,9,9,0,,,,,,,3,0,3,0,0,33,33,43,,,,,,,,,,,,num_3,1.0175707000307739,num_3,0.4,1.2,0.20000000000000007,0.85,7.6411,32.47468,return,3.259457000065595,,,,,,,,,,,,,,,,,905,23,female,up_down_width,2024-10-15_18h36.47.989,exp1,2023.1.0,59.998584008666015,
,,,,,,,,,,,,,,,,5,9,9.5,10,10.5,11,0.5,0.25,0.25,2.25,10,initial,36.05,324,342,361,379,397,9,9,9,9,9,,,,,,,3,0,3,0,0,34,34,21,,,,,,,,,,,,num_4,0.8631513000000268,num_4,0.45,0.5,0.25000000000000006,1.0,9.55138,38.2055,return,5.269932500086725,,,,,,,,,,,,,,,,,905,23,female,up_down_width,2024-10-15_18h36.47.989,exp1,2023.1.0,59.998584008666015,
,,,,,,,,,,,,,,,,5,9,9.5,10,10.5,11,0.5,0.25,0.25,2.25,10,initial,36.05,324,342,361,379,397,9,9,9,9,9,,,,,,,3,0,3,0,0,35,35,53,,,,,,,,,,,,num_4,0.9206666999962181,num_4,0.45,0.8,0.25000000000000006,0.8,9.55138,30.5644,return,2.6872241999953985,,,,,,,,,,,,,,,,,905,23,female,up_down_width,2024-10-15_18h36.47.989,exp1,2023.1.0,59.998584008666015,
,,,,,,,,,,,,,,,,3,9.5,10,10.5,0,0,0.5,0.25,0.25,1.25,10,initial,36.05,342,361,379,0,0,9,9,9,0,0,,,,,,,3,0,3,0,0,36,36,28,,,,,,,,,,,,num_2,1.0185031000291929,num_2,0.25,1.4,0.35,0.9,13.37193,34.38495,return,4.2996843999717385,,,,,,,,,,,,,,,,,905,23,female,up_down_width,2024-10-15_18h36.47.989,exp1,2023.1.0,59.998584008666015,
,,,,,,,,,,,,,,,,5,9,9.5,10,10.5,11,0.5,0.25,0.25,2.25,10,initial,36.05,324,342,361,379,397,9,9,9,9,9,,,,,,,3,0,3,0,0,37,37,23,,,,,,,,,,,,num_4,0.8978433000156656,num_4,0.35,0.7,0.25,0.7,9.55138,26.74385,return,4.301077900105156,,,,,,,,,,,,,,,,,905,23,female,up_down_width,2024-10-15_18h36.47.989,exp1,2023.1.0,59.998584008666015,
,,,,,,,,,,,,,,,,4,9.25,9.75,10.25,10.75,0,0.5,0.25,0.25,1.75,10,initial,36.05,333,351,370,388,0,9,9,9,9,0,,,,,,,3,0,3,0,0,38,38,11,,,,,,,,,,,,num_3,0.9908535999711603,num_3,0.5,0.6,0.25000000000000006,0.45,9.55138,17.19248,return,3.3176223000045866,,,,,,,,,,,,,,,,,905,23,female,up_down_width,2024-10-15_18h36.47.989,exp1,2023.1.0,59.998584008666015,
,,,,,,,,,,,,,,,,4,9.25,9.75,10.25,10.75,0,0.5,0.25,0.25,1.75,10,initial,36.05,333,351,370,388,0,9,9,9,9,0,,,,,,,3,0,3,0,0,39,39,14,,,,,,,,,,,,num_3,1.176386599894613,num_3,0.4,0.7,0.25000000000000006,0.6,9.55138,22.9233,return,3.327721899957396,,,,,,,,,,,,,,,,,905,23,female,up_down_width,2024-10-15_18h36.47.989,exp1,2023.1.0,59.998584008666015,
,,,,,,,,,,,,,,,,5,9,9.5,10,10.5,11,0.5,0.25,0.25,2.25,10,initial,36.05,324,342,361,379,397,9,9,9,9,9,,,,,,,3,0,3,0,0,40,40,25,,,,,,,,,,,,num_4,0.9161166000412777,num_4,0.45,0.9,0.25000000000000006,0.6,9.55138,22.9233,return,3.242373700020835,,,,,,,,,,,,,,,,,905,23,female,up_down_width,2024-10-15_18h36.47.989,exp1,2023.1.0,59.998584008666015,
,,,,,,,,,,,,,,,,3,9.5,10,10.5,0,0,0.5,0.25,0.25,1.25,10,initial,36.05,342,361,379,0,0,9,9,9,0,0,,,,,,,3,0,3,0,0,41,41,5,,,,,,,,,,,,num_2,0.8464384999824688,num_2,0.45,1.0,0.30000000000000004,0.8,11.46165,30.5644,return,5.048433699994348,,,,,,,,,,,,,,,,,905,23,female,up_down_width,2024-10-15_18h36.47.989,exp1,2023.1.0,59.998584008666015,
,,,,,,,,,,,,,,,,3,9.5,10,10.5,0,0,0.5,0.25,0.25,1.25,10,initial,36.05,342,361,379,0,0,9,9,9,0,0,,,,,,,3,0,3,0,0,42,42,30,,,,,,,,,,,,num_2,1.3360540999565274,num_2,0.35,0.4,0.25,0.6,9.55138,22.9233,return,5.534842799999751,,,,,,,,,,,,,,,,,905,23,female,up_down_width,2024-10-15_18h36.47.989,exp1,2023.1.0,59.998584008666015,
,,,,,,,,,,,,,,,,5,9,9.5,10,10.5,11,0.5,0.25,0.25,2.25,10,initial,36.05,324,342,361,379,397,9,9,9,9,9,,,,,,,3,0,3,0,0,43,43,18,,,,,,,,,,,,num_3,1.1279686000198126,num_3,0.5,1.1,0.35000000000000003,0.8,13.37193,30.5644,return,4.120849100057967,,,,,,,,,,,,,,,,,905,23,female,up_down_width,2024-10-15_18h36.47.989,exp1,2023.1.0,59.998584008666015,
,,,,,,,,,,,,,,,,3,9.5,10,10.5,0,0,0.5,0.25,0.25,1.25,10,initial,36.05,342,361,379,0,0,9,9,9,0,0,,,,,,,3,0,3,0,0,44,44,1,,,,,,,,,,,,num_2,0.8328773999819532,num_2,0.25,1.0,0.44999999999999996,0.8,17.19248,30.5644,return,2.6709280000068247,,,,,,,,,,,,,,,,,905,23,female,up_down_width,2024-10-15_18h36.47.989,exp1,2023.1.0,59.998584008666015,
,,,,,,,,,,,,,,,,5,9,9.5,10,10.5,11,0.5,0.25,0.25,2.25,10,initial,36.05,324,342,361,379,397,9,9,9,9,9,,,,,,,3,0,3,0,0,45,45,51,,,,,,,,,,,,num_4,0.8778194000478834,num_4,0.3,0.3,0.39999999999999997,0.7,15.2822,26.74385,return,5.5738832000643015,,,,,,,,,,,,,,,,,905,23,female,up_down_width,2024-10-15_18h36.47.989,exp1,2023.1.0,59.998584008666015,
,,,,,,,,,,,,,,,,4,9.25,9.75,10.25,10.75,0,0.5,0.25,0.25,1.75,10,initial,36.05,333,351,370,388,0,9,9,9,9,0,,,,,,,3,0,3,0,0,46,46,42,,,,,,,,,,,,num_4,1.1154791000299156,num_4,0.25,1.3,0.10000000000000002,0.6,3.82055,22.9233,return,3.6773473999928683,,,,,,,,,,,,,,,,,905,23,female,up_down_width,2024-10-15_18h36.47.989,exp1,2023.1.0,59.998584008666015,
,,,,,,,,,,,,,,,,3,9.5,10,10.5,0,0,0.5,0.25,0.25,1.25,10,initial,36.05,342,361,379,0,0,9,9,9,0,0,,,,,,,3,0,3,0,0,47,47,6,,,,,,,,,,,,num_2,0.8517732999753207,num_2,0.35,0.8,0.3,0.6,11.46165,22.9233,return,2.571039199945517,,,,,,,,,,,,,,,,,905,23,female,up_down_width,2024-10-15_18h36.47.989,exp1,2023.1.0,59.998584008666015,
,,,,,,,,,,,,,,,,3,9.5,10,10.5,0,0,0.5,0.25,0.25,1.25,10,initial,36.05,342,361,379,0,0,9,9,9,0,0,,,,,,,3,0,3,0,0,48,48,7,,,,,,,,,,,,num_2,0.8932085999986157,num_2,0.2,1.6,0.39999999999999997,0.9,15.2822,34.38495,return,4.019405899918638,,,,,,,,,,,,,,,,,905,23,female,up_down_width,2024-10-15_18h36.47.989,exp1,2023.1.0,59.998584008666015,
,,,,,,,,,,,,,,,,3,9.5,10,10.5,0,0,0.5,0.25,0.25,1.25,10,initial,36.05,342,361,379,0,0,9,9,9,0,0,,,,,,,3,0,3,0,0,49,49,29,,,,,,,,,,,,num_2,0.9995451000286266,num_2,0.35,0.6,0.35,0.8,13.37193,30.5644,return,1.5191626000450924,,,,,,,,,,,,,,,,,905,23,female,up_down_width,2024-10-15_18h36.47.989,exp1,2023.1.0,59.998584008666015,
,,,,,,,,,,,,,,,,3,9.5,10,10.5,0,0,0.5,0.25,0.25,1.25,10,initial,36.05,342,361,379,0,0,9,9,9,0,0,,,,,,,3,0,3,0,0,50,50,34,,,,,,,,,,,,num_2,0.8851274000480771,num_2,0.3,0.4,0.35,0.8,13.37193,30.5644,return,2.57476340001449,,,,,,,,,,,,,,,,,905,23,female,up_down_width,2024-10-15_18h36.47.989,exp1,2023.1.0,59.998584008666015,
,,,,,,,,,,,,,,,,3,9.5,10,10.5,0,0,0.5,0.25,0.25,1.25,10,initial,36.05,342,361,379,0,0,9,9,9,0,0,,,,,,,3,0,3,0,0,51,51,33,,,,,,,,,,,,num_2,0.8140965000493452,num_2,0.45,1.0,0.35000000000000003,0.7,13.37193,26.74385,return,3.863887000014074,,,,,,,,,,,,,,,,,905,23,female,up_down_width,2024-10-15_18h36.47.989,exp1,2023.1.0,59.998584008666015,
,,,,,,,,,,,,,,,,5,9,9.5,10,10.5,11,0.5,0.25,0.25,2.25,10,initial,36.05,324,342,361,379,397,9,9,9,9,9,,,,,,,3,0,3,0,0,52,52,47,,,,,,,,,,,,num_4,0.8953176999930292,num_4,0.25,1.0,0.35,0.9,13.37193,34.38495,return,2.8374364000046626,,,,,,,,,,,,,,,,,905,23,female,up_down_width,2024-10-15_18h36.47.989,exp1,2023.1.0,59.998584008666015,
,,,,,,,,,,,,,,,,3,9.5,10,10.5,0,0,0.5,0.25,0.25,1.25,10,initial,36.05,342,361,379,0,0,9,9,9,0,0,,,,,,,3,0,3,0,0,53,53,32,,,,,,,,,,,,num_2,0.9562195999315009,num_2,0.35,1.6,0.35,0.9,13.37193,34.38495,return,3.9000533999642357,,,,,,,,,,,,,,,,,905,23,female,up_down_width,2024-10-15_18h36.47.989,exp1,2023.1.0,59.998584008666015,
,,,,,,,,,,,,,,,,,,,,,,,,,,,,,,,,,,,,,,,,,,,,,3,0,3,0,,,,,,,,,,,,,,,,,,,,,,,,,,,,,2225.5204530999763,2225.5204530999763,2225.5204530999763,,,,,,,,,,,,905,23,female,up_down_width,2024-10-15_18h36.47.989,exp1,2023.1.0,59.998584008666015,
,,,,,,,,,,,,,,,,3,9.5,10,10.5,0,0,0.5,0.1,0.4,1.4000000000000001,10,initial,36.05,342,361,379,0,0,9,9,9,0,0,,,,,,,4,0,4,0,0,0,0,0,,,,,,,,,,,,num_2,1.298861199989915,num_2,0.2,0.8,0.44999999999999996,0.7,17.19248,26.74385,return,3.6453150999732316,,,,,,,,,,,,,,,,,905,23,female,up_down_width,2024-10-15_18h36.47.989,exp1,2023.1.0,59.998584008666015,
,,,,,,,,,,,,,,,,3,9.5,10,10.5,0,0,0.5,0.1,0.4,1.4000000000000001,10,initial,36.05,342,361,379,0,0,9,9,9,0,0,,,,,,,4,0,4,0,0,1,1,8,,,,,,,,,,,,num_2,0.9851693999953568,num_2,0.2,0.4,0.49999999999999994,0.7,19.10275,26.74385,return,3.771915499935858,,,,,,,,,,,,,,,,,905,23,female,up_down_width,2024-10-15_18h36.47.989,exp1,2023.1.0,59.998584008666015,
,,,,,,,,,,,,,,,,4,9.25,9.75,10.25,10.75,0,0.5,0.1,0.4,1.9000000000000001,10,initial,36.05,333,351,370,388,0,9,9,9,9,0,,,,,,,4,0,4,0,0,2,2,17,,,,,,,,,,,,num_3,1.122910700039938,num_3,0.45,0.7,0.55,0.7,21.01303,26.74385,return,2.063504899968393,,,,,,,,,,,,,,,,,905,23,female,up_down_width,2024-10-15_18h36.47.989,exp1,2023.1.0,59.998584008666015,
,,,,,,,,,,,,,,,,4,9.25,9.75,10.25,10.75,0,0.5,0.1,0.4,1.9000000000000001,10,initial,36.05,333,351,370,388,0,9,9,9,9,0,,,,,,,4,0,4,0,0,3,3,44,,,,,,,,,,,,num_3,1.1185842999257147,num_3,0.35,1.1,0.7000000000000001,0.85,26.74385,32.47468,return,3.888100099982694,,,,,,,,,,,,,,,,,905,23,female,up_down_width,2024-10-15_18h36.47.989,exp1,2023.1.0,59.998584008666015,
,,,,,,,,,,,,,,,,4,9.25,9.75,10.25,10.75,0,0.5,0.1,0.4,1.9000000000000001,10,initial,36.05,333,351,370,388,0,9,9,9,9,0,,,,,,,4,0,4,0,0,4,4,39,,,,,,,,,,,,num_3,1.5224428999936208,num_3,0.5,1.3,0.55,0.8,21.01303,30.5644,return,4.20409579994157,,,,,,,,,,,,,,,,,905,23,female,up_down_width,2024-10-15_18h36.47.989,exp1,2023.1.0,59.998584008666015,
,,,,,,,,,,,,,,,,5,9,9.5,10,10.5,11,0.5,0.1,0.4,2.4,10,initial,36.05,324,342,361,379,397,9,9,9,9,9,,,,,,,4,0,4,0,0,5,5,25,,,,,,,,,,,,num_4,0.9250041000777856,num_4,0.35,0.6,0.44999999999999996,0.6,17.19248,22.9233,return,1.7777293999679387,,,,,,,,,,,,,,,,,905,23,female,up_down_width,2024-10-15_18h36.47.989,exp1,2023.1.0,59.998584008666015,
,,,,,,,,,,,,,,,,5,9,9.5,10,10.5,11,0.5,0.1,0.4,2.4,10,initial,36.05,324,342,361,379,397,9,9,9,9,9,,,,,,,4,0,4,0,0,6,6,53,,,,,,,,,,,,num_4,0.9446794999530539,num_4,0.4,0.8,0.45,0.7,17.19248,26.74385,return,3.106897000106983,,,,,,,,,,,,,,,,,905,23,female,up_down_width,2024-10-15_18h36.47.989,exp1,2023.1.0,59.998584008666015,
,,,,,,,,,,,,,,,,5,9,9.5,10,10.5,11,0.5,0.1,0.4,2.4,10,initial,36.05,324,342,361,379,397,9,9,9,9,9,,,,,,,4,0,4,0,0,7,7,48,,,,,,,,,,,,num_4,0.9075311999768019,num_4,0.25,1.0,0.49999999999999994,0.6,19.10275,22.9233,return,2.76727780001238,,,,,,,,,,,,,,,,,905,23,female,up_down_width,2024-10-15_18h36.47.989,exp1,2023.1.0,59.998584008666015,
,,,,,,,,,,,,,,,,5,9,9.5,10,10.5,11,0.5,0.1,0.4,2.4,10,initial,36.05,324,342,361,379,397,9,9,9,9,9,,,,,,,4,0,4,0,0,8,8,46,,,,,,,,,,,,num_4,0.9214678999269381,num_4,0.2,0.5,0.49999999999999994,0.7,19.10275,26.74385,return,3.507022300036624,,,,,,,,,,,,,,,,,905,23,female,up_down_width,2024-10-15_18h36.47.989,exp1,2023.1.0,59.998584008666015,
,,,,,,,,,,,,,,,,5,9,9.5,10,10.5,11,0.5,0.1,0.4,2.4,10,initial,36.05,324,342,361,379,397,9,9,9,9,9,,,,,,,4,0,4,0,0,9,9,24,,,,,,,,,,,,num_4,0.8721299000317231,num_4,0.25,1.3,0.7000000000000001,1.0,26.74385,38.2055,return,3.4683601999422535,,,,,,,,,,,,,,,,,905,23,female,up_down_width,2024-10-15_18h36.47.989,exp1,2023.1.0,59.998584008666015,
,,,,,,,,,,,,,,,,5,9,9.5,10,10.5,11,0.5,0.1,0.4,2.4,10,initial,36.05,324,342,361,379,397,9,9,9,9,9,,,,,,,4,0,4,0,0,10,10,52,,,,,,,,,,,,num_4,1.1201686999993399,num_4,0.2,1.1,0.6,0.7,22.9233,26.74385,return,3.3382873999653384,,,,,,,,,,,,,,,,,905,23,female,up_down_width,2024-10-15_18h36.47.989,exp1,2023.1.0,59.998584008666015,
,,,,,,,,,,,,,,,,5,9,9.5,10,10.5,11,0.5,0.1,0.4,2.4,10,initial,36.05,324,342,361,379,397,9,9,9,9,9,,,,,,,4,0,4,0,0,11,11,45,,,,,,,,,,,,num_4,1.077985499985516,num_4,0.3,1.3,0.39999999999999997,0.5,15.2822,19.10275,return,4.418976100045256,,,,,,,,,,,,,,,,,905,23,female,up_down_width,2024-10-15_18h36.47.989,exp1,2023.1.0,59.998584008666015,
,,,,,,,,,,,,,,,,5,9,9.5,10,10.5,11,0.5,0.1,0.4,2.4,10,initial,36.05,324,342,361,379,397,9,9,9,9,9,,,,,,,4,0,4,0,0,12,12,19,,,,,,,,,,,,num_4,1.018610900035128,num_4,0.35,0.8,0.49999999999999994,0.7,19.10275,26.74385,return,2.364605200011283,,,,,,,,,,,,,,,,,905,23,female,up_down_width,2024-10-15_18h36.47.989,exp1,2023.1.0,59.998584008666015,
,,,,,,,,,,,,,,,,4,9.25,9.75,10.25,10.75,0,0.5,0.1,0.4,1.9000000000000001,10,initial,36.05,333,351,370,388,0,9,9,9,9,0,,,,,,,4,0,4,0,0,13,13,10,,,,,,,,,,,,num_3,1.076799700036645,num_3,0.55,1.2,0.45,0.65,17.19248,24.83358,return,4.756643200060353,,,,,,,,,,,,,,,,,905,23,female,up_down_width,2024-10-15_18h36.47.989,exp1,2023.1.0,59.998584008666015,
,,,,,,,,,,,,,,,,5,9,9.5,10,10.5,11,0.5,0.1,0.4,2.4,10,initial,36.05,324,342,361,379,397,9,9,9,9,9,,,,,,,4,0,4,0,0,14,14,23,,,,,,,,,,,,num_4,0.811105800094083,num_4,0.45,1.1,0.4,0.6,15.2822,22.9233,return,7.1386198999825865,,,,,,,,,,,,,,,,,905,23,female,up_down_width,2024-10-15_18h36.47.989,exp1,2023.1.0,59.998584008666015,
,,,,,,,,,,,,,,,,3,9.5,10,10.5,0,0,0.5,0.1,0.4,1.4000000000000001,10,initial,36.05,342,361,379,0,0,9,9,9,0,0,,,,,,,4,0,4,0,0,15,15,1,,,,,,,,,,,,num_2,1.1413575999904424,num_2,0.3,0.4,0.39999999999999997,0.6,15.2822,22.9233,return,2.4676710000494495,,,,,,,,,,,,,,,,,905,23,female,up_down_width,2024-10-15_18h36.47.989,exp1,2023.1.0,59.998584008666015,
,,,,,,,,,,,,,,,,3,9.5,10,10.5,0,0,0.5,0.1,0.4,1.4000000000000001,10,initial,36.05,342,361,379,0,0,9,9,9,0,0,,,,,,,4,0,4,0,0,16,16,29,,,,,,,,,,,,num_2,0.7620231999317184,num_2,0.2,0.6,0.49999999999999994,0.6,19.10275,22.9233,return,2.3109518999699503,,,,,,,,,,,,,,,,,905,23,female,up_down_width,2024-10-15_18h36.47.989,exp1,2023.1.0,59.998584008666015,
,,,,,,,,,,,,,,,,4,9.25,9.75,10.25,10.75,0,0.5,0.1,0.4,1.9000000000000001,10,initial,36.05,333,351,370,388,0,9,9,9,9,0,,,,,,,4,0,4,0,0,17,17,11,,,,,,,,,,,,num_3,0.9121984000084922,num_3,0.55,1.2,0.6000000000000001,0.75,22.9233,28.65413,return,4.389297500019893,,,,,,,,,,,,,,,,,905,23,female,up_down_width,2024-10-15_18h36.47.989,exp1,2023.1.0,59.998584008666015,
,,,,,,,,,,,,,,,,5,9,9.5,10,10.5,11,0.5,0.1,0.4,2.4,10,initial,36.05,324,342,361,379,397,9,9,9,9,9,,,,,,,4,0,4,0,0,18,18,26,,,,,,,,,,,,num_4,1.0277845999225974,num_4,0.4,1.0,0.5,0.6,19.10275,22.9233,return,2.387708400026895,,,,,,,,,,,,,,,,,905,23,female,up_down_width,2024-10-15_18h36.47.989,exp1,2023.1.0,59.998584008666015,
,,,,,,,,,,,,,,,,4,9.25,9.75,10.25,10.75,0,0.5,0.1,0.4,1.9000000000000001,10,initial,36.05,333,351,370,388,0,9,9,9,9,0,,,,,,,4,0,4,0,0,19,19,14,,,,,,,,,,,,num_3,1.1975038000382483,num_3,0.45,1.3,0.5,0.75,19.10275,28.65413,return,8.10351000004448,,,,,,,,,,,,,,,,,905,23,female,up_down_width,2024-10-15_18h36.47.989,exp1,2023.1.0,59.998584008666015,
,,,,,,,,,,,,,,,,3,9.5,10,10.5,0,0,0.5,0.1,0.4,1.4000000000000001,10,initial,36.05,342,361,379,0,0,9,9,9,0,0,,,,,,,4,0,4,0,0,20,20,6,,,,,,,,,,,,num_2,0.9372653999598697,num_2,0.45,1.4,0.4,0.6,15.2822,22.9233,return,5.1009190999902785,,,,,,,,,,,,,,,,,905,23,female,up_down_width,2024-10-15_18h36.47.989,exp1,2023.1.0,59.998584008666015,
,,,,,,,,,,,,,,,,3,9.5,10,10.5,0,0,0.5,0.1,0.4,1.4000000000000001,10,initial,36.05,342,361,379,0,0,9,9,9,0,0,,,,,,,4,0,4,0,0,21,21,3,,,,,,,,,,,,num_2,0.7698240999598056,num_2,0.5,0.8,0.55,0.8,21.01303,30.5644,return,1.1652891000267118,,,,,,,,,,,,,,,,,905,23,female,up_down_width,2024-10-15_18h36.47.989,exp1,2023.1.0,59.998584008666015,
,,,,,,,,,,,,,,,,3,9.5,10,10.5,0,0,0.5,0.1,0.4,1.4000000000000001,10,initial,36.05,342,361,379,0,0,9,9,9,0,0,,,,,,,4,0,4,0,0,22,22,34,,,,,,,,,,,,num_2,0.7787181000458077,num_2,0.35,1.6,0.39999999999999997,0.7,15.2822,26.74385,return,3.451101899961941,,,,,,,,,,,,,,,,,905,23,female,up_down_width,2024-10-15_18h36.47.989,exp1,2023.1.0,59.998584008666015,
,,,,,,,,,,,,,,,,4,9.25,9.75,10.25,10.75,0,0.5,0.1,0.4,1.9000000000000001,10,initial,36.05,333,351,370,388,0,9,9,9,9,0,,,,,,,4,0,4,0,0,23,23,15,,,,,,,,,,,,num_3,0.8341033000033349,num_3,0.55,0.7,0.55,0.7,21.01303,26.74385,return,1.0046299999812618,,,,,,,,,,,,,,,,,905,23,female,up_down_width,2024-10-15_18h36.47.989,exp1,2023.1.0,59.998584008666015,
,,,,,,,,,,,,,,,,5,9,9.5,10,10.5,11,0.5,0.1,0.4,2.4,10,initial,36.05,324,342,361,379,397,9,9,9,9,9,,,,,,,4,0,4,0,0,24,24,50,,,,,,,,,,,,num_4,0.969580200035125,num_4,0.4,0.8,0.5,0.7,19.10275,26.74385,return,2.5614409000845626,,,,,,,,,,,,,,,,,905,23,female,up_down_width,2024-10-15_18h36.47.989,exp1,2023.1.0,59.998584008666015,
,,,,,,,,,,,,,,,,4,9.25,9.75,10.25,10.75,0,0.5,0.1,0.4,1.9000000000000001,10,initial,36.05,333,351,370,388,0,9,9,9,9,0,,,,,,,4,0,4,0,0,25,25,37,,,,,,,,,,,,num_3,1.013372200075537,num_3,0.45,1,0.45,0.75,17.19248,28.65413,return,5.271254299907014,,,,,,,,,,,,,,,,,905,23,female,up_down_width,2024-10-15_18h36.47.989,exp1,2023.1.0,59.998584008666015,
,,,,,,,,,,,,,,,,4,9.25,9.75,10.25,10.75,0,0.5,0.1,0.4,1.9000000000000001,10,initial,36.05,333,351,370,388,0,9,9,9,9,0,,,,,,,4,0,4,0,0,26,26,13,,,,,,,,,,,,num_3,1.2639604998985305,num_3,0.5,1.2,0.5,0.7,19.10275,26.74385,return,2.773966300068423,,,,,,,,,,,,,,,,,905,23,female,up_down_width,2024-10-15_18h36.47.989,exp1,2023.1.0,59.998584008666015,
,,,,,,,,,,,,,,,,5,9,9.5,10,10.5,11,0.5,0.1,0.4,2.4,10,initial,36.05,324,342,361,379,397,9,9,9,9,9,,,,,,,4,0,4,0,0,27,27,22,,,,,,,,,,,,num_4,0.7999055000254884,num_4,0.2,1.1,0.49999999999999994,0.7,19.10275,26.74385,return,5.518723099958152,,,,,,,,,,,,,,,,,905,23,female,up_down_width,2024-10-15_18h36.47.989,exp1,2023.1.0,59.998584008666015,
,,,,,,,,,,,,,,,,4,9.25,9.75,10.25,10.75,0,0.5,0.1,0.4,1.9000000000000001,10,initial,36.05,333,351,370,388,0,9,9,9,9,0,,,,,,,4,0,4,0,0,28,28,12,,,,,,,,,,,,num_3,1.0174447000026703,num_3,0.25,1,0.5499999999999999,0.85,21.01303,32.47468,return,4.091991699999198,,,,,,,,,,,,,,,,,905,23,female,up_down_width,2024-10-15_18h36.47.989,exp1,2023.1.0,59.998584008666015,
,,,,,,,,,,,,,,,,5,9,9.5,10,10.5,11,0.5,0.1,0.4,2.4,10,initial,36.05,324,342,361,379,397,9,9,9,9,9,,,,,,,4,0,4,0,0,29,29,20,,,,,,,,,,,,num_4,0.7707037999061868,num_4,0.2,1.1,0.5499999999999999,0.7,21.01303,26.74385,return,3.007711200043559,,,,,,,,,,,,,,,,,905,23,female,up_down_width,2024-10-15_18h36.47.989,exp1,2023.1.0,59.998584008666015,
,,,,,,,,,,,,,,,,5,9,9.5,10,10.5,11,0.5,0.1,0.4,2.4,10,initial,36.05,324,342,361,379,397,9,9,9,9,9,,,,,,,4,0,4,0,0,30,30,49,,,,,,,,,,,,num_3,1.0428198999725282,num_3,0.45,0.8,0.55,0.8,21.01303,30.5644,return,1.7517012000316754,,,,,,,,,,,,,,,,,905,23,female,up_down_width,2024-10-15_18h36.47.989,exp1,2023.1.0,59.998584008666015,
,,,,,,,,,,,,,,,,4,9.25,9.75,10.25,10.75,0,0.5,0.1,0.4,1.9000000000000001,10,initial,36.05,333,351,370,388,0,9,9,9,9,0,,,,,,,4,0,4,0,0,31,31,36,,,,,,,,,,,,num_3,0.8636599000310525,num_3,0.35,1.1,0.6,0.85,22.9233,32.47468,return,2.6977142998948693,,,,,,,,,,,,,,,,,905,23,female,up_down_width,2024-10-15_18h36.47.989,exp1,2023.1.0,59.998584008666015,
,,,,,,,,,,,,,,,,3,9.5,10,10.5,0,0,0.5,0.1,0.4,1.4000000000000001,10,initial,36.05,342,361,379,0,0,9,9,9,0,0,,,,,,,4,0,4,0,0,32,32,2,,,,,,,,,,,,num_2,1.030964499921538,num_2,0.55,0.8,0.6000000000000001,0.9,22.9233,34.38495,return,3.509972099913284,,,,,,,,,,,,,,,,,905,23,female,up_down_width,2024-10-15_18h36.47.989,exp1,2023.1.0,59.998584008666015,
,,,,,,,,,,,,,,,,3,9.5,10,10.5,0,0,0.5,0.1,0.4,1.4000000000000001,10,initial,36.05,342,361,379,0,0,9,9,9,0,0,,,,,,,4,0,4,0,0,33,33,28,,,,,,,,,,,,num_3,1.4798016001004726,num_3,0.5,0.8,0.45,0.65,17.19248,24.83358,return,3.615834799944423,,,,,,,,,,,,,,,,,905,23,female,up_down_width,2024-10-15_18h36.47.989,exp1,2023.1.0,59.998584008666015,
,,,,,,,,,,,,,,,,4,9.25,9.75,10.25,10.75,0,0.5,0.1,0.4,1.9000000000000001,10,initial,36.05,333,351,370,388,0,9,9,9,9,0,,,,,,,4,0,4,0,0,34,34,9,,,,,,,,,,,,num_3,0.8453512000851333,num_3,0.3,0.5,0.44999999999999996,0.55,17.19248,21.01303,return,3.371265899972059,,,,,,,,,,,,,,,,,905,23,female,up_down_width,2024-10-15_18h36.47.989,exp1,2023.1.0,59.998584008666015,
,,,,,,,,,,,,,,,,3,9.5,10,10.5,0,0,0.5,0.1,0.4,1.4000000000000001,10,initial,36.05,342,361,379,0,0,9,9,9,0,0,,,,,,,4,0,4,0,0,35,35,5,,,,,,,,,,,,num_2,0.8372689000098035,num_2,0.2,1.6,0.6,0.8,22.9233,30.5644,return,3.791835800046101,,,,,,,,,,,,,,,,,905,23,female,up_down_width,2024-10-15_18h36.47.989,exp1,2023.1.0,59.998584008666015,
,,,,,,,,,,,,,,,,3,9.5,10,10.5,0,0,0.5,0.1,0.4,1.4000000000000001,10,initial,36.05,342,361,379,0,0,9,9,9,0,0,,,,,,,4,0,4,0,0,36,36,30,,,,,,,,,,,,num_2,0.8345187000231817,num_2,0.4,0.6,0.5,0.7,19.10275,26.74385,return,2.8935208999319,,,,,,,,,,,,,,,,,905,23,female,up_down_width,2024-10-15_18h36.47.989,exp1,2023.1.0,59.998584008666015,
,,,,,,,,,,,,,,,,4,9.25,9.75,10.25,10.75,0,0.5,0.1,0.4,1.9000000000000001,10,initial,36.05,333,351,370,388,0,9,9,9,9,0,,,,,,,4,0,4,0,0,37,37,41,,,,,,,,,,,,num_3,0.7804146000416949,num_3,0.4,0.9,0.55,0.8,21.01303,30.5644,return,2.987591900047846,,,,,,,,,,,,,,,,,905,23,female,up_down_width,2024-10-15_18h36.47.989,exp1,2023.1.0,59.998584008666015,
,,,,,,,,,,,,,,,,3,9.5,10,10.5,0,0,0.5,0.1,0.4,1.4000000000000001,10,initial,36.05,342,361,379,0,0,9,9,9,0,0,,,,,,,4,0,4,0,0,38,38,32,,,,,,,,,,,,num_2,0.7321266999933869,num_2,0.3,1.4,0.65,0.9,24.83358,34.38495,return,3.1661259999964386,,,,,,,,,,,,,,,,,905,23,female,up_down_width,2024-10-15_18h36.47.989,exp1,2023.1.0,59.998584008666015,
,,,,,,,,,,,,,,,,3,9.5,10,10.5,0,0,0.5,0.1,0.4,1.4000000000000001,10,initial,36.05,342,361,379,0,0,9,9,9,0,0,,,,,,,4,0,4,0,0,39,39,33,,,,,,,,,,,,num_2,1.0142012999858707,num_2,0.3,0.6,0.49999999999999994,0.8,19.10275,30.5644,return,2.8763645999133587,,,,,,,,,,,,,,,,,905,23,female,up_down_width,2024-10-15_18h36.47.989,exp1,2023.1.0,59.998584008666015,
,,,,,,,,,,,,,,,,5,9,9.5,10,10.5,11,0.5,0.1,0.4,2.4,10,initial,36.05,324,342,361,379,397,9,9,9,9,9,,,,,,,4,0,4,0,0,40,40,18,,,,,,,,,,,,num_3,1.050833799992688,num_3,0.5,1.2,0.7000000000000002,0.9,26.74385,34.38495,return,2.6494307999964803,,,,,,,,,,,,,,,,,905,23,female,up_down_width,2024-10-15_18h36.47.989,exp1,2023.1.0,59.998584008666015,
,,,,,,,,,,,,,,,,4,9.25,9.75,10.25,10.75,0,0.5,0.1,0.4,1.9000000000000001,10,initial,36.05,333,351,370,388,0,9,9,9,9,0,,,,,,,4,0,4,0,0,41,41,38,,,,,,,,,,,,num_3,0.9491935999831185,num_3,0.25,1.2,0.39999999999999997,0.7,15.2822,26.74385,return,5.308703199960291,,,,,,,,,,,,,,,,,905,23,female,up_down_width,2024-10-15_18h36.47.989,exp1,2023.1.0,59.998584008666015,
,,,,,,,,,,,,,,,,4,9.25,9.75,10.25,10.75,0,0.5,0.1,0.4,1.9000000000000001,10,initial,36.05,333,351,370,388,0,9,9,9,9,0,,,,,,,4,0,4,0,0,42,42,42,,,,,,,,,,,,num_3,0.8832929999334738,num_3,0.2,0.5,0.44999999999999996,0.55,17.19248,21.01303,return,3.2963733000215143,,,,,,,,,,,,,,,,,905,23,female,up_down_width,2024-10-15_18h36.47.989,exp1,2023.1.0,59.998584008666015,
,,,,,,,,,,,,,,,,5,9,9.5,10,10.5,11,0.5,0.1,0.4,2.4,10,initial,36.05,324,342,361,379,397,9,9,9,9,9,,,,,,,4,0,4,0,0,43,43,47,,,,,,,,,,,,num_4,0.8573803000617772,num_4,0.3,0.7,0.49999999999999994,0.7,19.10275,26.74385,return,2.3687729999655858,,,,,,,,,,,,,,,,,905,23,female,up_down_width,2024-10-15_18h36.47.989,exp1,2023.1.0,59.998584008666015,
,,,,,,,,,,,,,,,,4,9.25,9.75,10.25,10.75,0,0.5,0.1,0.4,1.9000000000000001,10,initial,36.05,333,351,370,388,0,9,9,9,9,0,,,,,,,4,0,4,0,0,44,44,43,,,,,,,,,,,,num_3,1.1443813999649137,num_3,0.35,0.7,0.5499999999999999,0.7,21.01303,26.74385,return,1.7156241999473423,,,,,,,,,,,,,,,,,905,23,female,up_down_width,2024-10-15_18h36.47.989,exp1,2023.1.0,59.998584008666015,
,,,,,,,,,,,,,,,,4,9.25,9.75,10.25,10.75,0,0.5,0.1,0.4,1.9000000000000001,10,initial,36.05,333,351,370,388,0,9,9,9,9,0,,,,,,,4,0,4,0,0,45,45,40,,,,,,,,,,,,num_3,1.4795164000242949,num_3,0.2,0.5,0.49999999999999994,0.7,19.10275,26.74385,return,3.4516460000304505,,,,,,,,,,,,,,,,,905,23,female,up_down_width,2024-10-15_18h36.47.989,exp1,2023.1.0,59.998584008666015,
,,,,,,,,,,,,,,,,3,9.5,10,10.5,0,0,0.5,0.1,0.4,1.4000000000000001,10,initial,36.05,342,361,379,0,0,9,9,9,0,0,,,,,,,4,0,4,0,0,46,46,27,,,,,,,,,,,,num_2,0.7768746999790892,num_2,0.25,0.6,0.39999999999999997,0.6,15.2822,22.9233,return,3.5708246999420226,,,,,,,,,,,,,,,,,905,23,female,up_down_width,2024-10-15_18h36.47.989,exp1,2023.1.0,59.998584008666015,
,,,,,,,,,,,,,,,,4,9.25,9.75,10.25,10.75,0,0.5,0.1,0.4,1.9000000000000001,10,initial,36.05,333,351,370,388,0,9,9,9,9,0,,,,,,,4,0,4,0,0,47,47,16,,,,,,,,,,,,num_3,1.0307302000001073,num_3,0.3,1,0.6,0.9,22.9233,34.38495,return,3.8819065999705344,,,,,,,,,,,,,,,,,905,23,female,up_down_width,2024-10-15_18h36.47.989,exp1,2023.1.0,59.998584008666015,
,,,,,,,,,,,,,,,,3,9.5,10,10.5,0,0,0.5,0.1,0.4,1.4000000000000001,10,initial,36.05,342,361,379,0,0,9,9,9,0,0,,,,,,,4,0,4,0,0,48,48,4,,,,,,,,,,,,num_2,0.8880751000251621,num_2,0.4,1.0,0.55,0.7,21.01303,26.74385,return,2.148867000010796,,,,,,,,,,,,,,,,,905,23,female,up_down_width,2024-10-15_18h36.47.989,exp1,2023.1.0,59.998584008666015,
,,,,,,,,,,,,,,,,3,9.5,10,10.5,0,0,0.5,0.1,0.4,1.4000000000000001,10,initial,36.05,342,361,379,0,0,9,9,9,0,0,,,,,,,4,0,4,0,0,49,49,31,,,,,,,,,,,,num_2,0.7894050000468269,num_2,0.3,1.2,0.5499999999999999,0.7,21.01303,26.74385,return,4.4008742000442,,,,,,,,,,,,,,,,,905,23,female,up_down_width,2024-10-15_18h36.47.989,exp1,2023.1.0,59.998584008666015,
,,,,,,,,,,,,,,,,3,9.5,10,10.5,0,0,0.5,0.1,0.4,1.4000000000000001,10,initial,36.05,342,361,379,0,0,9,9,9,0,0,,,,,,,4,0,4,0,0,50,50,7,,,,,,,,,,,,num_2,0.8771244999952614,num_2,0.3,0.8,0.49999999999999994,0.6,19.10275,22.9233,return,2.2824432000052184,,,,,,,,,,,,,,,,,905,23,female,up_down_width,2024-10-15_18h36.47.989,exp1,2023.1.0,59.998584008666015,
,,,,,,,,,,,,,,,,3,9.5,10,10.5,0,0,0.5,0.1,0.4,1.4000000000000001,10,initial,36.05,342,361,379,0,0,9,9,9,0,0,,,,,,,4,0,4,0,0,51,51,35,,,,,,,,,,,,num_2,0.853973500081338,num_2,0.55,0.8,0.6000000000000001,0.8,22.9233,30.5644,return,2.3348057999974117,,,,,,,,,,,,,,,,,905,23,female,up_down_width,2024-10-15_18h36.47.989,exp1,2023.1.0,59.998584008666015,
,,,,,,,,,,,,,,,,5,9,9.5,10,10.5,11,0.5,0.1,0.4,2.4,10,initial,36.05,324,342,361,379,397,9,9,9,9,9,,,,,,,4,0,4,0,0,52,52,21,,,,,,,,,,,,num_4,1.329646100057289,num_4,0.35,0.8,0.6,0.8,22.9233,30.5644,return,2.10399299999699,,,,,,,,,,,,,,,,,905,23,female,up_down_width,2024-10-15_18h36.47.989,exp1,2023.1.0,59.998584008666015,
,,,,,,,,,,,,,,,,5,9,9.5,10,10.5,11,0.5,0.1,0.4,2.4,10,initial,36.05,324,342,361,379,397,9,9,9,9,9,,,,,,,4,0,4,0,0,53,53,51,,,,,,,,,,,,num_4,0.8945314000593498,num_4,0.3,1.3,0.49999999999999994,0.8,19.10275,30.5644,return,4.453351499978453,,,,,,,,,,,,,,,,,905,23,female,up_down_width,2024-10-15_18h36.47.989,exp1,2023.1.0,59.998584008666015,
,,,,,,,,,,,,,,,,,,,,,,,,,,,,,,,,,,,,,,,,,,,,,4,0,4,0,,,,,,,,,,,,,,,,,,,,,,,,,,,,,2549.536455699941,2549.536455699941,2549.536455699941,,,,,,,,,,,,905,23,female,up_down_width,2024-10-15_18h36.47.989,exp1,2023.1.0,59.998584008666015,
,,,,,,,,,,,,,,,,3,9.1,10,10.9,0,0,0.9,0.35,0.55,2.35,10,initial,36.05,328,361,393,0,0,9,9,9,0,0,,,,,,,5,0,5,0,0,0,0,33,,,,,,,,,,,,num_2,1.1178071000613272,num_2,0.2,0.8,0.44999999999999996,0.8,17.19248,30.5644,return,6.683720399974845,,,,,,,,,,,,,,,,,905,23,female,up_down_width,2024-10-15_18h36.47.989,exp1,2023.1.0,59.998584008666015,
,,,,,,,,,,,,,,,,3,9.1,10,10.9,0,0,0.9,0.35,0.55,2.35,10,initial,36.05,328,361,393,0,0,9,9,9,0,0,,,,,,,5,0,5,0,0,1,1,3,,,,,,,,,,,,num_2,0.9251642000162974,num_2,0.2,0.4,0.49999999999999994,0.9,19.10275,34.38495,return,3.5666896000038832,,,,,,,,,,,,,,,,,905,23,female,up_down_width,2024-10-15_18h36.47.989,exp1,2023.1.0,59.998584008666015,
,,,,,,,,,,,,,,,,4,8.65,9.55,10.45,11.35,0,0.9,0.35,0.55,3.25,10,initial,36.05,312,344,377,409,0,9,9,9,9,0,,,,,,,5,0,5,0,0,2,2,44,,,,,,,,,,,,num_3,0.9973859000019729,num_3,0.4,1,0.4,1,15.2822,38.2055,return,1.2888703999342397,,,,,,,,,,,,,,,,,905,23,female,up_down_width,2024-10-15_18h36.47.989,exp1,2023.1.0,59.998584008666015,
,,,,,,,,,,,,,,,,4,8.65,9.55,10.45,11.35,0,0.9,0.35,0.55,3.25,10,initial,36.05,312,344,377,409,0,9,9,9,9,0,,,,,,,5,0,5,0,0,3,3,12,,,,,,,,,,,,num_3,1.0492422000970691,num_3,0.5,0.6,0.5,0.95,19.10275,36.29523,return,2.6491517999675125,,,,,,,,,,,,,,,,,905,23,female,up_down_width,2024-10-15_18h36.47.989,exp1,2023.1.0,59.998584008666015,
,,,,,,,,,,,,,,,,4,8.65,9.55,10.45,11.35,0,0.9,0.35,0.55,3.25,10,initial,36.05,312,344,377,409,0,9,9,9,9,0,,,,,,,5,0,5,0,0,4,4,38,,,,,,,,,,,,num_3,1.159473399980925,num_3,0.25,1.1,0.5499999999999999,0.95,21.01303,36.29523,return,3.1118910999502987,,,,,,,,,,,,,,,,,905,23,female,up_down_width,2024-10-15_18h36.47.989,exp1,2023.1.0,59.998584008666015,
,,,,,,,,,,,,,,,,4,8.65,9.55,10.45,11.35,0,0.9,0.35,0.55,3.25,10,initial,36.05,312,344,377,409,0,9,9,9,9,0,,,,,,,5,0,5,0,0,5,5,37,,,,,,,,,,,,num_3,0.8525556999957189,num_3,0.25,0.7,0.5499999999999999,0.9,21.01303,34.38495,return,4.239148500026204,,,,,,,,,,,,,,,,,905,23,female,up_down_width,2024-10-15_18h36.47.989,exp1,2023.1.0,59.998584008666015,
,,,,,,,,,,,,,,,,4,8.65,9.55,10.45,11.35,0,0.9,0.35,0.55,3.25,10,initial,36.05,312,344,377,409,0,9,9,9,9,0,,,,,,,5,0,5,0,0,6,6,43,,,,,,,,,,,,num_3,0.8254387000342831,num_3,0.25,1,0.5499999999999999,1.05,21.01303,40.11578,return,3.47508140001446,,,,,,,,,,,,,,,,,905,23,female,up_down_width,2024-10-15_18h36.47.989,exp1,2023.1.0,59.998584008666015,
,,,,,,,,,,,,,,,,5,8.2,9.1,10,10.9,11.8,0.9,0.35,0.55,4.15,10,initial,36.05,296,328,361,393,425,9,9,9,9,9,,,,,,,5,0,5,0,0,7,7,22,,,,,,,,,,,,num_4,0.8954581000143662,num_4,0.3,0.9,0.5499999999999999,1.0,21.01303,38.2055,return,2.885058799991384,,,,,,,,,,,,,,,,,905,23,female,up_down_width,2024-10-15_18h36.47.989,exp1,2023.1.0,59.998584008666015,
,,,,,,,,,,,,,,,,3,9.1,10,10.9,0,0,0.9,0.35,0.55,2.35,10,initial,36.05,328,361,393,0,0,9,9,9,0,0,,,,,,,5,0,5,0,0,8,8,31,,,,,,,,,,,,num_2,0.8237584000453353,num_2,0.5,1.0,0.5,1.2,19.10275,45.8466,return,2.7384543999796733,,,,,,,,,,,,,,,,,905,23,female,up_down_width,2024-10-15_18h36.47.989,exp1,2023.1.0,59.998584008666015,
