amount_p,posx1_p,posx2_p,posx3_p,posx4_p,posx5_p,center_to_center_p,edge_to_edge_p,w_p,stim_length_p,eccentricity_p,line1_p,line2_p,line3_p,line4_p,line5_p,amount,posx1,posx2,posx3,posx4,posx5,center_to_center,edge_to_edge,w,stim_length,eccentricity,trial_type,deg_to_pix_index,posx1_in_pix,posx2_in_pix,posx3_in_pix,posx4_in_pix,posx5_in_pix,line1,line2,line3,line4,line5,posx,setsize_cobdi,trials.thisRepN,trials.thisTrialN,trials.thisN,trials.thisIndex,blocks.thisRepN,blocks.thisTrialN,blocks.thisN,blocks.thisIndex,loop.thisRepN,loop.thisTrialN,loop.thisN,loop.thisIndex,first.thisRepN,first.thisTrialN,first.thisN,first.thisIndex,second.thisRepN,second.thisTrialN,second.thisN,second.thisIndex,key_resp_3.started,key_resp_3.keys,key_resp_3.rt,key_resp.keys,key_resp.rt,response,starting_width_deg,starting_space_deg,response_width_degree,response_spacing_degree,response_width_pixel,response_spacing_pixel,next_5.keys,next_5.rt,key_resp_4.keys,key_resp_4.rt,text_3.started,text_4.started,key_resp_2.started,text_2.started,key_resp_2.keys,key_resp_2.rt,adjusting.started,next.keys,next.rt,text_control2.started,key_resp.started,key_resp.corr,text_bye.started,text_bye.stopped,participant,age,gender,resp_group,date,expName,psychopyVersion,frameRate,
,,,,,,,,,,,,,,,,,,,,,,,,,,,,,,,,,,,,,,,,,,,,,,,,,,,,,,,,,,,,,126.03263659996446,c,203.8754471000284,,,,,,,,,,,,,,,,,,,,,,,,,,,,909,22,male,up_down_width,2024-10-18_15h36.41.779,exp1,2023.1.0,60.16673404820172,
3,9.5,10,10.5,0,0,0.5,0.25,0.25,1.25,10,9,9,9,0,0,,,,,,,,,,,,,,,,,,,,,,,,,,0,0,0,0,,,,,,,,,,,,,,,,,,,,num_3,4.007576799951494,num_3,0.2,0.5,0.10000000000000002,0.45,3.82055,17.19248,return,20.693943799939007,,,,,,,,,,,,,,,,,909,22,male,up_down_width,2024-10-18_15h36.41.779,exp1,2023.1.0,60.16673404820172,
5,9,9.5,10,10.5,11,0.5,0.1,0.4,2.4,10,9,9,9,9,9,,,,,,,,,,,,,,,,,,,,,,,,,,0,1,1,5,,,,,,,,,,,,,,,,,,,,num_3,2.9574047999922186,num_3,0.2,0.5,0.35,0.8,13.37193,30.5644,return,10.037986199953593,,,,,,,,,,,,,,,,,909,22,male,up_down_width,2024-10-18_15h36.41.779,exp1,2023.1.0,60.16673404820172,
3,9.1,10,10.9,0,0,0.9,0.35,0.55,2.35,10,9,9,9,0,0,,,,,,,,,,,,,,,,,,,,,,,,,,0,2,2,3,,,,,,,,,,,,,,,,,,,,num_3,2.4529442000202835,num_3,0.35,1.2,0.3,1.1,11.46165,42.02605,return,5.1173166000517085,,,,,,,,,,,,,,,,,909,22,male,up_down_width,2024-10-18_15h36.41.779,exp1,2023.1.0,60.16673404820172,
4,9.25,9.75,10.25,10.75,0,0.5,0.1,0.4,1.9000000000000001,10,9,9,9,9,0,,,,,,,,,,,,,,,,,,,,,,,,,,0,3,3,4,,,,,,,,,,,,,,,,,,,,num_3,2.069550200016238,num_3,0.25,0.4,0.39999999999999997,0.55,15.2822,21.01303,return,5.886548700043932,,,,,,,,,,,,,,,,,909,22,male,up_down_width,2024-10-18_15h36.41.779,exp1,2023.1.0,60.16673404820172,
4,9.25,9.75,10.25,10.75,0,0.5,0.25,0.25,1.75,10,9,9,9,9,0,,,,,,,,,,,,,,,,,,,,,,,,,,0,4,4,1,,,,,,,,,,,,,,,,,,,,num_3,1.843620999949053,num_3,0.35,0.9,0.10000000000000002,0.5,3.82055,19.10275,return,9.55446260003373,,,,,,,,,,,,,,,,,909,22,male,up_down_width,2024-10-18_15h36.41.779,exp1,2023.1.0,60.16673404820172,
5,8.2,9.1,10,10.9,11.8,0.9,0.35,0.55,4.15,10,9,9,9,9,9,,,,,,,,,,,,,,,,,,,,,,,,,,0,5,5,2,,,,,,,,,,,,,,,,,,,,num_4,1.5316193000180647,num_4,0.55,1.1,0.55,1.1,21.01303,42.02605,return,4.248173000058159,,,,,,,,,,,,,,,,,909,22,male,up_down_width,2024-10-18_15h36.41.779,exp1,2023.1.0,60.16673404820172,
,,,,,,,,,,,,,,,,,,,,,,,,,,,,,,,,,,,,,,,,,,,,,,,,,,,,,,,,,,,,,,,,,,,,,,,,,,,c,95.1538234000327,,,,,,,,,,,,,,,909,22,male,up_down_width,2024-10-18_15h36.41.779,exp1,2023.1.0,60.16673404820172,
,,,,,,,,,,,,,,,,4,9.25,9.75,10.25,10.75,0,0.5,0.1,0.4,1.9000000000000001,10,initial,36.05,333,351,370,388,0,9,9,9,9,0,,,,,,,0,0,0,0,0,0,0,15,,,,,,,,,,,,num_4,1.9992976000066847,num_4,0.35,0.6,0.2,0.6,7.6411,22.9233,return,2.8787113999715075,,,,,,,,,,,,,,,,,909,22,male,up_down_width,2024-10-18_15h36.41.779,exp1,2023.1.0,60.16673404820172,
,,,,,,,,,,,,,,,,3,9.5,10,10.5,0,0,0.5,0.1,0.4,1.4000000000000001,10,initial,36.05,342,361,379,0,0,9,9,9,0,0,,,,,,,0,0,0,0,0,1,1,4,,,,,,,,,,,,num_3,1.167115499963984,num_3,0.25,0.5,0.25,0.6,9.55138,22.9233,return,3.390940699959174,,,,,,,,,,,,,,,,,909,22,male,up_down_width,2024-10-18_15h36.41.779,exp1,2023.1.0,60.16673404820172,
,,,,,,,,,,,,,,,,4,9.25,9.75,10.25,10.75,0,0.5,0.1,0.4,1.9000000000000001,10,initial,36.05,333,351,370,388,0,9,9,9,9,0,,,,,,,0,0,0,0,0,2,2,44,,,,,,,,,,,,num_4,1.097172599984333,num_4,0.55,0.7,0.25000000000000006,0.6,9.55138,22.9233,return,6.615399800008163,,,,,,,,,,,,,,,,,909,22,male,up_down_width,2024-10-18_15h36.41.779,exp1,2023.1.0,60.16673404820172,
,,,,,,,,,,,,,,,,5,9,9.5,10,10.5,11,0.5,0.1,0.4,2.4,10,initial,36.05,324,342,361,379,397,9,9,9,9,9,,,,,,,0,0,0,0,0,3,3,22,,,,,,,,,,,,num_5,1.2042544999858364,num_5,0.55,1.1,0.35000000000000003,0.95,13.37193,36.29523,return,5.053301800042391,,,,,,,,,,,,,,,,,909,22,male,up_down_width,2024-10-18_15h36.41.779,exp1,2023.1.0,60.16673404820172,
,,,,,,,,,,,,,,,,3,9.5,10,10.5,0,0,0.5,0.1,0.4,1.4000000000000001,10,initial,36.05,342,361,379,0,0,9,9,9,0,0,,,,,,,0,0,0,0,0,4,4,27,,,,,,,,,,,,num_3,1.0425320999929681,num_3,0.4,0.7,0.4,0.7,15.2822,26.74385,return,1.619301800034009,,,,,,,,,,,,,,,,,909,22,male,up_down_width,2024-10-18_15h36.41.779,exp1,2023.1.0,60.16673404820172,
,,,,,,,,,,,,,,,,5,9,9.5,10,10.5,11,0.5,0.1,0.4,2.4,10,initial,36.05,324,342,361,379,397,9,9,9,9,9,,,,,,,0,0,0,0,0,5,5,19,,,,,,,,,,,,num_4,1.593937199912034,num_4,0.4,1.3,0.30000000000000004,0.6,11.46165,22.9233,return,3.7331214000005275,,,,,,,,,,,,,,,,,909,22,male,up_down_width,2024-10-18_15h36.41.779,exp1,2023.1.0,60.16673404820172,
,,,,,,,,,,,,,,,,5,9,9.5,10,10.5,11,0.5,0.1,0.4,2.4,10,initial,36.05,324,342,361,379,397,9,9,9,9,9,,,,,,,0,0,0,0,0,6,6,25,,,,,,,,,,,,num_6,1.237288900068961,num_6,0.35,1.2,0.25,0.5,9.55138,19.10275,return,6.449128599953838,,,,,,,,,,,,,,,,,909,22,male,up_down_width,2024-10-18_15h36.41.779,exp1,2023.1.0,60.16673404820172,
,,,,,,,,,,,,,,,,5,9,9.5,10,10.5,11,0.5,0.1,0.4,2.4,10,initial,36.05,324,342,361,379,397,9,9,9,9,9,,,,,,,0,0,0,0,0,7,7,49,,,,,,,,,,,,num_6,1.3360838000662625,num_6,0.35,0.8,0.3,0.5,11.46165,19.10275,return,2.8315539999166504,,,,,,,,,,,,,,,,,909,22,male,up_down_width,2024-10-18_15h36.41.779,exp1,2023.1.0,60.16673404820172,
,,,,,,,,,,,,,,,,4,9.25,9.75,10.25,10.75,0,0.5,0.1,0.4,1.9000000000000001,10,initial,36.05,333,351,370,388,0,9,9,9,9,0,,,,,,,0,0,0,0,0,8,8,9,,,,,,,,,,,,num_5,2.472063699970022,num_5,0.35,0.4,0.3,0.5,11.46165,19.10275,return,4.142629700014368,,,,,,,,,,,,,,,,,909,22,male,up_down_width,2024-10-18_15h36.41.779,exp1,2023.1.0,60.16673404820172,
,,,,,,,,,,,,,,,,5,9,9.5,10,10.5,11,0.5,0.1,0.4,2.4,10,initial,36.05,324,342,361,379,397,9,9,9,9,9,,,,,,,0,0,0,0,0,9,9,20,,,,,,,,,,,,num_7,2.1348230000585318,num_7,0.4,1.3,0.30000000000000004,0.5,11.46165,19.10275,return,7.834863399970345,,,,,,,,,,,,,,,,,909,22,male,up_down_width,2024-10-18_15h36.41.779,exp1,2023.1.0,60.16673404820172,
,,,,,,,,,,,,,,,,3,9.5,10,10.5,0,0,0.5,0.1,0.4,1.4000000000000001,10,initial,36.05,342,361,379,0,0,9,9,9,0,0,,,,,,,0,0,0,0,0,10,10,0,,,,,,,,,,,,num_3,1.149093099986203,num_3,0.4,0.9,0.30000000000000004,0.7,11.46165,26.74385,return,4.83248330000788,,,,,,,,,,,,,,,,,909,22,male,up_down_width,2024-10-18_15h36.41.779,exp1,2023.1.0,60.16673404820172,
,,,,,,,,,,,,,,,,3,9.5,10,10.5,0,0,0.5,0.1,0.4,1.4000000000000001,10,initial,36.05,342,361,379,0,0,9,9,9,0,0,,,,,,,0,0,0,0,0,11,11,2,,,,,,,,,,,,num_4,1.362074900069274,num_4,0.45,0.9,0.25000000000000006,0.5,9.55138,19.10275,return,3.139532799948938,,,,,,,,,,,,,,,,,909,22,male,up_down_width,2024-10-18_15h36.41.779,exp1,2023.1.0,60.16673404820172,
,,,,,,,,,,,,,,,,3,9.5,10,10.5,0,0,0.5,0.1,0.4,1.4000000000000001,10,initial,36.05,342,361,379,0,0,9,9,9,0,0,,,,,,,0,0,0,0,0,12,12,8,,,,,,,,,,,,num_5,1.8851810999913141,num_5,0.55,0.6,0.25000000000000006,0.45,9.55138,17.19248,return,7.326589499949478,,,,,,,,,,,,,,,,,909,22,male,up_down_width,2024-10-18_15h36.41.779,exp1,2023.1.0,60.16673404820172,
,,,,,,,,,,,,,,,,3,9.5,10,10.5,0,0,0.5,0.1,0.4,1.4000000000000001,10,initial,36.05,342,361,379,0,0,9,9,9,0,0,,,,,,,0,0,0,0,0,13,13,6,,,,,,,,,,,,num_4,2.844585599959828,num_4,0.3,0.8,0.25,0.5,9.55138,19.10275,return,3.874335400061682,,,,,,,,,,,,,,,,,909,22,male,up_down_width,2024-10-18_15h36.41.779,exp1,2023.1.0,60.16673404820172,
,,,,,,,,,,,,,,,,4,9.25,9.75,10.25,10.75,0,0.5,0.1,0.4,1.9000000000000001,10,initial,36.05,333,351,370,388,0,9,9,9,9,0,,,,,,,0,0,0,0,0,14,14,16,,,,,,,,,,,,num_4,2.8323048000456765,num_4,0.3,0.8,0.49999999999999994,0.8,19.10275,30.5644,return,4.974882000009529,,,,,,,,,,,,,,,,,909,22,male,up_down_width,2024-10-18_15h36.41.779,exp1,2023.1.0,60.16673404820172,
,,,,,,,,,,,,,,,,4,9.25,9.75,10.25,10.75,0,0.5,0.1,0.4,1.9000000000000001,10,initial,36.05,333,351,370,388,0,9,9,9,9,0,,,,,,,0,0,0,0,0,15,15,12,,,,,,,,,,,,num_5,1.3322932000737637,num_5,0.2,0.7,0.44999999999999996,0.7,17.19248,26.74385,return,4.874293699976988,,,,,,,,,,,,,,,,,909,22,male,up_down_width,2024-10-18_15h36.41.779,exp1,2023.1.0,60.16673404820172,
,,,,,,,,,,,,,,,,3,9.5,10,10.5,0,0,0.5,0.1,0.4,1.4000000000000001,10,initial,36.05,342,361,379,0,0,9,9,9,0,0,,,,,,,0,0,0,0,0,16,16,29,,,,,,,,,,,,num_4,1.4745423999847844,num_4,0.25,1.1,0.6,0.7,22.9233,26.74385,return,4.309980700025335,,,,,,,,,,,,,,,,,909,22,male,up_down_width,2024-10-18_15h36.41.779,exp1,2023.1.0,60.16673404820172,
,,,,,,,,,,,,,,,,3,9.5,10,10.5,0,0,0.5,0.1,0.4,1.4000000000000001,10,initial,36.05,342,361,379,0,0,9,9,9,0,0,,,,,,,0,0,0,0,0,17,17,33,,,,,,,,,,,,num_4,1.1676964999642223,num_4,0.2,0.5,0.49999999999999994,0.7,19.10275,26.74385,return,5.5162594999419525,,,,,,,,,,,,,,,,,909,22,male,up_down_width,2024-10-18_15h36.41.779,exp1,2023.1.0,60.16673404820172,
,,,,,,,,,,,,,,,,5,9,9.5,10,10.5,11,0.5,0.1,0.4,2.4,10,initial,36.05,324,342,361,379,397,9,9,9,9,9,,,,,,,0,0,0,0,0,18,18,52,,,,,,,,,,,,num_6,1.3222971999784932,num_6,0.5,0.6,0.5,0.7,19.10275,26.74385,return,3.1664998000487685,,,,,,,,,,,,,,,,,909,22,male,up_down_width,2024-10-18_15h36.41.779,exp1,2023.1.0,60.16673404820172,
,,,,,,,,,,,,,,,,4,9.25,9.75,10.25,10.75,0,0.5,0.1,0.4,1.9000000000000001,10,initial,36.05,333,351,370,388,0,9,9,9,9,0,,,,,,,0,0,0,0,0,19,19,40,,,,,,,,,,,,num_5,1.2772542999591678,num_5,0.45,1.2,0.35000000000000003,0.5,13.37193,19.10275,return,6.1607895999914035,,,,,,,,,,,,,,,,,909,22,male,up_down_width,2024-10-18_15h36.41.779,exp1,2023.1.0,60.16673404820172,
,,,,,,,,,,,,,,,,4,9.25,9.75,10.25,10.75,0,0.5,0.1,0.4,1.9000000000000001,10,initial,36.05,333,351,370,388,0,9,9,9,9,0,,,,,,,0,0,0,0,0,20,20,39,,,,,,,,,,,,num_4,2.6092378000030294,num_4,0.3,1.1,0.65,0.8,24.83358,30.5644,return,4.869701600051485,,,,,,,,,,,,,,,,,909,22,male,up_down_width,2024-10-18_15h36.41.779,exp1,2023.1.0,60.16673404820172,
,,,,,,,,,,,,,,,,3,9.5,10,10.5,0,0,0.5,0.1,0.4,1.4000000000000001,10,initial,36.05,342,361,379,0,0,9,9,9,0,0,,,,,,,0,0,0,0,0,21,21,5,,,,,,,,,,,,num_4,1.2591759999049827,num_4,0.35,0.5,0.39999999999999997,0.6,15.2822,22.9233,return,2.499524599988945,,,,,,,,,,,,,,,,,909,22,male,up_down_width,2024-10-18_15h36.41.779,exp1,2023.1.0,60.16673404820172,
,,,,,,,,,,,,,,,,4,9.25,9.75,10.25,10.75,0,0.5,0.1,0.4,1.9000000000000001,10,initial,36.05,333,351,370,388,0,9,9,9,9,0,,,,,,,0,0,0,0,0,22,22,14,,,,,,,,,,,,num_5,1.2495068999705836,num_5,0.35,1.0,0.39999999999999997,0.55,15.2822,21.01303,return,5.1654202999779955,,,,,,,,,,,,,,,,,909,22,male,up_down_width,2024-10-18_15h36.41.779,exp1,2023.1.0,60.16673404820172,
,,,,,,,,,,,,,,,,3,9.5,10,10.5,0,0,0.5,0.1,0.4,1.4000000000000001,10,initial,36.05,342,361,379,0,0,9,9,9,0,0,,,,,,,0,0,0,0,0,23,23,7,,,,,,,,,,,,num_4,1.3938664000015706,num_4,0.55,1.0,0.45,0.6,17.19248,22.9233,return,3.882298699929379,,,,,,,,,,,,,,,,,909,22,male,up_down_width,2024-10-18_15h36.41.779,exp1,2023.1.0,60.16673404820172,
,,,,,,,,,,,,,,,,4,9.25,9.75,10.25,10.75,0,0.5,0.1,0.4,1.9000000000000001,10,initial,36.05,333,351,370,388,0,9,9,9,9,0,,,,,,,0,0,0,0,0,24,24,36,,,,,,,,,,,,num_4,1.1226759999990463,num_4,0.3,0.5,0.3,0.5,11.46165,19.10275,return,1.2841970999725163,,,,,,,,,,,,,,,,,909,22,male,up_down_width,2024-10-18_15h36.41.779,exp1,2023.1.0,60.16673404820172,
,,,,,,,,,,,,,,,,5,9,9.5,10,10.5,11,0.5,0.1,0.4,2.4,10,initial,36.05,324,342,361,379,397,9,9,9,9,9,,,,,,,0,0,0,0,0,25,25,50,,,,,,,,,,,,num_6,1.1985888999188319,num_6,0.45,1.1,0.35000000000000003,0.5,13.37193,19.10275,return,5.381920899963006,,,,,,,,,,,,,,,,,909,22,male,up_down_width,2024-10-18_15h36.41.779,exp1,2023.1.0,60.16673404820172,
,,,,,,,,,,,,,,,,4,9.25,9.75,10.25,10.75,0,0.5,0.1,0.4,1.9000000000000001,10,initial,36.05,333,351,370,388,0,9,9,9,9,0,,,,,,,0,0,0,0,0,26,26,13,,,,,,,,,,,,num_5,1.2149490000447258,num_5,0.2,0.8,0.44999999999999996,0.6,17.19248,22.9233,return,3.7069938000058755,,,,,,,,,,,,,,,,,909,22,male,up_down_width,2024-10-18_15h36.41.779,exp1,2023.1.0,60.16673404820172,
,,,,,,,,,,,,,,,,5,9,9.5,10,10.5,11,0.5,0.1,0.4,2.4,10,initial,36.05,324,342,361,379,397,9,9,9,9,9,,,,,,,0,0,0,0,0,27,27,21,,,,,,,,,,,,num_7,1.135748100001365,num_7,0.45,1.0,0.35000000000000003,0.5,13.37193,19.10275,return,4.288876499980688,,,,,,,,,,,,,,,,,909,22,male,up_down_width,2024-10-18_15h36.41.779,exp1,2023.1.0,60.16673404820172,
,,,,,,,,,,,,,,,,4,9.25,9.75,10.25,10.75,0,0.5,0.1,0.4,1.9000000000000001,10,initial,36.05,333,351,370,388,0,9,9,9,9,0,,,,,,,0,0,0,0,0,28,28,10,,,,,,,,,,,,num_5,1.0809174000751227,num_5,0.2,0.4,0.44999999999999996,0.6,17.19248,22.9233,return,3.5929262000136077,,,,,,,,,,,,,,,,,909,22,male,up_down_width,2024-10-18_15h36.41.779,exp1,2023.1.0,60.16673404820172,
,,,,,,,,,,,,,,,,3,9.5,10,10.5,0,0,0.5,0.1,0.4,1.4000000000000001,10,initial,36.05,342,361,379,0,0,9,9,9,0,0,,,,,,,0,0,0,0,0,29,29,34,,,,,,,,,,,,num_3,1.6746109999949113,num_3,0.2,0.7,0.49999999999999994,0.65,19.10275,24.83358,return,4.9582372000440955,,,,,,,,,,,,,,,,,909,22,male,up_down_width,2024-10-18_15h36.41.779,exp1,2023.1.0,60.16673404820172,
,,,,,,,,,,,,,,,,5,9,9.5,10,10.5,11,0.5,0.1,0.4,2.4,10,initial,36.05,324,342,361,379,397,9,9,9,9,9,,,,,,,0,0,0,0,0,30,30,23,,,,,,,,,,,,num_3,4.851320700021461,num_3,0.4,0.5,0.45,0.7,17.19248,26.74385,return,7.786413400084712,,,,,,,,,,,,,,,,,909,22,male,up_down_width,2024-10-18_15h36.41.779,exp1,2023.1.0,60.16673404820172,
,,,,,,,,,,,,,,,,4,9.25,9.75,10.25,10.75,0,0.5,0.1,0.4,1.9000000000000001,10,initial,36.05,333,351,370,388,0,9,9,9,9,0,,,,,,,0,0,0,0,0,31,31,38,,,,,,,,,,,,num_4,7.232948899967596,num_4,0.45,0.7,0.35000000000000003,0.6,13.37193,22.9233,return,3.663131200009957,,,,,,,,,,,,,,,,,909,22,male,up_down_width,2024-10-18_15h36.41.779,exp1,2023.1.0,60.16673404820172,
,,,,,,,,,,,,,,,,5,9,9.5,10,10.5,11,0.5,0.1,0.4,2.4,10,initial,36.05,324,342,361,379,397,9,9,9,9,9,,,,,,,0,0,0,0,0,32,32,46,,,,,,,,,,,,num_7,1.9419962000101805,num_7,0.3,0.8,0.44999999999999996,0.6,17.19248,22.9233,return,4.658465399988927,,,,,,,,,,,,,,,,,909,22,male,up_down_width,2024-10-18_15h36.41.779,exp1,2023.1.0,60.16673404820172,
,,,,,,,,,,,,,,,,4,9.25,9.75,10.25,10.75,0,0.5,0.1,0.4,1.9000000000000001,10,initial,36.05,333,351,370,388,0,9,9,9,9,0,,,,,,,0,0,0,0,0,33,33,17,,,,,,,,,,,,num_6,1.6130395999643952,num_6,0.55,1.1,0.35000000000000003,0.5,13.37193,19.10275,return,7.144920299993828,,,,,,,,,,,,,,,,,909,22,male,up_down_width,2024-10-18_15h36.41.779,exp1,2023.1.0,60.16673404820172,
,,,,,,,,,,,,,,,,5,9,9.5,10,10.5,11,0.5,0.1,0.4,2.4,10,initial,36.05,324,342,361,379,397,9,9,9,9,9,,,,,,,0,0,0,0,0,34,34,53,,,,,,,,,,,,num_6,1.7780201999703422,num_6,0.45,0.8,0.35000000000000003,0.6,13.37193,22.9233,return,4.837657299940474,,,,,,,,,,,,,,,,,909,22,male,up_down_width,2024-10-18_15h36.41.779,exp1,2023.1.0,60.16673404820172,
,,,,,,,,,,,,,,,,3,9.5,10,10.5,0,0,0.5,0.1,0.4,1.4000000000000001,10,initial,36.05,342,361,379,0,0,9,9,9,0,0,,,,,,,0,0,0,0,0,35,35,35,,,,,,,,,,,,num_3,2.559096100041643,num_3,0.5,1.2,0.35000000000000003,0.75,13.37193,28.65413,return,4.14747979992535,,,,,,,,,,,,,,,,,909,22,male,up_down_width,2024-10-18_15h36.41.779,exp1,2023.1.0,60.16673404820172,
,,,,,,,,,,,,,,,,5,9,9.5,10,10.5,11,0.5,0.1,0.4,2.4,10,initial,36.05,324,342,361,379,397,9,9,9,9,9,,,,,,,0,0,0,0,0,36,36,26,,,,,,,,,,,,num_6,1.8345632000127807,num_6,0.4,0.8,0.4,0.6,15.2822,22.9233,return,2.464312299969606,,,,,,,,,,,,,,,,,909,22,male,up_down_width,2024-10-18_15h36.41.779,exp1,2023.1.0,60.16673404820172,
,,,,,,,,,,,,,,,,4,9.25,9.75,10.25,10.75,0,0.5,0.1,0.4,1.9000000000000001,10,initial,36.05,333,351,370,388,0,9,9,9,9,0,,,,,,,0,0,0,0,0,37,37,42,,,,,,,,,,,,num_4,3.610840699984692,num_4,0.55,1.2,0.35000000000000003,0.5,13.37193,19.10275,return,16.552891800063662,,,,,,,,,,,,,,,,,909,22,male,up_down_width,2024-10-18_15h36.41.779,exp1,2023.1.0,60.16673404820172,
,,,,,,,,,,,,,,,,5,9,9.5,10,10.5,11,0.5,0.1,0.4,2.4,10,initial,36.05,324,342,361,379,397,9,9,9,9,9,,,,,,,0,0,0,0,0,38,38,51,,,,,,,,,,,,num_5,1.8944570000749081,num_5,0.5,0.9,0.30000000000000004,0.55,11.46165,21.01303,return,3.3802166999084875,,,,,,,,,,,,,,,,,909,22,male,up_down_width,2024-10-18_15h36.41.779,exp1,2023.1.0,60.16673404820172,
,,,,,,,,,,,,,,,,3,9.5,10,10.5,0,0,0.5,0.1,0.4,1.4000000000000001,10,initial,36.05,342,361,379,0,0,9,9,9,0,0,,,,,,,0,0,0,0,0,39,39,32,,,,,,,,,,,,num_3,1.0247820999938995,num_3,0.35,1.2,0.3,0.7,11.46165,26.74385,return,4.193757200031541,,,,,,,,,,,,,,,,,909,22,male,up_down_width,2024-10-18_15h36.41.779,exp1,2023.1.0,60.16673404820172,
,,,,,,,,,,,,,,,,3,9.5,10,10.5,0,0,0.5,0.1,0.4,1.4000000000000001,10,initial,36.05,342,361,379,0,0,9,9,9,0,0,,,,,,,0,0,0,0,0,40,40,1,,,,,,,,,,,,num_3,0.9829555000178516,num_3,0.4,1.1,0.25000000000000006,0.65,9.55138,24.83358,return,3.0496164000360295,,,,,,,,,,,,,,,,,909,22,male,up_down_width,2024-10-18_15h36.41.779,exp1,2023.1.0,60.16673404820172,
,,,,,,,,,,,,,,,,4,9.25,9.75,10.25,10.75,0,0.5,0.1,0.4,1.9000000000000001,10,initial,36.05,333,351,370,388,0,9,9,9,9,0,,,,,,,0,0,0,0,0,41,41,11,,,,,,,,,,,,num_5,1.374610700062476,num_5,0.25,0.6,0.3,0.55,11.46165,21.01303,return,2.485277200001292,,,,,,,,,,,,,,,,,909,22,male,up_down_width,2024-10-18_15h36.41.779,exp1,2023.1.0,60.16673404820172,
,,,,,,,,,,,,,,,,3,9.5,10,10.5,0,0,0.5,0.1,0.4,1.4000000000000001,10,initial,36.05,342,361,379,0,0,9,9,9,0,0,,,,,,,0,0,0,0,0,42,42,31,,,,,,,,,,,,num_3,1.0495758999604732,num_3,0.3,1.1,0.2,0.7,7.6411,26.74385,return,4.299268099945039,,,,,,,,,,,,,,,,,909,22,male,up_down_width,2024-10-18_15h36.41.779,exp1,2023.1.0,60.16673404820172,
,,,,,,,,,,,,,,,,4,9.25,9.75,10.25,10.75,0,0.5,0.1,0.4,1.9000000000000001,10,initial,36.05,333,351,370,388,0,9,9,9,9,0,,,,,,,0,0,0,0,0,43,43,43,,,,,,,,,,,,num_6,2.765047000022605,num_6,0.5,0.6,0.25000000000000006,0.4,9.55138,15.2822,return,2.877219000016339,,,,,,,,,,,,,,,,,909,22,male,up_down_width,2024-10-18_15h36.41.779,exp1,2023.1.0,60.16673404820172,
,,,,,,,,,,,,,,,,5,9,9.5,10,10.5,11,0.5,0.1,0.4,2.4,10,initial,36.05,324,342,361,379,397,9,9,9,9,9,,,,,,,0,0,0,0,0,44,44,48,,,,,,,,,,,,num_6,1.3639550999505445,num_6,0.5,1.0,0.25000000000000006,0.4,9.55138,15.2822,return,3.433389600017108,,,,,,,,,,,,,,,,,909,22,male,up_down_width,2024-10-18_15h36.41.779,exp1,2023.1.0,60.16673404820172,
,,,,,,,,,,,,,,,,5,9,9.5,10,10.5,11,0.5,0.1,0.4,2.4,10,initial,36.05,324,342,361,379,397,9,9,9,9,9,,,,,,,0,0,0,0,0,45,45,47,,,,,,,,,,,,num_7,1.7922699000919238,num_7,0.2,0.9,0.2,0.35,7.6411,13.37193,return,5.55968910001684,,,,,,,,,,,,,,,,,909,22,male,up_down_width,2024-10-18_15h36.41.779,exp1,2023.1.0,60.16673404820172,
,,,,,,,,,,,,,,,,3,9.5,10,10.5,0,0,0.5,0.1,0.4,1.4000000000000001,10,initial,36.05,342,361,379,0,0,9,9,9,0,0,,,,,,,0,0,0,0,0,46,46,28,,,,,,,,,,,,num_2,1.0260255000321195,num_2,0.35,0.4,0.35,0.7,13.37193,26.74385,return,1.9548963999841362,,,,,,,,,,,,,,,,,909,22,male,up_down_width,2024-10-18_15h36.41.779,exp1,2023.1.0,60.16673404820172,
,,,,,,,,,,,,,,,,5,9,9.5,10,10.5,11,0.5,0.1,0.4,2.4,10,initial,36.05,324,342,361,379,397,9,9,9,9,9,,,,,,,0,0,0,0,0,47,47,45,,,,,,,,,,,,num_7,2.342918800073676,num_7,0.55,0.9,0.25000000000000006,0.4,9.55138,15.2822,return,8.257922200020403,,,,,,,,,,,,,,,,,909,22,male,up_down_width,2024-10-18_15h36.41.779,exp1,2023.1.0,60.16673404820172,
,,,,,,,,,,,,,,,,3,9.5,10,10.5,0,0,0.5,0.1,0.4,1.4000000000000001,10,initial,36.05,342,361,379,0,0,9,9,9,0,0,,,,,,,0,0,0,0,0,48,48,30,,,,,,,,,,,,num_3,1.920683000003919,num_3,0.5,0.6,0.45,0.65,17.19248,24.83358,return,2.253238199977204,,,,,,,,,,,,,,,,,909,22,male,up_down_width,2024-10-18_15h36.41.779,exp1,2023.1.0,60.16673404820172,
,,,,,,,,,,,,,,,,3,9.5,10,10.5,0,0,0.5,0.1,0.4,1.4000000000000001,10,initial,36.05,342,361,379,0,0,9,9,9,0,0,,,,,,,0,0,0,0,0,49,49,3,,,,,,,,,,,,num_2,0.9690287000266835,num_2,0.3,1.2,0.49999999999999994,1.2,19.10275,45.8466,return,1.8826705000828952,,,,,,,,,,,,,,,,,909,22,male,up_down_width,2024-10-18_15h36.41.779,exp1,2023.1.0,60.16673404820172,
,,,,,,,,,,,,,,,,5,9,9.5,10,10.5,11,0.5,0.1,0.4,2.4,10,initial,36.05,324,342,361,379,397,9,9,9,9,9,,,,,,,0,0,0,0,0,50,50,24,,,,,,,,,,,,num_5,2.174809099989943,num_5,0.4,0.7,0.4,0.65,15.2822,24.83358,return,1.1084160000318661,,,,,,,,,,,,,,,,,909,22,male,up_down_width,2024-10-18_15h36.41.779,exp1,2023.1.0,60.16673404820172,
,,,,,,,,,,,,,,,,4,9.25,9.75,10.25,10.75,0,0.5,0.1,0.4,1.9000000000000001,10,initial,36.05,333,351,370,388,0,9,9,9,9,0,,,,,,,0,0,0,0,0,51,51,41,,,,,,,,,,,,num_4,0.9241035999730229,num_4,0.5,1.0,0.4,0.7,15.2822,26.74385,return,2.1811619999352843,,,,,,,,,,,,,,,,,909,22,male,up_down_width,2024-10-18_15h36.41.779,exp1,2023.1.0,60.16673404820172,
,,,,,,,,,,,,,,,,4,9.25,9.75,10.25,10.75,0,0.5,0.1,0.4,1.9000000000000001,10,initial,36.05,333,351,370,388,0,9,9,9,9,0,,,,,,,0,0,0,0,0,52,52,37,,,,,,,,,,,,num_4,1.0141864999895915,num_4,0.3,0.8,0.3,0.4,11.46165,15.2822,return,1.6760558999376372,,,,,,,,,,,,,,,,,909,22,male,up_down_width,2024-10-18_15h36.41.779,exp1,2023.1.0,60.16673404820172,
,,,,,,,,,,,,,,,,5,9,9.5,10,10.5,11,0.5,0.1,0.4,2.4,10,initial,36.05,324,342,361,379,397,9,9,9,9,9,,,,,,,0,0,0,0,0,53,53,18,,,,,,,,,,,,num_6,1.4358656000113115,num_6,0.3,1.1,0.25,0.4,9.55138,15.2822,return,2.7376931000035256,,,,,,,,,,,,,,,,,909,22,male,up_down_width,2024-10-18_15h36.41.779,exp1,2023.1.0,60.16673404820172,
,,,,,,,,,,,,,,,,,,,,,,,,,,,,,,,,,,,,,,,,,,,,,0,0,0,0,,,,,,,,,,,,,,,,,,,,,,,,,,,,,928.8640504999785,928.8640504999785,928.8640504999785,,,,,,,,,,,,909,22,male,up_down_width,2024-10-18_15h36.41.779,exp1,2023.1.0,60.16673404820172,
,,,,,,,,,,,,,,,,3,9.5,10,10.5,0,0,0.5,0.25,0.25,1.25,10,initial,36.05,342,361,379,0,0,9,9,9,0,0,,,,,,,1,0,1,0,0,0,0,4,,,,,,,,,,,,num_2,1.2818218000466004,num_2,0.3,1.4,0.3,1.1,11.46165,42.02605,return,1.804398600012064,,,,,,,,,,,,,,,,,909,22,male,up_down_width,2024-10-18_15h36.41.779,exp1,2023.1.0,60.16673404820172,
,,,,,,,,,,,,,,,,5,9,9.5,10,10.5,11,0.5,0.25,0.25,2.25,10,initial,36.05,324,342,361,379,397,9,9,9,9,9,,,,,,,1,0,1,0,0,1,1,26,,,,,,,,,,,,num_6,2.3659262000583112,num_6,0.4,0.9,0.25000000000000006,0.5,9.55138,19.10275,return,2.298952199984342,,,,,,,,,,,,,,,,,909,22,male,up_down_width,2024-10-18_15h36.41.779,exp1,2023.1.0,60.16673404820172,
,,,,,,,,,,,,,,,,3,9.5,10,10.5,0,0,0.5,0.25,0.25,1.25,10,initial,36.05,342,361,379,0,0,9,9,9,0,0,,,,,,,1,0,1,0,0,2,2,0,,,,,,,,,,,,num_3,1.5100538999540731,num_3,0.3,1.3,0.2,0.5,7.6411,19.10275,return,3.973312900052406,,,,,,,,,,,,,,,,,909,22,male,up_down_width,2024-10-18_15h36.41.779,exp1,2023.1.0,60.16673404820172,
,,,,,,,,,,,,,,,,5,9,9.5,10,10.5,11,0.5,0.25,0.25,2.25,10,initial,36.05,324,342,361,379,397,9,9,9,9,9,,,,,,,1,0,1,0,0,3,3,25,,,,,,,,,,,,num_5,1.3512892000144348,num_5,0.35,0.4,0.15000000000000002,0.35,5.73083,13.37193,return,4.203112400020473,,,,,,,,,,,,,,,,,909,22,male,up_down_width,2024-10-18_15h36.41.779,exp1,2023.1.0,60.16673404820172,
,,,,,,,,,,,,,,,,5,9,9.5,10,10.5,11,0.5,0.25,0.25,2.25,10,initial,36.05,324,342,361,379,397,9,9,9,9,9,,,,,,,1,0,1,0,0,4,4,47,,,,,,,,,,,,num_5,1.2247282000025734,num_5,0.55,1.0,0.20000000000000007,0.4,7.6411,15.2822,return,4.5940398999955505,,,,,,,,,,,,,,,,,909,22,male,up_down_width,2024-10-18_15h36.41.779,exp1,2023.1.0,60.16673404820172,
,,,,,,,,,,,,,,,,3,9.5,10,10.5,0,0,0.5,0.25,0.25,1.25,10,initial,36.05,342,361,379,0,0,9,9,9,0,0,,,,,,,1,0,1,0,0,5,5,5,,,,,,,,,,,,num_4,0.9438573999796063,num_4,0.35,0.5,0.2,0.5,7.6411,19.10275,return,2.6294405000517145,,,,,,,,,,,,,,,,,909,22,male,up_down_width,2024-10-18_15h36.41.779,exp1,2023.1.0,60.16673404820172,
,,,,,,,,,,,,,,,,5,9,9.5,10,10.5,11,0.5,0.25,0.25,2.25,10,initial,36.05,324,342,361,379,397,9,9,9,9,9,,,,,,,1,0,1,0,0,6,6,23,,,,,,,,,,,,num_6,0.8218029999407008,num_6,0.55,0.9,0.20000000000000007,0.4,7.6411,15.2822,return,6.225883300066926,,,,,,,,,,,,,,,,,909,22,male,up_down_width,2024-10-18_15h36.41.779,exp1,2023.1.0,60.16673404820172,
,,,,,,,,,,,,,,,,4,9.25,9.75,10.25,10.75,0,0.5,0.25,0.25,1.75,10,initial,36.05,333,351,370,388,0,9,9,9,9,0,,,,,,,1,0,1,0,0,7,7,43,,,,,,,,,,,,num_2,0.834540200070478,num_2,0.25,0.8,0.35,0.9,13.37193,34.38495,return,2.6873587000882253,,,,,,,,,,,,,,,,,909,22,male,up_down_width,2024-10-18_15h36.41.779,exp1,2023.1.0,60.16673404820172,
,,,,,,,,,,,,,,,,3,9.5,10,10.5,0,0,0.5,0.25,0.25,1.25,10,initial,36.05,342,361,379,0,0,9,9,9,0,0,,,,,,,1,0,1,0,0,8,8,2,,,,,,,,,,,,num_4,1.7617061999626458,num_4,0.25,0.5,0.25,0.6,9.55138,22.9233,return,3.473300199955702,,,,,,,,,,,,,,,,,909,22,male,up_down_width,2024-10-18_15h36.41.779,exp1,2023.1.0,60.16673404820172,
,,,,,,,,,,,,,,,,3,9.5,10,10.5,0,0,0.5,0.25,0.25,1.25,10,initial,36.05,342,361,379,0,0,9,9,9,0,0,,,,,,,1,0,1,0,0,9,9,3,,,,,,,,,,,,num_2,1.4944414000492543,num_2,0.45,1.6,0.20000000000000007,0.9,7.6411,34.38495,return,3.140641100006178,,,,,,,,,,,,,,,,,909,22,male,up_down_width,2024-10-18_15h36.41.779,exp1,2023.1.0,60.16673404820172,
,,,,,,,,,,,,,,,,4,9.25,9.75,10.25,10.75,0,0.5,0.25,0.25,1.75,10,initial,36.05,333,351,370,388,0,9,9,9,9,0,,,,,,,1,0,1,0,0,10,10,17,,,,,,,,,,,,num_3,1.0908321000169963,num_3,0.25,0.6,0.25,0.7,9.55138,26.74385,return,2.6139334000181407,,,,,,,,,,,,,,,,,909,22,male,up_down_width,2024-10-18_15h36.41.779,exp1,2023.1.0,60.16673404820172,
,,,,,,,,,,,,,,,,4,9.25,9.75,10.25,10.75,0,0.5,0.25,0.25,1.75,10,initial,36.05,333,351,370,388,0,9,9,9,9,0,,,,,,,1,0,1,0,0,11,11,13,,,,,,,,,,,,num_4,1.5086009000660852,num_4,0.3,1.1,0.2,0.5,7.6411,19.10275,return,2.3717606000136584,,,,,,,,,,,,,,,,,909,22,male,up_down_width,2024-10-18_15h36.41.779,exp1,2023.1.0,60.16673404820172,
,,,,,,,,,,,,,,,,3,9.5,10,10.5,0,0,0.5,0.25,0.25,1.25,10,initial,36.05,342,361,379,0,0,9,9,9,0,0,,,,,,,1,0,1,0,0,12,12,8,,,,,,,,,,,,num_4,1.6637558999937028,num_4,0.2,0.9,0.2,0.5,7.6411,19.10275,return,3.4304770999588072,,,,,,,,,,,,,,,,,909,22,male,up_down_width,2024-10-18_15h36.41.779,exp1,2023.1.0,60.16673404820172,
,,,,,,,,,,,,,,,,5,9,9.5,10,10.5,11,0.5,0.25,0.25,2.25,10,initial,36.05,324,342,361,379,397,9,9,9,9,9,,,,,,,1,0,1,0,0,13,13,18,,,,,,,,,,,,num_5,0.7992459000088274,num_5,0.35,0.9,0.25,0.85,9.55138,32.47468,return,1.4665269000688568,,,,,,,,,,,,,,,,,909,22,male,up_down_width,2024-10-18_15h36.41.779,exp1,2023.1.0,60.16673404820172,
,,,,,,,,,,,,,,,,5,9,9.5,10,10.5,11,0.5,0.25,0.25,2.25,10,initial,36.05,324,342,361,379,397,9,9,9,9,9,,,,,,,1,0,1,0,0,14,14,48,,,,,,,,,,,,num_6,0.8978644999442622,num_6,0.3,0.4,0.2,0.5,7.6411,19.10275,return,4.726897099986672,,,,,,,,,,,,,,,,,909,22,male,up_down_width,2024-10-18_15h36.41.779,exp1,2023.1.0,60.16673404820172,
,,,,,,,,,,,,,,,,3,9.5,10,10.5,0,0,0.5,0.25,0.25,1.25,10,initial,36.05,342,361,379,0,0,9,9,9,0,0,,,,,,,1,0,1,0,0,15,15,6,,,,,,,,,,,,num_4,1.265945399994962,num_4,0.55,0.6,0.20000000000000007,0.5,7.6411,19.10275,return,2.7347219000803307,,,,,,,,,,,,,,,,,909,22,male,up_down_width,2024-10-18_15h36.41.779,exp1,2023.1.0,60.16673404820172,
,,,,,,,,,,,,,,,,3,9.5,10,10.5,0,0,0.5,0.25,0.25,1.25,10,initial,36.05,342,361,379,0,0,9,9,9,0,0,,,,,,,1,0,1,0,0,16,16,27,,,,,,,,,,,,num_4,1.0127437999472022,num_4,0.25,0.7,0.10000000000000002,0.3,3.82055,11.46165,return,1.7244012999581173,,,,,,,,,,,,,,,,,909,22,male,up_down_width,2024-10-18_15h36.41.779,exp1,2023.1.0,60.16673404820172,
,,,,,,,,,,,,,,,,4,9.25,9.75,10.25,10.75,0,0.5,0.25,0.25,1.75,10,initial,36.05,333,351,370,388,0,9,9,9,9,0,,,,,,,1,0,1,0,0,17,17,37,,,,,,,,,,,,num_3,0.9736153000267223,num_3,0.35,0.4,0.10000000000000002,0.45,3.82055,17.19248,return,1.9862594000296667,,,,,,,,,,,,,,,,,909,22,male,up_down_width,2024-10-18_15h36.41.779,exp1,2023.1.0,60.16673404820172,
,,,,,,,,,,,,,,,,4,9.25,9.75,10.25,10.75,0,0.5,0.25,0.25,1.75,10,initial,36.05,333,351,370,388,0,9,9,9,9,0,,,,,,,1,0,1,0,0,18,18,42,,,,,,,,,,,,num_5,0.991273499908857,num_5,0.45,0.7,0.15000000000000008,0.35,5.73083,13.37193,return,3.399662800016813,,,,,,,,,,,,,,,,,909,22,male,up_down_width,2024-10-18_15h36.41.779,exp1,2023.1.0,60.16673404820172,
,,,,,,,,,,,,,,,,3,9.5,10,10.5,0,0,0.5,0.25,0.25,1.25,10,initial,36.05,342,361,379,0,0,9,9,9,0,0,,,,,,,1,0,1,0,0,19,19,1,,,,,,,,,,,,num_4,1.5908067000564188,num_4,0.35,1.3,0.15000000000000002,0.3,5.73083,11.46165,return,3.1414640999864787,,,,,,,,,,,,,,,,,909,22,male,up_down_width,2024-10-18_15h36.41.779,exp1,2023.1.0,60.16673404820172,
,,,,,,,,,,,,,,,,5,9,9.5,10,10.5,11,0.5,0.25,0.25,2.25,10,initial,36.05,324,342,361,379,397,9,9,9,9,9,,,,,,,1,0,1,0,0,20,20,24,,,,,,,,,,,,num_6,1.4550556000322104,num_6,0.45,1.3,0.10000000000000007,0.3,3.82055,11.46165,return,3.6279703999171034,,,,,,,,,,,,,,,,,909,22,male,up_down_width,2024-10-18_15h36.41.779,exp1,2023.1.0,60.16673404820172,
,,,,,,,,,,,,,,,,5,9,9.5,10,10.5,11,0.5,0.25,0.25,2.25,10,initial,36.05,324,342,361,379,397,9,9,9,9,9,,,,,,,1,0,1,0,0,21,21,20,,,,,,,,,,,,num_6,0.751615000073798,num_6,0.3,1.3,0.25,0.5,9.55138,19.10275,return,4.427627100027166,,,,,,,,,,,,,,,,,909,22,male,up_down_width,2024-10-18_15h36.41.779,exp1,2023.1.0,60.16673404820172,
,,,,,,,,,,,,,,,,4,9.25,9.75,10.25,10.75,0,0.5,0.25,0.25,1.75,10,initial,36.05,333,351,370,388,0,9,9,9,9,0,,,,,,,1,0,1,0,0,22,22,38,,,,,,,,,,,,num_5,1.5159389999462292,num_5,0.5,0.6,0.20000000000000007,0.55,7.6411,21.01303,return,3.019394600065425,,,,,,,,,,,,,,,,,909,22,male,up_down_width,2024-10-18_15h36.41.779,exp1,2023.1.0,60.16673404820172,
,,,,,,,,,,,,,,,,4,9.25,9.75,10.25,10.75,0,0.5,0.25,0.25,1.75,10,initial,36.05,333,351,370,388,0,9,9,9,9,0,,,,,,,1,0,1,0,0,23,23,40,,,,,,,,,,,,num_4,2.022919200011529,num_4,0.4,1.1,0.15000000000000008,0.4,5.73083,15.2822,return,3.044539399910718,,,,,,,,,,,,,,,,,909,22,male,up_down_width,2024-10-18_15h36.41.779,exp1,2023.1.0,60.16673404820172,
,,,,,,,,,,,,,,,,3,9.5,10,10.5,0,0,0.5,0.25,0.25,1.25,10,initial,36.05,342,361,379,0,0,9,9,9,0,0,,,,,,,1,0,1,0,0,24,24,7,,,,,,,,,,,,num_3,0.8992816000245512,num_3,0.55,1.1,0.25000000000000006,0.8,9.55138,30.5644,return,2.9910454000346363,,,,,,,,,,,,,,,,,909,22,male,up_down_width,2024-10-18_15h36.41.779,exp1,2023.1.0,60.16673404820172,
,,,,,,,,,,,,,,,,5,9,9.5,10,10.5,11,0.5,0.25,0.25,2.25,10,initial,36.05,324,342,361,379,397,9,9,9,9,9,,,,,,,1,0,1,0,0,25,25,19,,,,,,,,,,,,num_5,0.9235628000460565,num_5,0.25,1.3,0.2,0.5,7.6411,19.10275,return,4.096897799987346,,,,,,,,,,,,,,,,,909,22,male,up_down_width,2024-10-18_15h36.41.779,exp1,2023.1.0,60.16673404820172,
,,,,,,,,,,,,,,,,3,9.5,10,10.5,0,0,0.5,0.25,0.25,1.25,10,initial,36.05,342,361,379,0,0,9,9,9,0,0,,,,,,,1,0,1,0,0,26,26,35,,,,,,,,,,,,num_4,2.2659765999997035,num_4,0.35,0.7,0.15000000000000002,0.5,5.73083,19.10275,return,2.569536400027573,,,,,,,,,,,,,,,,,909,22,male,up_down_width,2024-10-18_15h36.41.779,exp1,2023.1.0,60.16673404820172,
,,,,,,,,,,,,,,,,4,9.25,9.75,10.25,10.75,0,0.5,0.25,0.25,1.75,10,initial,36.05,333,351,370,388,0,9,9,9,9,0,,,,,,,1,0,1,0,0,27,27,41,,,,,,,,,,,,num_5,1.7362532999832183,num_5,0.35,0.4,0.15000000000000002,0.45,5.73083,17.19248,return,4.13871550001204,,,,,,,,,,,,,,,,,909,22,male,up_down_width,2024-10-18_15h36.41.779,exp1,2023.1.0,60.16673404820172,
,,,,,,,,,,,,,,,,4,9.25,9.75,10.25,10.75,0,0.5,0.25,0.25,1.75,10,initial,36.05,333,351,370,388,0,9,9,9,9,0,,,,,,,1,0,1,0,0,28,28,11,,,,,,,,,,,,num_4,1.3812362999888137,num_4,0.3,0.5,0.2,0.7,7.6411,26.74385,return,2.505418899934739,,,,,,,,,,,,,,,,,909,22,male,up_down_width,2024-10-18_15h36.41.779,exp1,2023.1.0,60.16673404820172,
,,,,,,,,,,,,,,,,5,9,9.5,10,10.5,11,0.5,0.25,0.25,2.25,10,initial,36.05,324,342,361,379,397,9,9,9,9,9,,,,,,,1,0,1,0,0,29,29,53,,,,,,,,,,,,num_6,0.9079654000233859,num_6,0.4,0.5,0.25000000000000006,0.6,9.55138,22.9233,return,2.70763119996991,,,,,,,,,,,,,,,,,909,22,male,up_down_width,2024-10-18_15h36.41.779,exp1,2023.1.0,60.16673404820172,
,,,,,,,,,,,,,,,,4,9.25,9.75,10.25,10.75,0,0.5,0.25,0.25,1.75,10,initial,36.05,333,351,370,388,0,9,9,9,9,0,,,,,,,1,0,1,0,0,30,30,44,,,,,,,,,,,,num_4,1.5060210999799892,num_4,0.35,0.4,0.2,0.6,7.6411,22.9233,return,2.3213231000117958,,,,,,,,,,,,,,,,,909,22,male,up_down_width,2024-10-18_15h36.41.779,exp1,2023.1.0,60.16673404820172,
,,,,,,,,,,,,,,,,5,9,9.5,10,10.5,11,0.5,0.25,0.25,2.25,10,initial,36.05,324,342,361,379,397,9,9,9,9,9,,,,,,,1,0,1,0,0,31,31,21,,,,,,,,,,,,num_5,1.1467700999928638,num_5,0.35,0.7,0.3,0.8,11.46165,30.5644,return,1.9410574999637902,,,,,,,,,,,,,,,,,909,22,male,up_down_width,2024-10-18_15h36.41.779,exp1,2023.1.0,60.16673404820172,
,,,,,,,,,,,,,,,,4,9.25,9.75,10.25,10.75,0,0.5,0.25,0.25,1.75,10,initial,36.05,333,351,370,388,0,9,9,9,9,0,,,,,,,1,0,1,0,0,32,32,14,,,,,,,,,,,,num_3,2.4298217999748886,num_3,0.45,1,0.35000000000000003,1.05,13.37193,40.11578,return,1.5080357000697404,,,,,,,,,,,,,,,,,909,22,male,up_down_width,2024-10-18_15h36.41.779,exp1,2023.1.0,60.16673404820172,
,,,,,,,,,,,,,,,,4,9.25,9.75,10.25,10.75,0,0.5,0.25,0.25,1.75,10,initial,36.05,333,351,370,388,0,9,9,9,9,0,,,,,,,1,0,1,0,0,33,33,15,,,,,,,,,,,,num_4,0.8461273999419063,num_4,0.2,0.4,0.2,0.7,7.6411,26.74385,return,1.6381223000353202,,,,,,,,,,,,,,,,,909,22,male,up_down_width,2024-10-18_15h36.41.779,exp1,2023.1.0,60.16673404820172,
,,,,,,,,,,,,,,,,5,9,9.5,10,10.5,11,0.5,0.25,0.25,2.25,10,initial,36.05,324,342,361,379,397,9,9,9,9,9,,,,,,,1,0,1,0,0,34,34,50,,,,,,,,,,,,num_5,1.6824105000123382,num_5,0.5,0.8,0.20000000000000007,0.75,7.6411,28.65413,return,3.7245068999473006,,,,,,,,,,,,,,,,,909,22,male,up_down_width,2024-10-18_15h36.41.779,exp1,2023.1.0,60.16673404820172,
,,,,,,,,,,,,,,,,4,9.25,9.75,10.25,10.75,0,0.5,0.25,0.25,1.75,10,initial,36.05,333,351,370,388,0,9,9,9,9,0,,,,,,,1,0,1,0,0,35,35,36,,,,,,,,,,,,num_4,0.9620582999195904,num_4,0.5,0.9,0.20000000000000007,0.7,7.6411,26.74385,return,4.425997299957089,,,,,,,,,,,,,,,,,909,22,male,up_down_width,2024-10-18_15h36.41.779,exp1,2023.1.0,60.16673404820172,
,,,,,,,,,,,,,,,,3,9.5,10,10.5,0,0,0.5,0.25,0.25,1.25,10,initial,36.05,342,361,379,0,0,9,9,9,0,0,,,,,,,1,0,1,0,0,36,36,34,,,,,,,,,,,,num_3,0.9179483000189066,num_3,0.55,1.3,0.25000000000000006,0.9,9.55138,34.38495,return,3.5213606000179425,,,,,,,,,,,,,,,,,909,22,male,up_down_width,2024-10-18_15h36.41.779,exp1,2023.1.0,60.16673404820172,
,,,,,,,,,,,,,,,,5,9,9.5,10,10.5,11,0.5,0.25,0.25,2.25,10,initial,36.05,324,342,361,379,397,9,9,9,9,9,,,,,,,1,0,1,0,0,37,37,45,,,,,,,,,,,,num_6,0.9131915000034496,num_6,0.55,0.8,0.20000000000000007,0.5,7.6411,19.10275,return,2.6886679999297485,,,,,,,,,,,,,,,,,909,22,male,up_down_width,2024-10-18_15h36.41.779,exp1,2023.1.0,60.16673404820172,
,,,,,,,,,,,,,,,,5,9,9.5,10,10.5,11,0.5,0.25,0.25,2.25,10,initial,36.05,324,342,361,379,397,9,9,9,9,9,,,,,,,1,0,1,0,0,38,38,52,,,,,,,,,,,,num_5,1.2079990999773145,num_5,0.2,0.9,0.3,0.7,11.46165,26.74385,return,4.645761899999343,,,,,,,,,,,,,,,,,909,22,male,up_down_width,2024-10-18_15h36.41.779,exp1,2023.1.0,60.16673404820172,
,,,,,,,,,,,,,,,,3,9.5,10,10.5,0,0,0.5,0.25,0.25,1.25,10,initial,36.05,342,361,379,0,0,9,9,9,0,0,,,,,,,1,0,1,0,0,39,39,33,,,,,,,,,,,,num_3,0.7431823000079021,num_3,0.4,0.8,0.20000000000000007,0.65,7.6411,24.83358,return,2.249321600073017,,,,,,,,,,,,,,,,,909,22,male,up_down_width,2024-10-18_15h36.41.779,exp1,2023.1.0,60.16673404820172,
,,,,,,,,,,,,,,,,4,9.25,9.75,10.25,10.75,0,0.5,0.25,0.25,1.75,10,initial,36.05,333,351,370,388,0,9,9,9,9,0,,,,,,,1,0,1,0,0,40,40,39,,,,,,,,,,,,num_4,1.3676984999328852,num_4,0.3,0.5,0.3,0.6,11.46165,22.9233,return,1.72236930008512,,,,,,,,,,,,,,,,,909,22,male,up_down_width,2024-10-18_15h36.41.779,exp1,2023.1.0,60.16673404820172,
,,,,,,,,,,,,,,,,5,9,9.5,10,10.5,11,0.5,0.25,0.25,2.25,10,initial,36.05,324,342,361,379,397,9,9,9,9,9,,,,,,,1,0,1,0,0,41,41,49,,,,,,,,,,,,num_6,1.015859300037846,num_6,0.35,1.2,0.15000000000000002,0.5,5.73083,19.10275,return,5.579738199943677,,,,,,,,,,,,,,,,,909,22,male,up_down_width,2024-10-18_15h36.41.779,exp1,2023.1.0,60.16673404820172,
,,,,,,,,,,,,,,,,3,9.5,10,10.5,0,0,0.5,0.25,0.25,1.25,10,initial,36.05,342,361,379,0,0,9,9,9,0,0,,,,,,,1,0,1,0,0,42,42,31,,,,,,,,,,,,num_3,2.262840299983509,num_3,0.55,0.6,0.20000000000000007,0.5,7.6411,19.10275,return,2.6501845000311732,,,,,,,,,,,,,,,,,909,22,male,up_down_width,2024-10-18_15h36.41.779,exp1,2023.1.0,60.16673404820172,
,,,,,,,,,,,,,,,,5,9,9.5,10,10.5,11,0.5,0.25,0.25,2.25,10,initial,36.05,324,342,361,379,397,9,9,9,9,9,,,,,,,1,0,1,0,0,43,43,51,,,,,,,,,,,,num_5,1.3743589000077918,num_5,0.35,0.7,0.35,0.65,13.37193,24.83358,return,1.3631002999609336,,,,,,,,,,,,,,,,,909,22,male,up_down_width,2024-10-18_15h36.41.779,exp1,2023.1.0,60.16673404820172,
,,,,,,,,,,,,,,,,5,9,9.5,10,10.5,11,0.5,0.25,0.25,2.25,10,initial,36.05,324,342,361,379,397,9,9,9,9,9,,,,,,,1,0,1,0,0,44,44,22,,,,,,,,,,,,num_6,0.8293588999658823,num_6,0.2,1.0,0.2,0.4,7.6411,15.2822,return,1.8759346000151709,,,,,,,,,,,,,,,,,909,22,male,up_down_width,2024-10-18_15h36.41.779,exp1,2023.1.0,60.16673404820172,
,,,,,,,,,,,,,,,,4,9.25,9.75,10.25,10.75,0,0.5,0.25,0.25,1.75,10,initial,36.05,333,351,370,388,0,9,9,9,9,0,,,,,,,1,0,1,0,0,45,45,9,,,,,,,,,,,,num_4,0.797448500059545,num_4,0.45,1.0,0.25000000000000006,0.5,9.55138,19.10275,return,3.767514800070785,,,,,,,,,,,,,,,,,909,22,male,up_down_width,2024-10-18_15h36.41.779,exp1,2023.1.0,60.16673404820172,
,,,,,,,,,,,,,,,,3,9.5,10,10.5,0,0,0.5,0.25,0.25,1.25,10,initial,36.05,342,361,379,0,0,9,9,9,0,0,,,,,,,1,0,1,0,0,46,46,28,,,,,,,,,,,,num_2,1.5820707000093535,num_2,0.3,0.8,0.2,0.6,7.6411,22.9233,return,2.266521800076589,,,,,,,,,,,,,,,,,909,22,male,up_down_width,2024-10-18_15h36.41.779,exp1,2023.1.0,60.16673404820172,
,,,,,,,,,,,,,,,,4,9.25,9.75,10.25,10.75,0,0.5,0.25,0.25,1.75,10,initial,36.05,333,351,370,388,0,9,9,9,9,0,,,,,,,1,0,1,0,0,47,47,16,,,,,,,,,,,,num_4,1.0026015000184998,num_4,0.25,1.1,0.15000000000000002,0.3,5.73083,11.46165,return,2.8324533000122756,,,,,,,,,,,,,,,,,909,22,male,up_down_width,2024-10-18_15h36.41.779,exp1,2023.1.0,60.16673404820172,
,,,,,,,,,,,,,,,,5,9,9.5,10,10.5,11,0.5,0.25,0.25,2.25,10,initial,36.05,324,342,361,379,397,9,9,9,9,9,,,,,,,1,0,1,0,0,48,48,46,,,,,,,,,,,,num_7,1.521009200019762,num_7,0.45,0.8,0.20000000000000007,0.4,7.6411,15.2822,return,3.981604300090112,,,,,,,,,,,,,,,,,909,22,male,up_down_width,2024-10-18_15h36.41.779,exp1,2023.1.0,60.16673404820172,
,,,,,,,,,,,,,,,,4,9.25,9.75,10.25,10.75,0,0.5,0.25,0.25,1.75,10,initial,36.05,333,351,370,388,0,9,9,9,9,0,,,,,,,1,0,1,0,0,49,49,12,,,,,,,,,,,,num_4,1.4088885999517515,num_4,0.35,1.1,0.25,0.4,9.55138,15.2822,return,2.2907715999754146,,,,,,,,,,,,,,,,,909,22,male,up_down_width,2024-10-18_15h36.41.779,exp1,2023.1.0,60.16673404820172,
,,,,,,,,,,,,,,,,3,9.5,10,10.5,0,0,0.5,0.25,0.25,1.25,10,initial,36.05,342,361,379,0,0,9,9,9,0,0,,,,,,,1,0,1,0,0,50,50,29,,,,,,,,,,,,num_2,1.0446666000643745,num_2,0.35,1.0,0.15000000000000002,0.5,5.73083,19.10275,return,2.778039800003171,,,,,,,,,,,,,,,,,909,22,male,up_down_width,2024-10-18_15h36.41.779,exp1,2023.1.0,60.16673404820172,
,,,,,,,,,,,,,,,,4,9.25,9.75,10.25,10.75,0,0.5,0.25,0.25,1.75,10,initial,36.05,333,351,370,388,0,9,9,9,9,0,,,,,,,1,0,1,0,0,51,51,10,,,,,,,,,,,,num_4,0.9159309000242501,num_4,0.4,0.6,0.20000000000000007,0.5,7.6411,19.10275,return,2.3958003000589088,,,,,,,,,,,,,,,,,909,22,male,up_down_width,2024-10-18_15h36.41.779,exp1,2023.1.0,60.16673404820172,
,,,,,,,,,,,,,,,,3,9.5,10,10.5,0,0,0.5,0.25,0.25,1.25,10,initial,36.05,342,361,379,0,0,9,9,9,0,0,,,,,,,1,0,1,0,0,52,52,32,,,,,,,,,,,,num_3,1.0678614999633282,num_3,0.4,1,0.15000000000000008,0.65,5.73083,24.83358,return,2.719131199992262,,,,,,,,,,,,,,,,,909,22,male,up_down_width,2024-10-18_15h36.41.779,exp1,2023.1.0,60.16673404820172,
,,,,,,,,,,,,,,,,3,9.5,10,10.5,0,0,0.5,0.25,0.25,1.25,10,initial,36.05,342,361,379,0,0,9,9,9,0,0,,,,,,,1,0,1,0,0,53,53,30,,,,,,,,,,,,num_3,1.0287328999256715,num_3,0.3,0.4,0.2,0.6,7.6411,22.9233,return,2.407544399960898,,,,,,,,,,,,,,,,,909,22,male,up_down_width,2024-10-18_15h36.41.779,exp1,2023.1.0,60.16673404820172,
,,,,,,,,,,,,,,,,,,,,,,,,,,,,,,,,,,,,,,,,,,,,,1,0,1,0,,,,,,,,,,,,,,,,,,,,,,,,,,,,,1255.8967144000344,1255.8967144000344,1255.8967144000344,,,,,,,,,,,,909,22,male,up_down_width,2024-10-18_15h36.41.779,exp1,2023.1.0,60.16673404820172,
,,,,,,,,,,,,,,,,3,9.1,10,10.9,0,0,0.9,0.35,0.55,2.35,10,initial,36.05,328,361,393,0,0,9,9,9,0,0,,,,,,,2,0,2,0,0,0,0,32,,,,,,,,,,,,num_3,1.0531759000150487,num_3,0.3,0.4,0.44999999999999996,1.1,17.19248,42.02605,return,10.718085700063966,,,,,,,,,,,,,,,,,909,22,male,up_down_width,2024-10-18_15h36.41.779,exp1,2023.1.0,60.16673404820172,
,,,,,,,,,,,,,,,,5,8.2,9.1,10,10.9,11.8,0.9,0.35,0.55,4.15,10,initial,36.05,296,328,361,393,425,9,9,9,9,9,,,,,,,2,0,2,0,0,1,1,52,,,,,,,,,,,,num_5,2.4125390000408515,num_5,0.5,1.3,0.5,1.3,19.10275,49.66716,return,1.131713300012052,,,,,,,,,,,,,,,,,909,22,male,up_down_width,2024-10-18_15h36.41.779,exp1,2023.1.0,60.16673404820172,
,,,,,,,,,,,,,,,,3,9.1,10,10.9,0,0,0.9,0.35,0.55,2.35,10,initial,36.05,328,361,393,0,0,9,9,9,0,0,,,,,,,2,0,2,0,0,2,2,27,,,,,,,,,,,,num_3,1.2556140000233427,num_3,0.55,1,0.55,1.2,21.01303,45.8466,return,1.2809464000165462,,,,,,,,,,,,,,,,,909,22,male,up_down_width,2024-10-18_15h36.41.779,exp1,2023.1.0,60.16673404820172,
,,,,,,,,,,,,,,,,4,8.65,9.55,10.45,11.35,0,0.9,0.35,0.55,3.25,10,initial,36.05,312,344,377,409,0,9,9,9,9,0,,,,,,,2,0,2,0,0,3,3,42,,,,,,,,,,,,num_4,1.7371573999989778,num_4,0.2,0.3,0.65,1.1,24.83358,42.02605,return,4.306274599977769,,,,,,,,,,,,,,,,,909,22,male,up_down_width,2024-10-18_15h36.41.779,exp1,2023.1.0,60.16673404820172,
,,,,,,,,,,,,,,,,4,8.65,9.55,10.45,11.35,0,0.9,0.35,0.55,3.25,10,initial,36.05,312,344,377,409,0,9,9,9,9,0,,,,,,,2,0,2,0,0,4,4,40,,,,,,,,,,,,num_5,1.4179348000325263,num_5,0.25,1.1,0.7000000000000001,1.25,26.74385,47.75688,return,2.8272613999433815,,,,,,,,,,,,,,,,,909,22,male,up_down_width,2024-10-18_15h36.41.779,exp1,2023.1.0,60.16673404820172,
,,,,,,,,,,,,,,,,3,9.1,10,10.9,0,0,0.9,0.35,0.55,2.35,10,initial,36.05,328,361,393,0,0,9,9,9,0,0,,,,,,,2,0,2,0,0,5,5,29,,,,,,,,,,,,num_3,1.9473708999576047,num_3,0.3,1,0.7000000000000001,1.1,26.74385,42.02605,return,2.551560000050813,,,,,,,,,,,,,,,,,909,22,male,up_down_width,2024-10-18_15h36.41.779,exp1,2023.1.0,60.16673404820172,
,,,,,,,,,,,,,,,,3,9.1,10,10.9,0,0,0.9,0.35,0.55,2.35,10,initial,36.05,328,361,393,0,0,9,9,9,0,0,,,,,,,2,0,2,0,0,6,6,34,,,,,,,,,,,,num_3,2.8078721999190748,num_3,0.45,0.5,0.6500000000000001,1.1,24.83358,42.02605,return,3.3178333000978455,,,,,,,,,,,,,,,,,909,22,male,up_down_width,2024-10-18_15h36.41.779,exp1,2023.1.0,60.16673404820172,
,,,,,,,,,,,,,,,,4,8.65,9.55,10.45,11.35,0,0.9,0.35,0.55,3.25,10,initial,36.05,312,344,377,409,0,9,9,9,9,0,,,,,,,2,0,2,0,0,7,7,41,,,,,,,,,,,,num_4,1.327355100074783,num_4,0.35,0.7,0.7000000000000001,1.1,26.74385,42.02605,return,2.8097160999896005,,,,,,,,,,,,,,,,,909,22,male,up_down_width,2024-10-18_15h36.41.779,exp1,2023.1.0,60.16673404820172,
,,,,,,,,,,,,,,,,5,8.2,9.1,10,10.9,11.8,0.9,0.35,0.55,4.15,10,initial,36.05,296,328,361,393,425,9,9,9,9,9,,,,,,,2,0,2,0,0,8,8,18,,,,,,,,,,,,num_5,0.9597018000204116,num_5,0.2,0.4,0.7000000000000001,0.9,26.74385,34.38495,return,3.5071699999971315,,,,,,,,,,,,,,,,,909,22,male,up_down_width,2024-10-18_15h36.41.779,exp1,2023.1.0,60.16673404820172,
,,,,,,,,,,,,,,,,3,9.1,10,10.9,0,0,0.9,0.35,0.55,2.35,10,initial,36.05,328,361,393,0,0,9,9,9,0,0,,,,,,,2,0,2,0,0,9,9,30,,,,,,,,,,,,num_3,1.2306757000042126,num_3,0.45,0.7,0.6500000000000001,1.1,24.83358,42.02605,return,2.937913400004618,,,,,,,,,,,,,,,,,909,22,male,up_down_width,2024-10-18_15h36.41.779,exp1,2023.1.0,60.16673404820172,
,,,,,,,,,,,,,,,,4,8.65,9.55,10.45,11.35,0,0.9,0.35,0.55,3.25,10,initial,36.05,312,344,377,409,0,9,9,9,9,0,,,,,,,2,0,2,0,0,10,10,10,,,,,,,,,,,,num_1,1.4483904999215156,num_1,0.3,9999,0.35,9999,13.37193,382016.8345,return,2.39146869990509,,,,,,,,,,,,,,,,,909,22,male,up_down_width,2024-10-18_15h36.41.779,exp1,2023.1.0,60.16673404820172,
,,,,,,,,,,,,,,,,4,8.65,9.55,10.45,11.35,0,0.9,0.35,0.55,3.25,10,initial,36.05,312,344,377,409,0,9,9,9,9,0,,,,,,,2,0,2,0,0,11,11,17,,,,,,,,,,,,num_4,0.96491579990834,num_4,0.35,0.4,0.65,1.0,24.83358,38.2055,return,5.146014500060119,,,,,,,,,,,,,,,,,909,22,male,up_down_width,2024-10-18_15h36.41.779,exp1,2023.1.0,60.16673404820172,
,,,,,,,,,,,,,,,,4,8.65,9.55,10.45,11.35,0,0.9,0.35,0.55,3.25,10,initial,36.05,312,344,377,409,0,9,9,9,9,0,,,,,,,2,0,2,0,0,12,12,38,,,,,,,,,,,,num_5,0.9659422999247909,num_5,0.35,0.4,0.49999999999999994,0.8,19.10275,30.5644,return,2.972662699990906,,,,,,,,,,,,,,,,,909,22,male,up_down_width,2024-10-18_15h36.41.779,exp1,2023.1.0,60.16673404820172,
,,,,,,,,,,,,,,,,5,8.2,9.1,10,10.9,11.8,0.9,0.35,0.55,4.15,10,initial,36.05,296,328,361,393,425,9,9,9,9,9,,,,,,,2,0,2,0,0,13,13,24,,,,,,,,,,,,num_6,1.2277011000551283,num_6,0.5,1.2,0.5,0.7,19.10275,26.74385,return,3.4328564000315964,,,,,,,,,,,,,,,,,909,22,male,up_down_width,2024-10-18_15h36.41.779,exp1,2023.1.0,60.16673404820172,
,,,,,,,,,,,,,,,,4,8.65,9.55,10.45,11.35,0,0.9,0.35,0.55,3.25,10,initial,36.05,312,344,377,409,0,9,9,9,9,0,,,,,,,2,0,2,0,0,14,14,9,,,,,,,,,,,,num_4,0.8093764999648556,num_4,0.55,1.1,0.45,0.6,17.19248,22.9233,return,3.9691962000215426,,,,,,,,,,,,,,,,,909,22,male,up_down_width,2024-10-18_15h36.41.779,exp1,2023.1.0,60.16673404820172,
,,,,,,,,,,,,,,,,4,8.65,9.55,10.45,11.35,0,0.9,0.35,0.55,3.25,10,initial,36.05,312,344,377,409,0,9,9,9,9,0,,,,,,,2,0,2,0,0,15,15,14,,,,,,,,,,,,num_4,1.0206351999659091,num_4,0.2,1.0,0.7500000000000001,1.0,28.65413,38.2055,return,3.164382299990393,,,,,,,,,,,,,,,,,909,22,male,up_down_width,2024-10-18_15h36.41.779,exp1,2023.1.0,60.16673404820172,
,,,,,,,,,,,,,,,,3,9.1,10,10.9,0,0,0.9,0.35,0.55,2.35,10,initial,36.05,328,361,393,0,0,9,9,9,0,0,,,,,,,2,0,2,0,0,16,16,31,,,,,,,,,,,,num_3,1.3452922999858856,num_3,0.2,0.7,0.6,0.85,22.9233,32.47468,return,2.659633099916391,,,,,,,,,,,,,,,,,909,22,male,up_down_width,2024-10-18_15h36.41.779,exp1,2023.1.0,60.16673404820172,
,,,,,,,,,,,,,,,,5,8.2,9.1,10,10.9,11.8,0.9,0.35,0.55,4.15,10,initial,36.05,296,328,361,393,425,9,9,9,9,9,,,,,,,2,0,2,0,0,17,17,47,,,,,,,,,,,,num_7,1.8915186000522226,num_7,0.3,0.5,0.39999999999999997,0.6,15.2822,22.9233,return,2.3575277000200003,,,,,,,,,,,,,,,,,909,22,male,up_down_width,2024-10-18_15h36.41.779,exp1,2023.1.0,60.16673404820172,
,,,,,,,,,,,,,,,,3,9.1,10,10.9,0,0,0.9,0.35,0.55,2.35,10,initial,36.05,328,361,393,0,0,9,9,9,0,0,,,,,,,2,0,2,0,0,18,18,6,,,,,,,,,,,,num_3,1.8290787999285385,num_3,0.25,1.1,0.6,1.15,22.9233,43.93633,return,2.805906799971126,,,,,,,,,,,,,,,,,909,22,male,up_down_width,2024-10-18_15h36.41.779,exp1,2023.1.0,60.16673404820172,
,,,,,,,,,,,,,,,,3,9.1,10,10.9,0,0,0.9,0.35,0.55,2.35,10,initial,36.05,328,361,393,0,0,9,9,9,0,0,,,,,,,2,0,2,0,0,19,19,2,,,,,,,,,,,,num_2,1.54334860004019,num_2,0.45,1.0,0.55,1.2,21.01303,45.8466,return,1.9091060999780893,,,,,,,,,,,,,,,,,909,22,male,up_down_width,2024-10-18_15h36.41.779,exp1,2023.1.0,60.16673404820172,
,,,,,,,,,,,,,,,,4,8.65,9.55,10.45,11.35,0,0.9,0.35,0.55,3.25,10,initial,36.05,312,344,377,409,0,9,9,9,9,0,,,,,,,2,0,2,0,0,20,20,12,,,,,,,,,,,,num_4,1.4460844999412075,num_4,0.25,0.3,0.44999999999999996,0.8,17.19248,30.5644,return,2.0265809999546036,,,,,,,,,,,,,,,,,909,22,male,up_down_width,2024-10-18_15h36.41.779,exp1,2023.1.0,60.16673404820172,
,,,,,,,,,,,,,,,,5,8.2,9.1,10,10.9,11.8,0.9,0.35,0.55,4.15,10,initial,36.05,296,328,361,393,425,9,9,9,9,9,,,,,,,2,0,2,0,0,21,21,49,,,,,,,,,,,,num_7,1.2507453999714926,num_7,0.35,0.4,0.35,0.55,13.37193,21.01303,return,1.3730886998819187,,,,,,,,,,,,,,,,,909,22,male,up_down_width,2024-10-18_15h36.41.779,exp1,2023.1.0,60.16673404820172,
,,,,,,,,,,,,,,,,3,9.1,10,10.9,0,0,0.9,0.35,0.55,2.35,10,initial,36.05,328,361,393,0,0,9,9,9,0,0,,,,,,,2,0,2,0,0,22,22,5,,,,,,,,,,,,num_3,1.8096291999099776,num_3,0.2,0.5,0.44999999999999996,0.85,17.19248,32.47468,return,2.6121756000211462,,,,,,,,,,,,,,,,,909,22,male,up_down_width,2024-10-18_15h36.41.779,exp1,2023.1.0,60.16673404820172,
,,,,,,,,,,,,,,,,5,8.2,9.1,10,10.9,11.8,0.9,0.35,0.55,4.15,10,initial,36.05,296,328,361,393,425,9,9,9,9,9,,,,,,,2,0,2,0,0,23,23,51,,,,,,,,,,,,num_6,1.2827029000036418,num_6,0.3,1.3,0.44999999999999996,0.6,17.19248,22.9233,return,2.6667731000343338,,,,,,,,,,,,,,,,,909,22,male,up_down_width,2024-10-18_15h36.41.779,exp1,2023.1.0,60.16673404820172,
,,,,,,,,,,,,,,,,3,9.1,10,10.9,0,0,0.9,0.35,0.55,2.35,10,initial,36.05,328,361,393,0,0,9,9,9,0,0,,,,,,,2,0,2,0,0,24,24,33,,,,,,,,,,,,num_2,1.1110816000727937,num_2,0.5,0.6,0.55,1.0,21.01303,38.2055,return,1.5096925999969244,,,,,,,,,,,,,,,,,909,22,male,up_down_width,2024-10-18_15h36.41.779,exp1,2023.1.0,60.16673404820172,
,,,,,,,,,,,,,,,,4,8.65,9.55,10.45,11.35,0,0.9,0.35,0.55,3.25,10,initial,36.05,312,344,377,409,0,9,9,9,9,0,,,,,,,2,0,2,0,0,25,25,37,,,,,,,,,,,,num_4,1.8787116999737918,num_4,0.3,0.5,0.44999999999999996,0.8,17.19248,30.5644,return,3.130143899936229,,,,,,,,,,,,,,,,,909,22,male,up_down_width,2024-10-18_15h36.41.779,exp1,2023.1.0,60.16673404820172,
,,,,,,,,,,,,,,,,4,8.65,9.55,10.45,11.35,0,0.9,0.35,0.55,3.25,10,initial,36.05,312,344,377,409,0,9,9,9,9,0,,,,,,,2,0,2,0,0,26,26,16,,,,,,,,,,,,num_4,1.1580690999981016,num_4,0.35,0.9,0.35,0.7,13.37193,26.74385,return,1.1221407999983057,,,,,,,,,,,,,,,,,909,22,male,up_down_width,2024-10-18_15h36.41.779,exp1,2023.1.0,60.16673404820172,
,,,,,,,,,,,,,,,,5,8.2,9.1,10,10.9,11.8,0.9,0.35,0.55,4.15,10,initial,36.05,296,328,361,393,425,9,9,9,9,9,,,,,,,2,0,2,0,0,27,27,19,,,,,,,,,,,,num_6,1.2495164000429213,num_6,0.25,0.9,0.49999999999999994,0.7,19.10275,26.74385,return,1.947298499988392,,,,,,,,,,,,,,,,,909,22,male,up_down_width,2024-10-18_15h36.41.779,exp1,2023.1.0,60.16673404820172,
,,,,,,,,,,,,,,,,3,9.1,10,10.9,0,0,0.9,0.35,0.55,2.35,10,initial,36.05,328,361,393,0,0,9,9,9,0,0,,,,,,,2,0,2,0,0,28,28,28,,,,,,,,,,,,num_4,2.114138000062667,num_4,0.35,0.4,0.35,0.6,13.37193,22.9233,return,1.52124020003248,,,,,,,,,,,,,,,,,909,22,male,up_down_width,2024-10-18_15h36.41.779,exp1,2023.1.0,60.16673404820172,
,,,,,,,,,,,,,,,,4,8.65,9.55,10.45,11.35,0,0.9,0.35,0.55,3.25,10,initial,36.05,312,344,377,409,0,9,9,9,9,0,,,,,,,2,0,2,0,0,29,29,11,,,,,,,,,,,,num_4,2.460210199933499,num_4,0.45,0.9,0.35000000000000003,0.8,13.37193,30.5644,return,2.2602576999925077,,,,,,,,,,,,,,,,,909,22,male,up_down_width,2024-10-18_15h36.41.779,exp1,2023.1.0,60.16673404820172,
,,,,,,,,,,,,,,,,4,8.65,9.55,10.45,11.35,0,0.9,0.35,0.55,3.25,10,initial,36.05,312,344,377,409,0,9,9,9,9,0,,,,,,,2,0,2,0,0,30,30,13,,,,,,,,,,,,num_4,1.207763300044462,num_4,0.35,1.1,0.39999999999999997,0.9,15.2822,34.38495,return,2.4375949000241235,,,,,,,,,,,,,,,,,909,22,male,up_down_width,2024-10-18_15h36.41.779,exp1,2023.1.0,60.16673404820172,
,,,,,,,,,,,,,,,,5,8.2,9.1,10,10.9,11.8,0.9,0.35,0.55,4.15,10,initial,36.05,296,328,361,393,425,9,9,9,9,9,,,,,,,2,0,2,0,0,31,31,26,,,,,,,,,,,,num_6,1.4828312000026926,num_6,0.55,0.6,0.55,0.9,21.01303,34.38495,return,2.8794220000272617,,,,,,,,,,,,,,,,,909,22,male,up_down_width,2024-10-18_15h36.41.779,exp1,2023.1.0,60.16673404820172,
,,,,,,,,,,,,,,,,3,9.1,10,10.9,0,0,0.9,0.35,0.55,2.35,10,initial,36.05,328,361,393,0,0,9,9,9,0,0,,,,,,,2,0,2,0,0,32,32,4,,,,,,,,,,,,num_4,1.3640597999328747,num_4,0.25,0.9,0.5499999999999999,0.9,21.01303,34.38495,return,2.3441192000173032,,,,,,,,,,,,,,,,,909,22,male,up_down_width,2024-10-18_15h36.41.779,exp1,2023.1.0,60.16673404820172,
,,,,,,,,,,,,,,,,4,8.65,9.55,10.45,11.35,0,0.9,0.35,0.55,3.25,10,initial,36.05,312,344,377,409,0,9,9,9,9,0,,,,,,,2,0,2,0,0,33,33,15,,,,,,,,,,,,num_6,2.875725800055079,num_6,0.3,0.4,0.49999999999999994,0.7,19.10275,26.74385,return,2.6758685000240803,,,,,,,,,,,,,,,,,909,22,male,up_down_width,2024-10-18_15h36.41.779,exp1,2023.1.0,60.16673404820172,
,,,,,,,,,,,,,,,,3,9.1,10,10.9,0,0,0.9,0.35,0.55,2.35,10,initial,36.05,328,361,393,0,0,9,9,9,0,0,,,,,,,2,0,2,0,0,34,34,8,,,,,,,,,,,,num_2,1.766196500044316,num_2,0.4,0.8,0.4,1.0,15.2822,38.2055,return,1.097530100028962,,,,,,,,,,,,,,,,,909,22,male,up_down_width,2024-10-18_15h36.41.779,exp1,2023.1.0,60.16673404820172,
,,,,,,,,,,,,,,,,5,8.2,9.1,10,10.9,11.8,0.9,0.35,0.55,4.15,10,initial,36.05,296,328,361,393,425,9,9,9,9,9,,,,,,,2,0,2,0,0,35,35,23,,,,,,,,,,,,num_5,1.5186487999744713,num_5,0.5,1.0,0.35000000000000003,0.65,13.37193,24.83358,return,2.7014096000930294,,,,,,,,,,,,,,,,,909,22,male,up_down_width,2024-10-18_15h36.41.779,exp1,2023.1.0,60.16673404820172,
,,,,,,,,,,,,,,,,5,8.2,9.1,10,10.9,11.8,0.9,0.35,0.55,4.15,10,initial,36.05,296,328,361,393,425,9,9,9,9,9,,,,,,,2,0,2,0,0,36,36,25,,,,,,,,,,,,num_7,1.538788600009866,num_7,0.25,1.1,0.44999999999999996,0.75,17.19248,28.65413,return,4.706826700014062,,,,,,,,,,,,,,,,,909,22,male,up_down_width,2024-10-18_15h36.41.779,exp1,2023.1.0,60.16673404820172,
,,,,,,,,,,,,,,,,3,9.1,10,10.9,0,0,0.9,0.35,0.55,2.35,10,initial,36.05,328,361,393,0,0,9,9,9,0,0,,,,,,,2,0,2,0,0,37,37,7,,,,,,,,,,,,num_3,1.3123118999646977,num_3,0.3,0.5,0.49999999999999994,0.75,19.10275,28.65413,return,2.6659502000547945,,,,,,,,,,,,,,,,,909,22,male,up_down_width,2024-10-18_15h36.41.779,exp1,2023.1.0,60.16673404820172,
,,,,,,,,,,,,,,,,3,9.1,10,10.9,0,0,0.9,0.35,0.55,2.35,10,initial,36.05,328,361,393,0,0,9,9,9,0,0,,,,,,,2,0,2,0,0,38,38,3,,,,,,,,,,,,num_4,1.5601521999342367,num_4,0.2,0.7,0.5499999999999999,0.9,21.01303,34.38495,return,2.798956000013277,,,,,,,,,,,,,,,,,909,22,male,up_down_width,2024-10-18_15h36.41.779,exp1,2023.1.0,60.16673404820172,
,,,,,,,,,,,,,,,,4,8.65,9.55,10.45,11.35,0,0.9,0.35,0.55,3.25,10,initial,36.05,312,344,377,409,0,9,9,9,9,0,,,,,,,2,0,2,0,0,39,39,39,,,,,,,,,,,,num_4,1.6915485999779776,num_4,0.35,0.6,0.49999999999999994,0.8,19.10275,30.5644,return,1.7621637999545783,,,,,,,,,,,,,,,,,909,22,male,up_down_width,2024-10-18_15h36.41.779,exp1,2023.1.0,60.16673404820172,
,,,,,,,,,,,,,,,,3,9.1,10,10.9,0,0,0.9,0.35,0.55,2.35,10,initial,36.05,328,361,393,0,0,9,9,9,0,0,,,,,,,2,0,2,0,0,40,40,1,,,,,,,,,,,,num_3,1.1056563999736682,num_3,0.3,1.2,0.6,0.9,22.9233,34.38495,return,4.397667199955322,,,,,,,,,,,,,,,,,909,22,male,up_down_width,2024-10-18_15h36.41.779,exp1,2023.1.0,60.16673404820172,
,,,,,,,,,,,,,,,,5,8.2,9.1,10,10.9,11.8,0.9,0.35,0.55,4.15,10,initial,36.05,296,328,361,393,425,9,9,9,9,9,,,,,,,2,0,2,0,0,41,41,53,,,,,,,,,,,,num_3,1.6044197999872267,num_3,0.3,1.2,0.65,1.05,24.83358,40.11578,return,2.5854850999312475,,,,,,,,,,,,,,,,,909,22,male,up_down_width,2024-10-18_15h36.41.779,exp1,2023.1.0,60.16673404820172,
,,,,,,,,,,,,,,,,5,8.2,9.1,10,10.9,11.8,0.9,0.35,0.55,4.15,10,initial,36.05,296,328,361,393,425,9,9,9,9,9,,,,,,,2,0,2,0,0,42,42,50,,,,,,,,,,,,num_4,0.9431591000175104,num_4,0.35,0.6,0.6,1.0,22.9233,38.2055,return,2.5202398999826983,,,,,,,,,,,,,,,,,909,22,male,up_down_width,2024-10-18_15h36.41.779,exp1,2023.1.0,60.16673404820172,
,,,,,,,,,,,,,,,,3,9.1,10,10.9,0,0,0.9,0.35,0.55,2.35,10,initial,36.05,328,361,393,0,0,9,9,9,0,0,,,,,,,2,0,2,0,0,43,43,0,,,,,,,,,,,,num_3,0.7726315000327304,num_3,0.35,0.5,0.49999999999999994,0.85,19.10275,32.47468,return,3.443265099893324,,,,,,,,,,,,,,,,,909,22,male,up_down_width,2024-10-18_15h36.41.779,exp1,2023.1.0,60.16673404820172,
,,,,,,,,,,,,,,,,5,8.2,9.1,10,10.9,11.8,0.9,0.35,0.55,4.15,10,initial,36.05,296,328,361,393,425,9,9,9,9,9,,,,,,,2,0,2,0,0,44,44,48,,,,,,,,,,,,num_3,2.3704595000017434,num_3,0.55,0.8,0.4,0.8,15.2822,30.5644,return,3.2629264999413863,,,,,,,,,,,,,,,,,909,22,male,up_down_width,2024-10-18_15h36.41.779,exp1,2023.1.0,60.16673404820172,
,,,,,,,,,,,,,,,,5,8.2,9.1,10,10.9,11.8,0.9,0.35,0.55,4.15,10,initial,36.05,296,328,361,393,425,9,9,9,9,9,,,,,,,2,0,2,0,0,45,45,45,,,,,,,,,,,,num_3,2.19506790000014,num_3,0.4,0.5,0.5,0.75,19.10275,28.65413,return,1.7851069999160245,,,,,,,,,,,,,,,,,909,22,male,up_down_width,2024-10-18_15h36.41.779,exp1,2023.1.0,60.16673404820172,
,,,,,,,,,,,,,,,,4,8.65,9.55,10.45,11.35,0,0.9,0.35,0.55,3.25,10,initial,36.05,312,344,377,409,0,9,9,9,9,0,,,,,,,2,0,2,0,0,46,46,36,,,,,,,,,,,,num_4,0.8887864999705926,num_4,0.25,0.7,0.5499999999999999,0.8,21.01303,30.5644,return,3.0936076999641955,,,,,,,,,,,,,,,,,909,22,male,up_down_width,2024-10-18_15h36.41.779,exp1,2023.1.0,60.16673404820172,
,,,,,,,,,,,,,,,,4,8.65,9.55,10.45,11.35,0,0.9,0.35,0.55,3.25,10,initial,36.05,312,344,377,409,0,9,9,9,9,0,,,,,,,2,0,2,0,0,47,47,44,,,,,,,,,,,,num_4,1.2826436000177637,num_4,0.35,1.2,0.44999999999999996,0.7,17.19248,26.74385,return,3.067906799959019,,,,,,,,,,,,,,,,,909,22,male,up_down_width,2024-10-18_15h36.41.779,exp1,2023.1.0,60.16673404820172,
,,,,,,,,,,,,,,,,5,8.2,9.1,10,10.9,11.8,0.9,0.35,0.55,4.15,10,initial,36.05,296,328,361,393,425,9,9,9,9,9,,,,,,,2,0,2,0,0,48,48,46,,,,,,,,,,,,num_5,0.84259330003988,num_5,0.2,0.7,0.49999999999999994,0.8,19.10275,30.5644,return,2.4179853999521583,,,,,,,,,,,,,,,,,909,22,male,up_down_width,2024-10-18_15h36.41.779,exp1,2023.1.0,60.16673404820172,
,,,,,,,,,,,,,,,,5,8.2,9.1,10,10.9,11.8,0.9,0.35,0.55,4.15,10,initial,36.05,296,328,361,393,425,9,9,9,9,9,,,,,,,2,0,2,0,0,49,49,20,,,,,,,,,,,,num_5,0.9097056000027806,num_5,0.3,1.0,0.7000000000000001,1.05,26.74385,40.11578,return,2.2293305000057444,,,,,,,,,,,,,,,,,909,22,male,up_down_width,2024-10-18_15h36.41.779,exp1,2023.1.0,60.16673404820172,
,,,,,,,,,,,,,,,,5,8.2,9.1,10,10.9,11.8,0.9,0.35,0.55,4.15,10,initial,36.05,296,328,361,393,425,9,9,9,9,9,,,,,,,2,0,2,0,0,50,50,21,,,,,,,,,,,,num_6,0.7925087000476196,num_6,0.45,1.2,0.5,0.7,19.10275,26.74385,return,2.4352283999323845,,,,,,,,,,,,,,,,,909,22,male,up_down_width,2024-10-18_15h36.41.779,exp1,2023.1.0,60.16673404820172,
,,,,,,,,,,,,,,,,5,8.2,9.1,10,10.9,11.8,0.9,0.35,0.55,4.15,10,initial,36.05,296,328,361,393,425,9,9,9,9,9,,,,,,,2,0,2,0,0,51,51,22,,,,,,,,,,,,num_6,1.0968773000640795,num_6,0.3,0.7,0.49999999999999994,0.8,19.10275,30.5644,return,2.1503380000358447,,,,,,,,,,,,,,,,,909,22,male,up_down_width,2024-10-18_15h36.41.779,exp1,2023.1.0,60.16673404820172,
,,,,,,,,,,,,,,,,3,9.1,10,10.9,0,0,0.9,0.35,0.55,2.35,10,initial,36.05,328,361,393,0,0,9,9,9,0,0,,,,,,,2,0,2,0,0,52,52,35,,,,,,,,,,,,num_2,0.9183243999723345,num_2,0.4,1.0,0.4,1.1,15.2822,42.02605,return,1.456543300068006,,,,,,,,,,,,,,,,,909,22,male,up_down_width,2024-10-18_15h36.41.779,exp1,2023.1.0,60.16673404820172,
,,,,,,,,,,,,,,,,4,8.65,9.55,10.45,11.35,0,0.9,0.35,0.55,3.25,10,initial,36.05,312,344,377,409,0,9,9,9,9,0,,,,,,,2,0,2,0,0,53,53,43,,,,,,,,,,,,num_4,1.149636400048621,num_4,0.5,1.1,0.5,1.0,19.10275,38.2055,return,1.0975276000099257,,,,,,,,,,,,,,,,,909,22,male,up_down_width,2024-10-18_15h36.41.779,exp1,2023.1.0,60.16673404820172,
,,,,,,,,,,,,,,,,,,,,,,,,,,,,,,,,,,,,,,,,,,,,,2,0,2,0,,,,,,,,,,,,,,,,,,,,,,,,,,,,,1578.4794302999508,1578.4794302999508,1578.4794302999508,,,,,,,,,,,,909,22,male,up_down_width,2024-10-18_15h36.41.779,exp1,2023.1.0,60.16673404820172,
,,,,,,,,,,,,,,,,5,9,9.5,10,10.5,11,0.5,0.1,0.4,2.4,10,initial,36.05,324,342,361,379,397,9,9,9,9,9,,,,,,,3,0,3,0,0,0,0,26,,,,,,,,,,,,num_4,1.6150605999864638,num_4,0.2,1.2,0.3,0.5,11.46165,19.10275,return,2.1416900999611244,,,,,,,,,,,,,,,,,909,22,male,up_down_width,2024-10-18_15h36.41.779,exp1,2023.1.0,60.16673404820172,
,,,,,,,,,,,,,,,,5,9,9.5,10,10.5,11,0.5,0.1,0.4,2.4,10,initial,36.05,324,342,361,379,397,9,9,9,9,9,,,,,,,3,0,3,0,0,1,1,53,,,,,,,,,,,,num_5,0.846726999967359,num_5,0.4,0.8,0.35000000000000003,0.55,13.37193,21.01303,return,2.5189934000372887,,,,,,,,,,,,,,,,,909,22,male,up_down_width,2024-10-18_15h36.41.779,exp1,2023.1.0,60.16673404820172,
,,,,,,,,,,,,,,,,5,9,9.5,10,10.5,11,0.5,0.1,0.4,2.4,10,initial,36.05,324,342,361,379,397,9,9,9,9,9,,,,,,,3,0,3,0,0,2,2,21,,,,,,,,,,,,num_5,0.9582945000147447,num_5,0.25,1.2,0.3,0.6,11.46165,22.9233,return,3.6157592999516055,,,,,,,,,,,,,,,,,909,22,male,up_down_width,2024-10-18_15h36.41.779,exp1,2023.1.0,60.16673404820172,
,,,,,,,,,,,,,,,,5,9,9.5,10,10.5,11,0.5,0.1,0.4,2.4,10,initial,36.05,324,342,361,379,397,9,9,9,9,9,,,,,,,3,0,3,0,0,3,3,51,,,,,,,,,,,,num_5,1.0494400999741629,num_5,0.45,1.3,0.30000000000000004,0.7,11.46165,26.74385,return,3.1776201999746263,,,,,,,,,,,,,,,,,909,22,male,up_down_width,2024-10-18_15h36.41.779,exp1,2023.1.0,60.16673404820172,
,,,,,,,,,,,,,,,,3,9.5,10,10.5,0,0,0.5,0.1,0.4,1.4000000000000001,10,initial,36.05,342,361,379,0,0,9,9,9,0,0,,,,,,,3,0,3,0,0,4,4,27,,,,,,,,,,,,num_3,0.886331700021401,num_3,0.2,0.8,0.39999999999999997,0.75,15.2822,28.65413,return,1.7708227999974042,,,,,,,,,,,,,,,,,909,22,male,up_down_width,2024-10-18_15h36.41.779,exp1,2023.1.0,60.16673404820172,
,,,,,,,,,,,,,,,,4,9.25,9.75,10.25,10.75,0,0.5,0.1,0.4,1.9000000000000001,10,initial,36.05,333,351,370,388,0,9,9,9,9,0,,,,,,,3,0,3,0,0,5,5,14,,,,,,,,,,,,num_3,1.020896999980323,num_3,0.3,1.1,0.25,0.75,9.55138,28.65413,return,3.339471699902788,,,,,,,,,,,,,,,,,909,22,male,up_down_width,2024-10-18_15h36.41.779,exp1,2023.1.0,60.16673404820172,
,,,,,,,,,,,,,,,,5,9,9.5,10,10.5,11,0.5,0.1,0.4,2.4,10,initial,36.05,324,342,361,379,397,9,9,9,9,9,,,,,,,3,0,3,0,0,6,6,45,,,,,,,,,,,,num_6,1.0614646000321954,num_6,0.45,0.8,0.45,0.5,17.19248,19.10275,return,1.2573109000222757,,,,,,,,,,,,,,,,,909,22,male,up_down_width,2024-10-18_15h36.41.779,exp1,2023.1.0,60.16673404820172,
,,,,,,,,,,,,,,,,5,9,9.5,10,10.5,11,0.5,0.1,0.4,2.4,10,initial,36.05,324,342,361,379,397,9,9,9,9,9,,,,,,,3,0,3,0,0,7,7,47,,,,,,,,,,,,num_5,0.7020168999442831,num_5,0.2,0.7,0.44999999999999996,0.55,17.19248,21.01303,return,4.060045399935916,,,,,,,,,,,,,,,,,909,22,male,up_down_width,2024-10-18_15h36.41.779,exp1,2023.1.0,60.16673404820172,
,,,,,,,,,,,,,,,,4,9.25,9.75,10.25,10.75,0,0.5,0.1,0.4,1.9000000000000001,10,initial,36.05,333,351,370,388,0,9,9,9,9,0,,,,,,,3,0,3,0,0,8,8,16,,,,,,,,,,,,num_5,0.9300857000052929,num_5,0.25,0.3,0.25,0.35,9.55138,13.37193,return,1.3015218999935314,,,,,,,,,,,,,,,,,909,22,male,up_down_width,2024-10-18_15h36.41.779,exp1,2023.1.0,60.16673404820172,
,,,,,,,,,,,,,,,,5,9,9.5,10,10.5,11,0.5,0.1,0.4,2.4,10,initial,36.05,324,342,361,379,397,9,9,9,9,9,,,,,,,3,0,3,0,0,9,9,25,,,,,,,,,,,,num_5,1.3101197000360116,num_5,0.25,1.2,0.3,0.4,11.46165,15.2822,return,4.9977656999835745,,,,,,,,,,,,,,,,,909,22,male,up_down_width,2024-10-18_15h36.41.779,exp1,2023.1.0,60.16673404820172,
,,,,,,,,,,,,,,,,4,9.25,9.75,10.25,10.75,0,0.5,0.1,0.4,1.9000000000000001,10,initial,36.05,333,351,370,388,0,9,9,9,9,0,,,,,,,3,0,3,0,0,10,10,17,,,,,,,,,,,,num_5,1.3904154000338167,num_5,0.5,1.0,0.35000000000000003,0.45,13.37193,17.19248,return,4.2274078000336885,,,,,,,,,,,,,,,,,909,22,male,up_down_width,2024-10-18_15h36.41.779,exp1,2023.1.0,60.16673404820172,
,,,,,,,,,,,,,,,,3,9.5,10,10.5,0,0,0.5,0.1,0.4,1.4000000000000001,10,initial,36.05,342,361,379,0,0,9,9,9,0,0,,,,,,,3,0,3,0,0,11,11,6,,,,,,,,,,,,num_3,1.3246840999927372,num_3,0.45,1.3,0.35000000000000003,0.7,13.37193,26.74385,return,3.224174899980426,,,,,,,,,,,,,,,,,909,22,male,up_down_width,2024-10-18_15h36.41.779,exp1,2023.1.0,60.16673404820172,
,,,,,,,,,,,,,,,,4,9.25,9.75,10.25,10.75,0,0.5,0.1,0.4,1.9000000000000001,10,initial,36.05,333,351,370,388,0,9,9,9,9,0,,,,,,,3,0,3,0,0,12,12,10,,,,,,,,,,,,num_4,0.9366415999829769,num_4,0.45,0.7,0.45,0.6,17.19248,22.9233,return,2.5225863999221474,,,,,,,,,,,,,,,,,909,22,male,up_down_width,2024-10-18_15h36.41.779,exp1,2023.1.0,60.16673404820172,
,,,,,,,,,,,,,,,,3,9.5,10,10.5,0,0,0.5,0.1,0.4,1.4000000000000001,10,initial,36.05,342,361,379,0,0,9,9,9,0,0,,,,,,,3,0,3,0,0,13,13,28,,,,,,,,,,,,num_3,1.005622399970889,num_3,0.5,1.1,0.4,0.6,15.2822,22.9233,return,2.7842624998884276,,,,,,,,,,,,,,,,,909,22,male,up_down_width,2024-10-18_15h36.41.779,exp1,2023.1.0,60.16673404820172,
,,,,,,,,,,,,,,,,4,9.25,9.75,10.25,10.75,0,0.5,0.1,0.4,1.9000000000000001,10,initial,36.05,333,351,370,388,0,9,9,9,9,0,,,,,,,3,0,3,0,0,14,14,39,,,,,,,,,,,,num_4,1.8041155999526381,num_4,0.55,0.6,0.5,0.7,19.10275,26.74385,return,3.4916418999200687,,,,,,,,,,,,,,,,,909,22,male,up_down_width,2024-10-18_15h36.41.779,exp1,2023.1.0,60.16673404820172,
,,,,,,,,,,,,,,,,3,9.5,10,10.5,0,0,0.5,0.1,0.4,1.4000000000000001,10,initial,36.05,342,361,379,0,0,9,9,9,0,0,,,,,,,3,0,3,0,0,15,15,3,,,,,,,,,,,,num_3,1.5245911000529304,num_3,0.25,0.9,0.25,0.35,9.55138,13.37193,return,3.142722199903801,,,,,,,,,,,,,,,,,909,22,male,up_down_width,2024-10-18_15h36.41.779,exp1,2023.1.0,60.16673404820172,
,,,,,,,,,,,,,,,,5,9,9.5,10,10.5,11,0.5,0.1,0.4,2.4,10,initial,36.05,324,342,361,379,397,9,9,9,9,9,,,,,,,3,0,3,0,0,16,16,50,,,,,,,,,,,,num_5,1.0182895000325516,num_5,0.35,1.3,0.3,0.45,11.46165,17.19248,return,3.48375000001397,,,,,,,,,,,,,,,,,909,22,male,up_down_width,2024-10-18_15h36.41.779,exp1,2023.1.0,60.16673404820172,
,,,,,,,,,,,,,,,,5,9,9.5,10,10.5,11,0.5,0.1,0.4,2.4,10,initial,36.05,324,342,361,379,397,9,9,9,9,9,,,,,,,3,0,3,0,0,17,17,20,,,,,,,,,,,,num_6,0.7797786999726668,num_6,0.4,1.2,0.35000000000000003,0.5,13.37193,19.10275,return,3.3677355999825522,,,,,,,,,,,,,,,,,909,22,male,up_down_width,2024-10-18_15h36.41.779,exp1,2023.1.0,60.16673404820172,
,,,,,,,,,,,,,,,,4,9.25,9.75,10.25,10.75,0,0.5,0.1,0.4,1.9000000000000001,10,initial,36.05,333,351,370,388,0,9,9,9,9,0,,,,,,,3,0,3,0,0,18,18,40,,,,,,,,,,,,num_5,0.9941778999054804,num_5,0.55,1.1,0.45,0.6,17.19248,22.9233,return,3.848874200019054,,,,,,,,,,,,,,,,,909,22,male,up_down_width,2024-10-18_15h36.41.779,exp1,2023.1.0,60.16673404820172,
,,,,,,,,,,,,,,,,5,9,9.5,10,10.5,11,0.5,0.1,0.4,2.4,10,initial,36.05,324,342,361,379,397,9,9,9,9,9,,,,,,,3,0,3,0,0,19,19,52,,,,,,,,,,,,num_7,1.7673439000500366,num_7,0.35,1.0,0.35,0.45,13.37193,17.19248,return,3.1184813000727445,,,,,,,,,,,,,,,,,909,22,male,up_down_width,2024-10-18_15h36.41.779,exp1,2023.1.0,60.16673404820172,
,,,,,,,,,,,,,,,,4,9.25,9.75,10.25,10.75,0,0.5,0.1,0.4,1.9000000000000001,10,initial,36.05,333,351,370,388,0,9,9,9,9,0,,,,,,,3,0,3,0,0,20,20,38,,,,,,,,,,,,num_4,1.2041041000047699,num_4,0.55,1.3,0.45,0.6,17.19248,22.9233,return,2.178958399919793,,,,,,,,,,,,,,,,,909,22,male,up_down_width,2024-10-18_15h36.41.779,exp1,2023.1.0,60.16673404820172,
,,,,,,,,,,,,,,,,5,9,9.5,10,10.5,11,0.5,0.1,0.4,2.4,10,initial,36.05,324,342,361,379,397,9,9,9,9,9,,,,,,,3,0,3,0,0,21,21,48,,,,,,,,,,,,num_5,1.1551365000195801,num_5,0.5,0.9,0.45,0.55,17.19248,21.01303,return,3.1515983999706805,,,,,,,,,,,,,,,,,909,22,male,up_down_width,2024-10-18_15h36.41.779,exp1,2023.1.0,60.16673404820172,
,,,,,,,,,,,,,,,,5,9,9.5,10,10.5,11,0.5,0.1,0.4,2.4,10,initial,36.05,324,342,361,379,397,9,9,9,9,9,,,,,,,3,0,3,0,0,22,22,49,,,,,,,,,,,,num_6,0.7266621000599116,num_6,0.2,0.5,0.39999999999999997,0.6,15.2822,22.9233,return,2.660415399936028,,,,,,,,,,,,,,,,,909,22,male,up_down_width,2024-10-18_15h36.41.779,exp1,2023.1.0,60.16673404820172,
,,,,,,,,,,,,,,,,3,9.5,10,10.5,0,0,0.5,0.1,0.4,1.4000000000000001,10,initial,36.05,342,361,379,0,0,9,9,9,0,0,,,,,,,3,0,3,0,0,23,23,30,,,,,,,,,,,,num_2,1.7182843000628054,num_2,0.35,0.8,0.3,0.6,11.46165,22.9233,return,2.061763299978338,,,,,,,,,,,,,,,,,909,22,male,up_down_width,2024-10-18_15h36.41.779,exp1,2023.1.0,60.16673404820172,
,,,,,,,,,,,,,,,,3,9.5,10,10.5,0,0,0.5,0.1,0.4,1.4000000000000001,10,initial,36.05,342,361,379,0,0,9,9,9,0,0,,,,,,,3,0,3,0,0,24,24,0,,,,,,,,,,,,num_2,1.5846107000252232,num_2,0.45,1.6,0.30000000000000004,0.6,11.46165,22.9233,return,4.736324799945578,,,,,,,,,,,,,,,,,909,22,male,up_down_width,2024-10-18_15h36.41.779,exp1,2023.1.0,60.16673404820172,
,,,,,,,,,,,,,,,,3,9.5,10,10.5,0,0,0.5,0.1,0.4,1.4000000000000001,10,initial,36.05,342,361,379,0,0,9,9,9,0,0,,,,,,,3,0,3,0,0,25,25,8,,,,,,,,,,,,num_3,0.9656400000676513,num_3,0.5,1.3,0.30000000000000004,0.55,11.46165,21.01303,return,4.344387000077404,,,,,,,,,,,,,,,,,909,22,male,up_down_width,2024-10-18_15h36.41.779,exp1,2023.1.0,60.16673404820172,
,,,,,,,,,,,,,,,,4,9.25,9.75,10.25,10.75,0,0.5,0.1,0.4,1.9000000000000001,10,initial,36.05,333,351,370,388,0,9,9,9,9,0,,,,,,,3,0,3,0,0,26,26,42,,,,,,,,,,,,num_3,0.8201472000218928,num_3,0.4,1,0.25000000000000006,0.5,9.55138,19.10275,return,4.109242200036533,,,,,,,,,,,,,,,,,909,22,male,up_down_width,2024-10-18_15h36.41.779,exp1,2023.1.0,60.16673404820172,
,,,,,,,,,,,,,,,,5,9,9.5,10,10.5,11,0.5,0.1,0.4,2.4,10,initial,36.05,324,342,361,379,397,9,9,9,9,9,,,,,,,3,0,3,0,0,27,27,23,,,,,,,,,,,,num_5,1.2416811999864876,num_5,0.2,0.7,0.35,0.5,13.37193,19.10275,return,2.6788273999700323,,,,,,,,,,,,,,,,,909,22,male,up_down_width,2024-10-18_15h36.41.779,exp1,2023.1.0,60.16673404820172,
,,,,,,,,,,,,,,,,4,9.25,9.75,10.25,10.75,0,0.5,0.1,0.4,1.9000000000000001,10,initial,36.05,333,351,370,388,0,9,9,9,9,0,,,,,,,3,0,3,0,0,28,28,36,,,,,,,,,,,,num_5,1.0270555999595672,num_5,0.2,1.0,0.39999999999999997,0.6,15.2822,22.9233,return,2.978908299934119,,,,,,,,,,,,,,,,,909,22,male,up_down_width,2024-10-18_15h36.41.779,exp1,2023.1.0,60.16673404820172,
,,,,,,,,,,,,,,,,4,9.25,9.75,10.25,10.75,0,0.5,0.1,0.4,1.9000000000000001,10,initial,36.05,333,351,370,388,0,9,9,9,9,0,,,,,,,3,0,3,0,0,29,29,43,,,,,,,,,,,,num_4,1.144903900101781,num_4,0.2,0.3,0.35,0.6,13.37193,22.9233,return,2.3258670000359416,,,,,,,,,,,,,,,,,909,22,male,up_down_width,2024-10-18_15h36.41.779,exp1,2023.1.0,60.16673404820172,
,,,,,,,,,,,,,,,,4,9.25,9.75,10.25,10.75,0,0.5,0.1,0.4,1.9000000000000001,10,initial,36.05,333,351,370,388,0,9,9,9,9,0,,,,,,,3,0,3,0,0,30,30,13,,,,,,,,,,,,num_5,0.8362213000655174,num_5,0.55,0.6,0.55,0.65,21.01303,24.83358,return,1.3111466999398544,,,,,,,,,,,,,,,,,909,22,male,up_down_width,2024-10-18_15h36.41.779,exp1,2023.1.0,60.16673404820172,
,,,,,,,,,,,,,,,,3,9.5,10,10.5,0,0,0.5,0.1,0.4,1.4000000000000001,10,initial,36.05,342,361,379,0,0,9,9,9,0,0,,,,,,,3,0,3,0,0,31,31,5,,,,,,,,,,,,num_3,0.7720847999444231,num_3,0.35,0.5,0.35,0.55,13.37193,21.01303,return,1.2809686000691727,,,,,,,,,,,,,,,,,909,22,male,up_down_width,2024-10-18_15h36.41.779,exp1,2023.1.0,60.16673404820172,
,,,,,,,,,,,,,,,,3,9.5,10,10.5,0,0,0.5,0.1,0.4,1.4000000000000001,10,initial,36.05,342,361,379,0,0,9,9,9,0,0,,,,,,,3,0,3,0,0,32,32,4,,,,,,,,,,,,num_2,0.8741151000140235,num_2,0.35,1.0,0.3,0.5,11.46165,19.10275,return,2.293301099911332,,,,,,,,,,,,,,,,,909,22,male,up_down_width,2024-10-18_15h36.41.779,exp1,2023.1.0,60.16673404820172,
,,,,,,,,,,,,,,,,3,9.5,10,10.5,0,0,0.5,0.1,0.4,1.4000000000000001,10,initial,36.05,342,361,379,0,0,9,9,9,0,0,,,,,,,3,0,3,0,0,33,33,2,,,,,,,,,,,,num_2,1.1695914999581873,num_2,0.4,1.4,0.30000000000000004,0.7,11.46165,26.74385,return,2.4343999999109656,,,,,,,,,,,,,,,,,909,22,male,up_down_width,2024-10-18_15h36.41.779,exp1,2023.1.0,60.16673404820172,
,,,,,,,,,,,,,,,,5,9,9.5,10,10.5,11,0.5,0.1,0.4,2.4,10,initial,36.05,324,342,361,379,397,9,9,9,9,9,,,,,,,3,0,3,0,0,34,34,19,,,,,,,,,,,,num_5,2.029549099970609,num_5,0.55,1.0,0.4,0.55,15.2822,21.01303,return,3.3400025001028553,,,,,,,,,,,,,,,,,909,22,male,up_down_width,2024-10-18_15h36.41.779,exp1,2023.1.0,60.16673404820172,
,,,,,,,,,,,,,,,,3,9.5,10,10.5,0,0,0.5,0.1,0.4,1.4000000000000001,10,initial,36.05,342,361,379,0,0,9,9,9,0,0,,,,,,,3,0,3,0,0,35,35,33,,,,,,,,,,,,num_4,1.286954499897547,num_4,0.3,0.9,0.3,0.5,11.46165,19.10275,return,1.635141000035219,,,,,,,,,,,,,,,,,909,22,male,up_down_width,2024-10-18_15h36.41.779,exp1,2023.1.0,60.16673404820172,
,,,,,,,,,,,,,,,,3,9.5,10,10.5,0,0,0.5,0.1,0.4,1.4000000000000001,10,initial,36.05,342,361,379,0,0,9,9,9,0,0,,,,,,,3,0,3,0,0,36,36,34,,,,,,,,,,,,num_3,0.6863532999996096,num_3,0.5,1,0.35000000000000003,0.55,13.37193,21.01303,return,3.227202699985355,,,,,,,,,,,,,,,,,909,22,male,up_down_width,2024-10-18_15h36.41.779,exp1,2023.1.0,60.16673404820172,
,,,,,,,,,,,,,,,,4,9.25,9.75,10.25,10.75,0,0.5,0.1,0.4,1.9000000000000001,10,initial,36.05,333,351,370,388,0,9,9,9,9,0,,,,,,,3,0,3,0,0,37,37,9,,,,,,,,,,,,num_4,0.8816283999476582,num_4,0.45,0.6,0.45,0.6,17.19248,22.9233,return,1.5596188999479637,,,,,,,,,,,,,,,,,909,22,male,up_down_width,2024-10-18_15h36.41.779,exp1,2023.1.0,60.16673404820172,
,,,,,,,,,,,,,,,,4,9.25,9.75,10.25,10.75,0,0.5,0.1,0.4,1.9000000000000001,10,initial,36.05,333,351,370,388,0,9,9,9,9,0,,,,,,,3,0,3,0,0,38,38,12,,,,,,,,,,,,num_4,1.1858859000494704,num_4,0.55,1.1,0.4,0.5,15.2822,19.10275,return,7.386894700000994,,,,,,,,,,,,,,,,,909,22,male,up_down_width,2024-10-18_15h36.41.779,exp1,2023.1.0,60.16673404820172,
,,,,,,,,,,,,,,,,3,9.5,10,10.5,0,0,0.5,0.1,0.4,1.4000000000000001,10,initial,36.05,342,361,379,0,0,9,9,9,0,0,,,,,,,3,0,3,0,0,39,39,1,,,,,,,,,,,,num_3,0.5787476999685168,num_3,0.3,0.8,0.25,0.55,9.55138,21.01303,return,1.7667458000360057,,,,,,,,,,,,,,,,,909,22,male,up_down_width,2024-10-18_15h36.41.779,exp1,2023.1.0,60.16673404820172,
,,,,,,,,,,,,,,,,3,9.5,10,10.5,0,0,0.5,0.1,0.4,1.4000000000000001,10,initial,36.05,342,361,379,0,0,9,9,9,0,0,,,,,,,3,0,3,0,0,40,40,35,,,,,,,,,,,,num_3,0.9974805000238121,num_3,0.2,0.4,0.3,0.5,11.46165,19.10275,return,1.8464247999945655,,,,,,,,,,,,,,,,,909,22,male,up_down_width,2024-10-18_15h36.41.779,exp1,2023.1.0,60.16673404820172,
,,,,,,,,,,,,,,,,5,9,9.5,10,10.5,11,0.5,0.1,0.4,2.4,10,initial,36.05,324,342,361,379,397,9,9,9,9,9,,,,,,,3,0,3,0,0,41,41,24,,,,,,,,,,,,num_4,1.2608575000194833,num_4,0.5,0.6,0.30000000000000004,0.6,11.46165,22.9233,return,2.3855995000340044,,,,,,,,,,,,,,,,,909,22,male,up_down_width,2024-10-18_15h36.41.779,exp1,2023.1.0,60.16673404820172,
,,,,,,,,,,,,,,,,4,9.25,9.75,10.25,10.75,0,0.5,0.1,0.4,1.9000000000000001,10,initial,36.05,333,351,370,388,0,9,9,9,9,0,,,,,,,3,0,3,0,0,42,42,37,,,,,,,,,,,,num_5,1.0093245999887586,num_5,0.35,1.1,0.3,0.6,11.46165,22.9233,return,3.761814699973911,,,,,,,,,,,,,,,,,909,22,male,up_down_width,2024-10-18_15h36.41.779,exp1,2023.1.0,60.16673404820172,
,,,,,,,,,,,,,,,,3,9.5,10,10.5,0,0,0.5,0.1,0.4,1.4000000000000001,10,initial,36.05,342,361,379,0,0,9,9,9,0,0,,,,,,,3,0,3,0,0,43,43,7,,,,,,,,,,,,num_3,1.0110438000410795,num_3,0.2,0.6,0.39999999999999997,0.65,15.2822,24.83358,return,2.755808599991724,,,,,,,,,,,,,,,,,909,22,male,up_down_width,2024-10-18_15h36.41.779,exp1,2023.1.0,60.16673404820172,
,,,,,,,,,,,,,,,,5,9,9.5,10,10.5,11,0.5,0.1,0.4,2.4,10,initial,36.05,324,342,361,379,397,9,9,9,9,9,,,,,,,3,0,3,0,0,44,44,46,,,,,,,,,,,,num_6,1.7623021999606863,num_6,0.35,0.5,0.35,0.6,13.37193,22.9233,return,1.5527357999235392,,,,,,,,,,,,,,,,,909,22,male,up_down_width,2024-10-18_15h36.41.779,exp1,2023.1.0,60.16673404820172,
,,,,,,,,,,,,,,,,4,9.25,9.75,10.25,10.75,0,0.5,0.1,0.4,1.9000000000000001,10,initial,36.05,333,351,370,388,0,9,9,9,9,0,,,,,,,3,0,3,0,0,45,45,44,,,,,,,,,,,,num_4,1.8227791000390425,num_4,0.4,0.8,0.35000000000000003,0.7,13.37193,26.74385,return,3.005634400062263,,,,,,,,,,,,,,,,,909,22,male,up_down_width,2024-10-18_15h36.41.779,exp1,2023.1.0,60.16673404820172,
,,,,,,,,,,,,,,,,4,9.25,9.75,10.25,10.75,0,0.5,0.1,0.4,1.9000000000000001,10,initial,36.05,333,351,370,388,0,9,9,9,9,0,,,,,,,3,0,3,0,0,46,46,41,,,,,,,,,,,,num_4,2.2857869000872597,num_4,0.2,0.9,0.5499999999999999,0.7,21.01303,26.74385,return,2.553985000005923,,,,,,,,,,,,,,,,,909,22,male,up_down_width,2024-10-18_15h36.41.779,exp1,2023.1.0,60.16673404820172,
,,,,,,,,,,,,,,,,3,9.5,10,10.5,0,0,0.5,0.1,0.4,1.4000000000000001,10,initial,36.05,342,361,379,0,0,9,9,9,0,0,,,,,,,3,0,3,0,0,47,47,29,,,,,,,,,,,,num_3,1.01586269994732,num_3,0.4,1.3,0.35000000000000003,0.75,13.37193,28.65413,return,3.292851999984123,,,,,,,,,,,,,,,,,909,22,male,up_down_width,2024-10-18_15h36.41.779,exp1,2023.1.0,60.16673404820172,
,,,,,,,,,,,,,,,,3,9.5,10,10.5,0,0,0.5,0.1,0.4,1.4000000000000001,10,initial,36.05,342,361,379,0,0,9,9,9,0,0,,,,,,,3,0,3,0,0,48,48,32,,,,,,,,,,,,num_4,3.576807099976577,num_4,0.25,1.1,0.39999999999999997,0.6,15.2822,22.9233,return,2.73872950009536,,,,,,,,,,,,,,,,,909,22,male,up_down_width,2024-10-18_15h36.41.779,exp1,2023.1.0,60.16673404820172,
,,,,,,,,,,,,,,,,5,9,9.5,10,10.5,11,0.5,0.1,0.4,2.4,10,initial,36.05,324,342,361,379,397,9,9,9,9,9,,,,,,,3,0,3,0,0,49,49,22,,,,,,,,,,,,num_6,0.860597199993208,num_6,0.55,0.8,0.4,0.5,15.2822,19.10275,return,3.0744876000098884,,,,,,,,,,,,,,,,,909,22,male,up_down_width,2024-10-18_15h36.41.779,exp1,2023.1.0,60.16673404820172,
,,,,,,,,,,,,,,,,5,9,9.5,10,10.5,11,0.5,0.1,0.4,2.4,10,initial,36.05,324,342,361,379,397,9,9,9,9,9,,,,,,,3,0,3,0,0,50,50,18,,,,,,,,,,,,num_7,2.204900199896656,num_7,0.4,0.6,0.35000000000000003,0.45,13.37193,17.19248,return,2.416769600007683,,,,,,,,,,,,,,,,,909,22,male,up_down_width,2024-10-18_15h36.41.779,exp1,2023.1.0,60.16673404820172,
,,,,,,,,,,,,,,,,4,9.25,9.75,10.25,10.75,0,0.5,0.1,0.4,1.9000000000000001,10,initial,36.05,333,351,370,388,0,9,9,9,9,0,,,,,,,3,0,3,0,0,51,51,15,,,,,,,,,,,,num_5,1.6422139001078904,num_5,0.5,0.6,0.35000000000000003,0.5,13.37193,19.10275,return,1.9267618999583647,,,,,,,,,,,,,,,,,909,22,male,up_down_width,2024-10-18_15h36.41.779,exp1,2023.1.0,60.16673404820172,
,,,,,,,,,,,,,,,,4,9.25,9.75,10.25,10.75,0,0.5,0.1,0.4,1.9000000000000001,10,initial,36.05,333,351,370,388,0,9,9,9,9,0,,,,,,,3,0,3,0,0,52,52,11,,,,,,,,,,,,num_4,1.1681436999933794,num_4,0.35,0.9,0.3,0.5,11.46165,19.10275,return,2.1560166000854224,,,,,,,,,,,,,,,,,909,22,male,up_down_width,2024-10-18_15h36.41.779,exp1,2023.1.0,60.16673404820172,
,,,,,,,,,,,,,,,,3,9.5,10,10.5,0,0,0.5,0.1,0.4,1.4000000000000001,10,initial,36.05,342,361,379,0,0,9,9,9,0,0,,,,,,,3,0,3,0,0,53,53,31,,,,,,,,,,,,num_2,0.946311799925752,num_2,0.25,0.6,0.25,0.5,9.55138,19.10275,return,5.913954999996349,,,,,,,,,,,,,,,,,909,22,male,up_down_width,2024-10-18_15h36.41.779,exp1,2023.1.0,60.16673404820172,
,,,,,,,,,,,,,,,,,,,,,,,,,,,,,,,,,,,,,,,,,,,,,3,0,3,0,,,,,,,,,,,,,,,,,,,,,,,,,,,,,1931.795571799972,1931.795571799972,1931.795571799972,,,,,,,,,,,,909,22,male,up_down_width,2024-10-18_15h36.41.779,exp1,2023.1.0,60.16673404820172,
,,,,,,,,,,,,,,,,5,8.2,9.1,10,10.9,11.8,0.9,0.35,0.55,4.15,10,initial,36.05,296,328,361,393,425,9,9,9,9,9,,,,,,,4,0,4,0,0,0,0,47,,,,,,,,,,,,num_5,0.721455299993977,num_5,0.2,0.8,0.6,0.9,22.9233,34.38495,return,2.5958986999467015,,,,,,,,,,,,,,,,,909,22,male,up_down_width,2024-10-18_15h36.41.779,exp1,2023.1.0,60.16673404820172,
,,,,,,,,,,,,,,,,5,8.2,9.1,10,10.9,11.8,0.9,0.35,0.55,4.15,10,initial,36.05,296,328,361,393,425,9,9,9,9,9,,,,,,,4,0,4,0,0,1,1,48,,,,,,,,,,,,num_4,1.7404120999854058,num_4,0.5,1.0,0.4,0.7,15.2822,26.74385,return,2.8378525999141857,,,,,,,,,,,,,,,,,909,22,male,up_down_width,2024-10-18_15h36.41.779,exp1,2023.1.0,60.16673404820172,
,,,,,,,,,,,,,,,,3,9.1,10,10.9,0,0,0.9,0.35,0.55,2.35,10,initial,36.05,328,361,393,0,0,9,9,9,0,0,,,,,,,4,0,4,0,0,2,2,6,,,,,,,,,,,,num_3,0.7947833000216633,num_3,0.2,0.4,0.39999999999999997,0.7,15.2822,26.74385,return,2.885515399975702,,,,,,,,,,,,,,,,,909,22,male,up_down_width,2024-10-18_15h36.41.779,exp1,2023.1.0,60.16673404820172,
,,,,,,,,,,,,,,,,5,8.2,9.1,10,10.9,11.8,0.9,0.35,0.55,4.15,10,initial,36.05,296,328,361,393,425,9,9,9,9,9,,,,,,,4,0,4,0,0,3,3,18,,,,,,,,,,,,num_7,1.470881799934432,num_7,0.2,1.2,0.49999999999999994,1.05,19.10275,40.11578,return,3.7253308999352157,,,,,,,,,,,,,,,,,909,22,male,up_down_width,2024-10-18_15h36.41.779,exp1,2023.1.0,60.16673404820172,
,,,,,,,,,,,,,,,,3,9.1,10,10.9,0,0,0.9,0.35,0.55,2.35,10,initial,36.05,328,361,393,0,0,9,9,9,0,0,,,,,,,4,0,4,0,0,4,4,31,,,,,,,,,,,,num_3,0.8882112000137568,num_3,0.35,1.3,0.44999999999999996,1.15,17.19248,43.93633,return,2.605773799936287,,,,,,,,,,,,,,,,,909,22,male,up_down_width,2024-10-18_15h36.41.779,exp1,2023.1.0,60.16673404820172,
,,,,,,,,,,,,,,,,3,9.1,10,10.9,0,0,0.9,0.35,0.55,2.35,10,initial,36.05,328,361,393,0,0,9,9,9,0,0,,,,,,,4,0,4,0,0,5,5,30,,,,,,,,,,,,num_3,0.7691732000093907,num_3,0.2,1,0.6,1,22.9233,38.2055,return,2.078910900047049,,,,,,,,,,,,,,,,,909,22,male,up_down_width,2024-10-18_15h36.41.779,exp1,2023.1.0,60.16673404820172,
,,,,,,,,,,,,,,,,5,8.2,9.1,10,10.9,11.8,0.9,0.35,0.55,4.15,10,initial,36.05,296,328,361,393,425,9,9,9,9,9,,,,,,,4,0,4,0,0,6,6,46,,,,,,,,,,,,num_6,1.5375914999749511,num_6,0.45,0.6,0.45,0.8,17.19248,30.5644,return,1.3074334999546409,,,,,,,,,,,,,,,,,909,22,male,up_down_width,2024-10-18_15h36.41.779,exp1,2023.1.0,60.16673404820172,
,,,,,,,,,,,,,,,,3,9.1,10,10.9,0,0,0.9,0.35,0.55,2.35,10,initial,36.05,328,361,393,0,0,9,9,9,0,0,,,,,,,4,0,4,0,0,7,7,3,,,,,,,,,,,,num_3,2.9116191999055445,num_3,0.45,0.7,0.30000000000000004,0.8,11.46165,30.5644,return,2.405751800048165,,,,,,,,,,,,,,,,,909,22,male,up_down_width,2024-10-18_15h36.41.779,exp1,2023.1.0,60.16673404820172,
,,,,,,,,,,,,,,,,4,8.65,9.55,10.45,11.35,0,0.9,0.35,0.55,3.25,10,initial,36.05,312,344,377,409,0,9,9,9,9,0,,,,,,,4,0,4,0,0,8,8,44,,,,,,,,,,,,num_7,1.745421800063923,num_7,0.55,0.7,0.4,0.6,15.2822,22.9233,return,2.6659427999984473,,,,,,,,,,,,,,,,,909,22,male,up_down_width,2024-10-18_15h36.41.779,exp1,2023.1.0,60.16673404820172,
,,,,,,,,,,,,,,,,5,8.2,9.1,10,10.9,11.8,0.9,0.35,0.55,4.15,10,initial,36.05,296,328,361,393,425,9,9,9,9,9,,,,,,,4,0,4,0,0,9,9,26,,,,,,,,,,,,num_2,4.641738299978897,num_2,0.25,1.0,0.65,1.0,24.83358,38.2055,return,3.4077399999368936,,,,,,,,,,,,,,,,,909,22,male,up_down_width,2024-10-18_15h36.41.779,exp1,2023.1.0,60.16673404820172,
,,,,,,,,,,,,,,,,4,8.65,9.55,10.45,11.35,0,0.9,0.35,0.55,3.25,10,initial,36.05,312,344,377,409,0,9,9,9,9,0,,,,,,,4,0,4,0,0,10,10,10,,,,,,,,,,,,num_4,1.3489892999641597,num_4,0.4,1.1,0.45,0.7,17.19248,26.74385,return,4.335123700089753,,,,,,,,,,,,,,,,,909,22,male,up_down_width,2024-10-18_15h36.41.779,exp1,2023.1.0,60.16673404820172,
,,,,,,,,,,,,,,,,4,8.65,9.55,10.45,11.35,0,0.9,0.35,0.55,3.25,10,initial,36.05,312,344,377,409,0,9,9,9,9,0,,,,,,,4,0,4,0,0,11,11,17,,,,,,,,,,,,num_4,1.3964437000686303,num_4,0.4,1.0,0.45,0.8,17.19248,30.5644,return,2.551480400026776,,,,,,,,,,,,,,,,,909,22,male,up_down_width,2024-10-18_15h36.41.779,exp1,2023.1.0,60.16673404820172,
,,,,,,,,,,,,,,,,5,8.2,9.1,10,10.9,11.8,0.9,0.35,0.55,4.15,10,initial,36.05,296,328,361,393,425,9,9,9,9,9,,,,,,,4,0,4,0,0,12,12,45,,,,,,,,,,,,num_5,1.3403119000140578,num_5,0.2,0.3,0.49999999999999994,0.7,19.10275,26.74385,return,3.7753737999591976,,,,,,,,,,,,,,,,,909,22,male,up_down_width,2024-10-18_15h36.41.779,exp1,2023.1.0,60.16673404820172,
,,,,,,,,,,,,,,,,4,8.65,9.55,10.45,11.35,0,0.9,0.35,0.55,3.25,10,initial,36.05,312,344,377,409,0,9,9,9,9,0,,,,,,,4,0,4,0,0,13,13,40,,,,,,,,,,,,num_6,1.2438306000549346,num_6,0.35,1.2,0.35,0.6,13.37193,22.9233,return,2.787649500067346,,,,,,,,,,,,,,,,,909,22,male,up_down_width,2024-10-18_15h36.41.779,exp1,2023.1.0,60.16673404820172,
,,,,,,,,,,,,,,,,3,9.1,10,10.9,0,0,0.9,0.35,0.55,2.35,10,initial,36.05,328,361,393,0,0,9,9,9,0,0,,,,,,,4,0,4,0,0,14,14,1,,,,,,,,,,,,num_5,3.4826453999849036,num_5,0.3,1.0,0.35,0.65,13.37193,24.83358,return,2.4903391000116244,,,,,,,,,,,,,,,,,909,22,male,up_down_width,2024-10-18_15h36.41.779,exp1,2023.1.0,60.16673404820172,
,,,,,,,,,,,,,,,,4,8.65,9.55,10.45,11.35,0,0.9,0.35,0.55,3.25,10,initial,36.05,312,344,377,409,0,9,9,9,9,0,,,,,,,4,0,4,0,0,15,15,36,,,,,,,,,,,,num_4,0.8558147000148892,num_4,0.45,1.3,0.45,0.9,17.19248,34.38495,return,1.1560318999690935,,,,,,,,,,,,,,,,,909,22,male,up_down_width,2024-10-18_15h36.41.779,exp1,2023.1.0,60.16673404820172,
,,,,,,,,,,,,,,,,5,8.2,9.1,10,10.9,11.8,0.9,0.35,0.55,4.15,10,initial,36.05,296,328,361,393,425,9,9,9,9,9,,,,,,,4,0,4,0,0,16,16,24,,,,,,,,,,,,num_5,1.4201842000475153,num_5,0.4,0.5,0.45,0.85,17.19248,32.47468,return,2.786962699959986,,,,,,,,,,,,,,,,,909,22,male,up_down_width,2024-10-18_15h36.41.779,exp1,2023.1.0,60.16673404820172,
,,,,,,,,,,,,,,,,3,9.1,10,10.9,0,0,0.9,0.35,0.55,2.35,10,initial,36.05,328,361,393,0,0,9,9,9,0,0,,,,,,,4,0,4,0,0,17,17,35,,,,,,,,,,,,num_6,8.170462399953976,num_6,0.35,0.6,0.49999999999999994,0.7,19.10275,26.74385,return,1.6758305999683216,,,,,,,,,,,,,,,,,909,22,male,up_down_width,2024-10-18_15h36.41.779,exp1,2023.1.0,60.16673404820172,
,,,,,,,,,,,,,,,,5,8.2,9.1,10,10.9,11.8,0.9,0.35,0.55,4.15,10,initial,36.05,296,328,361,393,425,9,9,9,9,9,,,,,,,4,0,4,0,0,18,18,51,,,,,,,,,,,,num_5,0.873213900020346,num_5,0.2,0.8,0.5499999999999999,0.8,21.01303,30.5644,return,2.8968087000539526,,,,,,,,,,,,,,,,,909,22,male,up_down_width,2024-10-18_15h36.41.779,exp1,2023.1.0,60.16673404820172,
,,,,,,,,,,,,,,,,5,8.2,9.1,10,10.9,11.8,0.9,0.35,0.55,4.15,10,initial,36.05,296,328,361,393,425,9,9,9,9,9,,,,,,,4,0,4,0,0,19,19,25,,,,,,,,,,,,num_6,2.228314399952069,num_6,0.45,1.2,0.4,0.7,15.2822,26.74385,return,2.3089116000337526,,,,,,,,,,,,,,,,,909,22,male,up_down_width,2024-10-18_15h36.41.779,exp1,2023.1.0,60.16673404820172,
,,,,,,,,,,,,,,,,3,9.1,10,10.9,0,0,0.9,0.35,0.55,2.35,10,initial,36.05,328,361,393,0,0,9,9,9,0,0,,,,,,,4,0,4,0,0,20,20,29,,,,,,,,,,,,num_3,0.8432648000307381,num_3,0.2,0.6,0.49999999999999994,0.65,19.10275,24.83358,return,2.215556199895218,,,,,,,,,,,,,,,,,909,22,male,up_down_width,2024-10-18_15h36.41.779,exp1,2023.1.0,60.16673404820172,
,,,,,,,,,,,,,,,,4,8.65,9.55,10.45,11.35,0,0.9,0.35,0.55,3.25,10,initial,36.05,312,344,377,409,0,9,9,9,9,0,,,,,,,4,0,4,0,0,21,21,15,,,,,,,,,,,,num_4,1.7159573000390083,num_4,0.45,0.9,0.35000000000000003,0.7,13.37193,26.74385,return,2.7634102000156417,,,,,,,,,,,,,,,,,909,22,male,up_down_width,2024-10-18_15h36.41.779,exp1,2023.1.0,60.16673404820172,
,,,,,,,,,,,,,,,,4,8.65,9.55,10.45,11.35,0,0.9,0.35,0.55,3.25,10,initial,36.05,312,344,377,409,0,9,9,9,9,0,,,,,,,4,0,4,0,0,22,22,14,,,,,,,,,,,,num_4,1.4159986999584362,num_4,0.4,1.1,0.5,0.8,19.10275,30.5644,return,1.7392634999705479,,,,,,,,,,,,,,,,,909,22,male,up_down_width,2024-10-18_15h36.41.779,exp1,2023.1.0,60.16673404820172,
,,,,,,,,,,,,,,,,5,8.2,9.1,10,10.9,11.8,0.9,0.35,0.55,4.15,10,initial,36.05,296,328,361,393,425,9,9,9,9,9,,,,,,,4,0,4,0,0,23,23,52,,,,,,,,,,,,num_6,1.0146026000147685,num_6,0.3,1.3,0.44999999999999996,0.7,17.19248,26.74385,return,2.6373999000061303,,,,,,,,,,,,,,,,,909,22,male,up_down_width,2024-10-18_15h36.41.779,exp1,2023.1.0,60.16673404820172,
,,,,,,,,,,,,,,,,3,9.1,10,10.9,0,0,0.9,0.35,0.55,2.35,10,initial,36.05,328,361,393,0,0,9,9,9,0,0,,,,,,,4,0,4,0,0,24,24,28,,,,,,,,,,,,num_3,0.8600069000385702,num_3,0.45,1,0.45,0.85,17.19248,32.47468,return,1.189077700022608,,,,,,,,,,,,,,,,,909,22,male,up_down_width,2024-10-18_15h36.41.779,exp1,2023.1.0,60.16673404820172,
,,,,,,,,,,,,,,,,3,9.1,10,10.9,0,0,0.9,0.35,0.55,2.35,10,initial,36.05,328,361,393,0,0,9,9,9,0,0,,,,,,,4,0,4,0,0,25,25,32,,,,,,,,,,,,num_3,1.1970750000327826,num_3,0.4,1.2,0.35000000000000003,0.85,13.37193,32.47468,return,2.52307509991806,,,,,,,,,,,,,,,,,909,22,male,up_down_width,2024-10-18_15h36.41.779,exp1,2023.1.0,60.16673404820172,
,,,,,,,,,,,,,,,,5,8.2,9.1,10,10.9,11.8,0.9,0.35,0.55,4.15,10,initial,36.05,296,328,361,393,425,9,9,9,9,9,,,,,,,4,0,4,0,0,26,26,49,,,,,,,,,,,,num_6,1.608804399962537,num_6,0.25,1.2,0.6,0.9,22.9233,34.38495,return,3.464343799976632,,,,,,,,,,,,,,,,,909,22,male,up_down_width,2024-10-18_15h36.41.779,exp1,2023.1.0,60.16673404820172,
,,,,,,,,,,,,,,,,4,8.65,9.55,10.45,11.35,0,0.9,0.35,0.55,3.25,10,initial,36.05,312,344,377,409,0,9,9,9,9,0,,,,,,,4,0,4,0,0,27,27,37,,,,,,,,,,,,num_4,1.003056599991396,num_4,0.4,1.2,0.5,0.7,19.10275,26.74385,return,1.948145900038071,,,,,,,,,,,,,,,,,909,22,male,up_down_width,2024-10-18_15h36.41.779,exp1,2023.1.0,60.16673404820172,
,,,,,,,,,,,,,,,,3,9.1,10,10.9,0,0,0.9,0.35,0.55,2.35,10,initial,36.05,328,361,393,0,0,9,9,9,0,0,,,,,,,4,0,4,0,0,28,28,33,,,,,,,,,,,,num_4,2.1815846000099555,num_4,0.45,1.2,0.55,0.7,21.01303,26.74385,return,2.442938799969852,,,,,,,,,,,,,,,,,909,22,male,up_down_width,2024-10-18_15h36.41.779,exp1,2023.1.0,60.16673404820172,
,,,,,,,,,,,,,,,,5,8.2,9.1,10,10.9,11.8,0.9,0.35,0.55,4.15,10,initial,36.05,296,328,361,393,425,9,9,9,9,9,,,,,,,4,0,4,0,0,29,29,50,,,,,,,,,,,,num_6,1.0641502999933437,num_6,0.5,0.6,0.5,0.9,19.10275,34.38495,return,1.0527425000909716,,,,,,,,,,,,,,,,,909,22,male,up_down_width,2024-10-18_15h36.41.779,exp1,2023.1.0,60.16673404820172,
,,,,,,,,,,,,,,,,3,9.1,10,10.9,0,0,0.9,0.35,0.55,2.35,10,initial,36.05,328,361,393,0,0,9,9,9,0,0,,,,,,,4,0,4,0,0,30,30,34,,,,,,,,,,,,num_4,1.6432718000141904,num_4,0.35,0.6,0.35,0.7,13.37193,26.74385,return,1.0269808999728411,,,,,,,,,,,,,,,,,909,22,male,up_down_width,2024-10-18_15h36.41.779,exp1,2023.1.0,60.16673404820172,
,,,,,,,,,,,,,,,,3,9.1,10,10.9,0,0,0.9,0.35,0.55,2.35,10,initial,36.05,328,361,393,0,0,9,9,9,0,0,,,,,,,4,0,4,0,0,31,31,5,,,,,,,,,,,,num_4,2.0983203999930993,num_4,0.3,1.3,0.39999999999999997,0.8,15.2822,30.5644,return,2.0995790000306442,,,,,,,,,,,,,,,,,909,22,male,up_down_width,2024-10-18_15h36.41.779,exp1,2023.1.0,60.16673404820172,
,,,,,,,,,,,,,,,,3,9.1,10,10.9,0,0,0.9,0.35,0.55,2.35,10,initial,36.05,328,361,393,0,0,9,9,9,0,0,,,,,,,4,0,4,0,0,32,32,27,,,,,,,,,,,,num_4,17.20624069997575,num_4,0.2,0.6,0.44999999999999996,0.7,17.19248,26.74385,return,2.5108834001002833,,,,,,,,,,,,,,,,,909,22,male,up_down_width,2024-10-18_15h36.41.779,exp1,2023.1.0,60.16673404820172,
,,,,,,,,,,,,,,,,4,8.65,9.55,10.45,11.35,0,0.9,0.35,0.55,3.25,10,initial,36.05,312,344,377,409,0,9,9,9,9,0,,,,,,,4,0,4,0,0,33,33,13,,,,,,,,,,,,num_5,0.9133456000126898,num_5,0.5,0.8,0.4,0.7,15.2822,26.74385,return,2.053157899994403,,,,,,,,,,,,,,,,,909,22,male,up_down_width,2024-10-18_15h36.41.779,exp1,2023.1.0,60.16673404820172,
,,,,,,,,,,,,,,,,5,8.2,9.1,10,10.9,11.8,0.9,0.35,0.55,4.15,10,initial,36.05,296,328,361,393,425,9,9,9,9,9,,,,,,,4,0,4,0,0,34,34,22,,,,,,,,,,,,num_5,0.8904416000004858,num_5,0.4,0.6,0.4,0.65,15.2822,24.83358,return,2.4327044000383466,,,,,,,,,,,,,,,,,909,22,male,up_down_width,2024-10-18_15h36.41.779,exp1,2023.1.0,60.16673404820172,
,,,,,,,,,,,,,,,,3,9.1,10,10.9,0,0,0.9,0.35,0.55,2.35,10,initial,36.05,328,361,393,0,0,9,9,9,0,0,,,,,,,4,0,4,0,0,35,35,2,,,,,,,,,,,,num_3,0.6889388000126928,num_3,0.4,1.1,0.4,0.85,15.2822,32.47468,return,1.2824931000359356,,,,,,,,,,,,,,,,,909,22,male,up_down_width,2024-10-18_15h36.41.779,exp1,2023.1.0,60.16673404820172,
,,,,,,,,,,,,,,,,5,8.2,9.1,10,10.9,11.8,0.9,0.35,0.55,4.15,10,initial,36.05,296,328,361,393,425,9,9,9,9,9,,,,,,,4,0,4,0,0,36,36,21,,,,,,,,,,,,num_6,0.8983376999385655,num_6,0.5,1.0,0.5,0.8,19.10275,30.5644,return,1.032648100052029,,,,,,,,,,,,,,,,,909,22,male,up_down_width,2024-10-18_15h36.41.779,exp1,2023.1.0,60.16673404820172,
,,,,,,,,,,,,,,,,5,8.2,9.1,10,10.9,11.8,0.9,0.35,0.55,4.15,10,initial,36.05,296,328,361,393,425,9,9,9,9,9,,,,,,,4,0,4,0,0,37,37,20,,,,,,,,,,,,num_6,1.1630137999309227,num_6,0.25,0.8,0.39999999999999997,0.6,15.2822,22.9233,return,1.431739200023003,,,,,,,,,,,,,,,,,909,22,male,up_down_width,2024-10-18_15h36.41.779,exp1,2023.1.0,60.16673404820172,
,,,,,,,,,,,,,,,,3,9.1,10,10.9,0,0,0.9,0.35,0.55,2.35,10,initial,36.05,328,361,393,0,0,9,9,9,0,0,,,,,,,4,0,4,0,0,38,38,4,,,,,,,,,,,,num_3,1.3800458000041544,num_3,0.3,0.9,0.44999999999999996,0.7,17.19248,26.74385,return,1.6276106000877917,,,,,,,,,,,,,,,,,909,22,male,up_down_width,2024-10-18_15h36.41.779,exp1,2023.1.0,60.16673404820172,
,,,,,,,,,,,,,,,,4,8.65,9.55,10.45,11.35,0,0.9,0.35,0.55,3.25,10,initial,36.05,312,344,377,409,0,9,9,9,9,0,,,,,,,4,0,4,0,0,39,39,43,,,,,,,,,,,,num_4,0.9640566000016406,num_4,0.45,1.0,0.35000000000000003,0.7,13.37193,26.74385,return,1.5302140999119729,,,,,,,,,,,,,,,,,909,22,male,up_down_width,2024-10-18_15h36.41.779,exp1,2023.1.0,60.16673404820172,
,,,,,,,,,,,,,,,,4,8.65,9.55,10.45,11.35,0,0.9,0.35,0.55,3.25,10,initial,36.05,312,344,377,409,0,9,9,9,9,0,,,,,,,4,0,4,0,0,40,40,39,,,,,,,,,,,,num_5,0.7610496999695897,num_5,0.5,0.9,0.5,0.85,19.10275,32.47468,return,0.9022195999277756,,,,,,,,,,,,,,,,,909,22,male,up_down_width,2024-10-18_15h36.41.779,exp1,2023.1.0,60.16673404820172,
,,,,,,,,,,,,,,,,4,8.65,9.55,10.45,11.35,0,0.9,0.35,0.55,3.25,10,initial,36.05,312,344,377,409,0,9,9,9,9,0,,,,,,,4,0,4,0,0,41,41,9,,,,,,,,,,,,num_4,0.8620643999893218,num_4,0.3,0.5,0.39999999999999997,0.7,15.2822,26.74385,return,1.2228888999670744,,,,,,,,,,,,,,,,,909,22,male,up_down_width,2024-10-18_15h36.41.779,exp1,2023.1.0,60.16673404820172,
,,,,,,,,,,,,,,,,4,8.65,9.55,10.45,11.35,0,0.9,0.35,0.55,3.25,10,initial,36.05,312,344,377,409,0,9,9,9,9,0,,,,,,,4,0,4,0,0,42,42,12,,,,,,,,,,,,num_4,0.752072700066492,num_4,0.25,1.1,0.49999999999999994,0.8,19.10275,30.5644,return,1.8380539999343455,,,,,,,,,,,,,,,,,909,22,male,up_down_width,2024-10-18_15h36.41.779,exp1,2023.1.0,60.16673404820172,
,,,,,,,,,,,,,,,,5,8.2,9.1,10,10.9,11.8,0.9,0.35,0.55,4.15,10,initial,36.05,296,328,361,393,425,9,9,9,9,9,,,,,,,4,0,4,0,0,43,43,23,,,,,,,,,,,,num_6,0.8014359000371769,num_6,0.35,1.3,0.35,0.6,13.37193,22.9233,return,1.866008699988015,,,,,,,,,,,,,,,,,909,22,male,up_down_width,2024-10-18_15h36.41.779,exp1,2023.1.0,60.16673404820172,
,,,,,,,,,,,,,,,,5,8.2,9.1,10,10.9,11.8,0.9,0.35,0.55,4.15,10,initial,36.05,296,328,361,393,425,9,9,9,9,9,,,,,,,4,0,4,0,0,44,44,53,,,,,,,,,,,,num_6,1.4534357000375167,num_6,0.2,0.7,0.39999999999999997,0.8,15.2822,30.5644,return,1.709510099957697,,,,,,,,,,,,,,,,,909,22,male,up_down_width,2024-10-18_15h36.41.779,exp1,2023.1.0,60.16673404820172,
,,,,,,,,,,,,,,,,3,9.1,10,10.9,0,0,0.9,0.35,0.55,2.35,10,initial,36.05,328,361,393,0,0,9,9,9,0,0,,,,,,,4,0,4,0,0,45,45,8,,,,,,,,,,,,num_4,1.2684571000281721,num_4,0.2,0.5,0.49999999999999994,0.7,19.10275,26.74385,return,2.6215989000629634,,,,,,,,,,,,,,,,,909,22,male,up_down_width,2024-10-18_15h36.41.779,exp1,2023.1.0,60.16673404820172,
,,,,,,,,,,,,,,,,4,8.65,9.55,10.45,11.35,0,0.9,0.35,0.55,3.25,10,initial,36.05,312,344,377,409,0,9,9,9,9,0,,,,,,,4,0,4,0,0,46,46,41,,,,,,,,,,,,num_5,1.7811546999728307,num_5,0.35,0.6,0.49999999999999994,0.7,19.10275,26.74385,return,1.8477104000048712,,,,,,,,,,,,,,,,,909,22,male,up_down_width,2024-10-18_15h36.41.779,exp1,2023.1.0,60.16673404820172,
,,,,,,,,,,,,,,,,5,8.2,9.1,10,10.9,11.8,0.9,0.35,0.55,4.15,10,initial,36.05,296,328,361,393,425,9,9,9,9,9,,,,,,,4,0,4,0,0,47,47,19,,,,,,,,,,,,num_4,28.816501799970865,num_4,0.55,1.0,0.30000000000000004,0.6,11.46165,22.9233,return,3.262657199986279,,,,,,,,,,,,,,,,,909,22,male,up_down_width,2024-10-18_15h36.41.779,exp1,2023.1.0,60.16673404820172,
,,,,,,,,,,,,,,,,4,8.65,9.55,10.45,11.35,0,0.9,0.35,0.55,3.25,10,initial,36.05,312,344,377,409,0,9,9,9,9,0,,,,,,,4,0,4,0,0,48,48,11,,,,,,,,,,,,num_5,0.9063839999726042,num_5,0.5,0.9,0.30000000000000004,0.65,11.46165,24.83358,return,1.9850127999670804,,,,,,,,,,,,,,,,,909,22,male,up_down_width,2024-10-18_15h36.41.779,exp1,2023.1.0,60.16673404820172,
,,,,,,,,,,,,,,,,4,8.65,9.55,10.45,11.35,0,0.9,0.35,0.55,3.25,10,initial,36.05,312,344,377,409,0,9,9,9,9,0,,,,,,,4,0,4,0,0,49,49,16,,,,,,,,,,,,num_4,18.998573600081727,num_4,0.4,0.5,0.5,0.6,19.10275,22.9233,return,2.649775000056252,,,,,,,,,,,,,,,,,909,22,male,up_down_width,2024-10-18_15h36.41.779,exp1,2023.1.0,60.16673404820172,
,,,,,,,,,,,,,,,,3,9.1,10,10.9,0,0,0.9,0.35,0.55,2.35,10,initial,36.05,328,361,393,0,0,9,9,9,0,0,,,,,,,4,0,4,0,0,50,50,7,,,,,,,,,,,,num_3,1.3840364000061527,num_3,0.3,1.2,0.3,0.75,11.46165,28.65413,return,2.3158683999208733,,,,,,,,,,,,,,,,,909,22,male,up_down_width,2024-10-18_15h36.41.779,exp1,2023.1.0,60.16673404820172,
,,,,,,,,,,,,,,,,3,9.1,10,10.9,0,0,0.9,0.35,0.55,2.35,10,initial,36.05,328,361,393,0,0,9,9,9,0,0,,,,,,,4,0,4,0,0,51,51,0,,,,,,,,,,,,num_3,0.6653941000113264,num_3,0.25,0.9,0.35,0.75,13.37193,28.65413,return,1.9182637999765575,,,,,,,,,,,,,,,,,909,22,male,up_down_width,2024-10-18_15h36.41.779,exp1,2023.1.0,60.16673404820172,
,,,,,,,,,,,,,,,,4,8.65,9.55,10.45,11.35,0,0.9,0.35,0.55,3.25,10,initial,36.05,312,344,377,409,0,9,9,9,9,0,,,,,,,4,0,4,0,0,52,52,38,,,,,,,,,,,,num_6,0.9362176000140607,num_6,0.35,1.2,0.35,0.6,13.37193,22.9233,return,1.5352539999876171,,,,,,,,,,,,,,,,,909,22,male,up_down_width,2024-10-18_15h36.41.779,exp1,2023.1.0,60.16673404820172,
,,,,,,,,,,,,,,,,4,8.65,9.55,10.45,11.35,0,0.9,0.35,0.55,3.25,10,initial,36.05,312,344,377,409,0,9,9,9,9,0,,,,,,,4,0,4,0,0,53,53,42,,,,,,,,,,,,num_5,1.1580612000543624,num_5,0.2,0.6,0.35,0.55,13.37193,21.01303,return,1.4589500000001863,,,,,,,,,,,,,,,,,909,22,male,up_down_width,2024-10-18_15h36.41.779,exp1,2023.1.0,60.16673404820172,
,,,,,,,,,,,,,,,,,,,,,,,,,,,,,,,,,,,,,,,,,,,,,4,0,4,0,,,,,,,,,,,,,,,,,,,,,,,,,,,,,2672.6605023000157,2672.6605023000157,2672.6605023000157,,,,,,,,,,,,909,22,male,up_down_width,2024-10-18_15h36.41.779,exp1,2023.1.0,60.16673404820172,
,,,,,,,,,,,,,,,,3,9.5,10,10.5,0,0,0.5,0.25,0.25,1.25,10,initial,36.05,342,361,379,0,0,9,9,9,0,0,,,,,,,5,0,5,0,0,0,0,29,,,,,,,,,,,,num_3,0.9364864999661222,num_3,0.3,1.1,0.3,0.9,11.46165,34.38495,return,0.9786289000185207,,,,,,,,,,,,,,,,,909,22,male,up_down_width,2024-10-18_15h36.41.779,exp1,2023.1.0,60.16673404820172,
,,,,,,,,,,,,,,,,3,9.5,10,10.5,0,0,0.5,0.25,0.25,1.25,10,initial,36.05,342,361,379,0,0,9,9,9,0,0,,,,,,,5,0,5,0,0,1,1,3,,,,,,,,,,,,num_3,0.6125316000543535,num_3,0.5,1,0.20000000000000007,0.65,7.6411,24.83358,return,2.651913500041701,,,,,,,,,,,,,,,,,909,22,male,up_down_width,2024-10-18_15h36.41.779,exp1,2023.1.0,60.16673404820172,
,,,,,,,,,,,,,,,,5,9,9.5,10,10.5,11,0.5,0.25,0.25,2.25,10,initial,36.05,324,342,361,379,397,9,9,9,9,9,,,,,,,5,0,5,0,0,2,2,25,,,,,,,,,,,,num_5,0.8181817999575287,num_5,0.2,1.3,0.2,0.55,7.6411,21.01303,return,3.6421545000048354,,,,,,,,,,,,,,,,,909,22,male,up_down_width,2024-10-18_15h36.41.779,exp1,2023.1.0,60.16673404820172,
,,,,,,,,,,,,,,,,3,9.5,10,10.5,0,0,0.5,0.25,0.25,1.25,10,initial,36.05,342,361,379,0,0,9,9,9,0,0,,,,,,,5,0,5,0,0,3,3,6,,,,,,,,,,,,num_3,0.6572007000213489,num_3,0.3,1,0.2,0.6,7.6411,22.9233,return,2.1112569000106305,,,,,,,,,,,,,,,,,909,22,male,up_down_width,2024-10-18_15h36.41.779,exp1,2023.1.0,60.16673404820172,
,,,,,,,,,,,,,,,,4,9.25,9.75,10.25,10.75,0,0.5,0.25,0.25,1.75,10,initial,36.05,333,351,370,388,0,9,9,9,9,0,,,,,,,5,0,5,0,0,4,4,39,,,,,,,,,,,,num_4,0.7024180999724194,num_4,0.3,0.6,0.2,0.5,7.6411,19.10275,return,1.889594899956137,,,,,,,,,,,,,,,,,909,22,male,up_down_width,2024-10-18_15h36.41.779,exp1,2023.1.0,60.16673404820172,
,,,,,,,,,,,,,,,,3,9.5,10,10.5,0,0,0.5,0.25,0.25,1.25,10,initial,36.05,342,361,379,0,0,9,9,9,0,0,,,,,,,5,0,5,0,0,5,5,28,,,,,,,,,,,,num_3,0.8308822999242693,num_3,0.2,0.5,0.2,0.5,7.6411,19.10275,return,0.7814104000572115,,,,,,,,,,,,,,,,,909,22,male,up_down_width,2024-10-18_15h36.41.779,exp1,2023.1.0,60.16673404820172,
,,,,,,,,,,,,,,,,3,9.5,10,10.5,0,0,0.5,0.25,0.25,1.25,10,initial,36.05,342,361,379,0,0,9,9,9,0,0,,,,,,,5,0,5,0,0,6,6,30,,,,,,,,,,,,num_3,0.6897026000078768,num_3,0.4,1.2,0.25000000000000006,0.75,9.55138,28.65413,return,2.6222827000310645,,,,,,,,,,,,,,,,,909,22,male,up_down_width,2024-10-18_15h36.41.779,exp1,2023.1.0,60.16673404820172,
,,,,,,,,,,,,,,,,4,9.25,9.75,10.25,10.75,0,0.5,0.25,0.25,1.75,10,initial,36.05,333,351,370,388,0,9,9,9,9,0,,,,,,,5,0,5,0,0,7,7,36,,,,,,,,,,,,num_4,1.2827251999406144,num_4,0.45,1.3,0.15000000000000008,0.6,5.73083,22.9233,return,2.6966667000669986,,,,,,,,,,,,,,,,,909,22,male,up_down_width,2024-10-18_15h36.41.779,exp1,2023.1.0,60.16673404820172,
,,,,,,,,,,,,,,,,5,9,9.5,10,10.5,11,0.5,0.25,0.25,2.25,10,initial,36.05,324,342,361,379,397,9,9,9,9,9,,,,,,,5,0,5,0,0,8,8,20,,,,,,,,,,,,num_6,0.9442979999585077,num_6,0.35,1.2,0.25,0.5,9.55138,19.10275,return,2.488959699985571,,,,,,,,,,,,,,,,,909,22,male,up_down_width,2024-10-18_15h36.41.779,exp1,2023.1.0,60.16673404820172,
,,,,,,,,,,,,,,,,5,9,9.5,10,10.5,11,0.5,0.25,0.25,2.25,10,initial,36.05,324,342,361,379,397,9,9,9,9,9,,,,,,,5,0,5,0,0,9,9,50,,,,,,,,,,,,num_6,1.214350700029172,num_6,0.2,0.8,0.2,0.5,7.6411,19.10275,return,1.5596125000156462,,,,,,,,,,,,,,,,,909,22,male,up_down_width,2024-10-18_15h36.41.779,exp1,2023.1.0,60.16673404820172,
,,,,,,,,,,,,,,,,4,9.25,9.75,10.25,10.75,0,0.5,0.25,0.25,1.75,10,initial,36.05,333,351,370,388,0,9,9,9,9,0,,,,,,,5,0,5,0,0,10,10,16,,,,,,,,,,,,num_5,0.9840474999509752,num_5,0.55,1.3,0.25000000000000006,0.6,9.55138,22.9233,return,4.667279200046323,,,,,,,,,,,,,,,,,909,22,male,up_down_width,2024-10-18_15h36.41.779,exp1,2023.1.0,60.16673404820172,
,,,,,,,,,,,,,,,,3,9.5,10,10.5,0,0,0.5,0.25,0.25,1.25,10,initial,36.05,342,361,379,0,0,9,9,9,0,0,,,,,,,5,0,5,0,0,11,11,4,,,,,,,,,,,,num_3,0.7495489999419078,num_3,0.3,1.2,0.2,0.55,7.6411,21.01303,return,2.8096009999280795,,,,,,,,,,,,,,,,,909,22,male,up_down_width,2024-10-18_15h36.41.779,exp1,2023.1.0,60.16673404820172,
,,,,,,,,,,,,,,,,5,9,9.5,10,10.5,11,0.5,0.25,0.25,2.25,10,initial,36.05,324,342,361,379,397,9,9,9,9,9,,,,,,,5,0,5,0,0,12,12,53,,,,,,,,,,,,num_6,0.8958274000324309,num_6,0.5,0.6,0.30000000000000004,0.5,11.46165,19.10275,return,3.348582400009036,,,,,,,,,,,,,,,,,909,22,male,up_down_width,2024-10-18_15h36.41.779,exp1,2023.1.0,60.16673404820172,
