amount_p,posx1_p,posx2_p,posx3_p,posx4_p,posx5_p,center_to_center_p,edge_to_edge_p,w_p,stim_length_p,eccentricity_p,line1_p,line2_p,line3_p,line4_p,line5_p,amount,posx1,posx2,posx3,posx4,posx5,center_to_center,edge_to_edge,w,stim_length,eccentricity,trial_type,deg_to_pix_index,posx1_in_pix,posx2_in_pix,posx3_in_pix,posx4_in_pix,posx5_in_pix,line1,line2,line3,line4,line5,posx,setsize_cobdi,trials.thisRepN,trials.thisTrialN,trials.thisN,trials.thisIndex,blocks.thisRepN,blocks.thisTrialN,blocks.thisN,blocks.thisIndex,loop.thisRepN,loop.thisTrialN,loop.thisN,loop.thisIndex,first.thisRepN,first.thisTrialN,first.thisN,first.thisIndex,second.thisRepN,second.thisTrialN,second.thisN,second.thisIndex,key_resp_3.started,key_resp_3.keys,key_resp_3.rt,key_resp.keys,key_resp.rt,response,starting_width_deg,starting_space_deg,response_width_degree,response_spacing_degree,response_width_pixel,response_spacing_pixel,next_5.keys,next_5.rt,key_resp_4.keys,key_resp_4.rt,text_3.started,text_4.started,key_resp_2.started,text_2.started,key_resp_2.keys,key_resp_2.rt,adjusting.started,next.keys,next.rt,text_control2.started,key_resp.started,key_resp.corr,text_bye.started,text_bye.stopped,participant,age,gender,resp_group,date,expName,psychopyVersion,frameRate,
,,,,,,,,,,,,,,,,,,,,,,,,,,,,,,,,,,,,,,,,,,,,,,,,,,,,,,,,,,,,,15.961275800131261,c,118.05821799999103,,,,,,,,,,,,,,,,,,,,,,,,,,,,910,,male,left_right_width,2024-10-21_09h39.39.855,exp1,2023.1.0,59.978467719744366,
5,8.2,9.1,10,10.9,11.8,0.9,0.35,0.55,4.15,10,9,9,9,9,9,,,,,,,,,,,,,,,,,,,,,,,,,,0,0,0,2,,,,,,,,,,,,,,,,,,,,num_3,1.8921954000834376,num_3,0.2,1.3,0.2,1.35,7.6411,51.57743,return,28.592099300120026,,,,,,,,,,,,,,,,,910,,male,left_right_width,2024-10-21_09h39.39.855,exp1,2023.1.0,59.978467719744366,
4,9.25,9.75,10.25,10.75,0,0.5,0.1,0.4,1.9000000000000001,10,9,9,9,9,0,,,,,,,,,,,,,,,,,,,,,,,,,,0,1,1,4,,,,,,,,,,,,,,,,,,,,num_4,1.1132515999488533,num_4,0.35,0.5,0.25,0.5,9.55138,19.10275,return,5.7506505001802,,,,,,,,,,,,,,,,,910,,male,left_right_width,2024-10-21_09h39.39.855,exp1,2023.1.0,59.978467719744366,
3,9.1,10,10.9,0,0,0.9,0.35,0.55,2.35,10,9,9,9,0,0,,,,,,,,,,,,,,,,,,,,,,,,,,0,2,2,3,,,,,,,,,,,,,,,,,,,,num_3,0.8602630998939276,num_3,0.25,0.3,0.15000000000000002,0.85,5.73083,32.47468,return,20.904808799969032,,,,,,,,,,,,,,,,,910,,male,left_right_width,2024-10-21_09h39.39.855,exp1,2023.1.0,59.978467719744366,
3,9.5,10,10.5,0,0,0.5,0.25,0.25,1.25,10,9,9,9,0,0,,,,,,,,,,,,,,,,,,,,,,,,,,0,3,3,0,,,,,,,,,,,,,,,,,,,,num_3,0.5296938000246882,num_3,0.5,0.9,0.25000000000000006,1.1,9.55138,42.02605,return,6.420539299957454,,,,,,,,,,,,,,,,,910,,male,left_right_width,2024-10-21_09h39.39.855,exp1,2023.1.0,59.978467719744366,
5,9,9.5,10,10.5,11,0.5,0.1,0.4,2.4,10,9,9,9,9,9,,,,,,,,,,,,,,,,,,,,,,,,,,0,4,4,5,,,,,,,,,,,,,,,,,,,,num_4,0.7753413000609726,num_4,0.25,1.1,0.35,0.5,13.37193,19.10275,return,7.990732699865475,,,,,,,,,,,,,,,,,910,,male,left_right_width,2024-10-21_09h39.39.855,exp1,2023.1.0,59.978467719744366,
4,9.25,9.75,10.25,10.75,0,0.5,0.25,0.25,1.75,10,9,9,9,9,0,,,,,,,,,,,,,,,,,,,,,,,,,,0,5,5,1,,,,,,,,,,,,,,,,,,,,num_4,0.96443000016734,num_4,0.25,1.0,0.3,0.6,11.46165,22.9233,return,8.601236699847504,,,,,,,,,,,,,,,,,910,,male,left_right_width,2024-10-21_09h39.39.855,exp1,2023.1.0,59.978467719744366,
,,,,,,,,,,,,,,,,,,,,,,,,,,,,,,,,,,,,,,,,,,,,,,,,,,,,,,,,,,,,,,,,,,,,,,,,,,,c,66.13125050021335,,,,,,,,,,,,,,,910,,male,left_right_width,2024-10-21_09h39.39.855,exp1,2023.1.0,59.978467719744366,
,,,,,,,,,,,,,,,,5,8.2,9.1,10,10.9,11.8,0.9,0.35,0.55,4.15,10,initial,36.05,296,328,361,393,425,9,9,9,9,9,,,,,,,0,0,0,0,0,0,0,26,,,,,,,,,,,,num_4,1.4682499999180436,num_4,0.5,0.9,0.5,0.8,19.10275,30.5644,return,9.775800500065088,,,,,,,,,,,,,,,,,910,,male,left_right_width,2024-10-21_09h39.39.855,exp1,2023.1.0,59.978467719744366,
,,,,,,,,,,,,,,,,4,8.65,9.55,10.45,11.35,0,0.9,0.35,0.55,3.25,10,initial,36.05,312,344,377,409,0,9,9,9,9,0,,,,,,,0,0,0,0,0,1,1,41,,,,,,,,,,,,num_4,0.8964169998653233,num_4,0.25,1.3,0.39999999999999997,0.8,15.2822,30.5644,return,6.888389499858022,,,,,,,,,,,,,,,,,910,,male,left_right_width,2024-10-21_09h39.39.855,exp1,2023.1.0,59.978467719744366,
,,,,,,,,,,,,,,,,3,9.1,10,10.9,0,0,0.9,0.35,0.55,2.35,10,initial,36.05,328,361,393,0,0,9,9,9,0,0,,,,,,,0,0,0,0,0,2,2,8,,,,,,,,,,,,num_3,0.7786896000616252,num_3,0.45,1.2,0.45,0.85,17.19248,32.47468,return,4.214922399958596,,,,,,,,,,,,,,,,,910,,male,left_right_width,2024-10-21_09h39.39.855,exp1,2023.1.0,59.978467719744366,
,,,,,,,,,,,,,,,,5,8.2,9.1,10,10.9,11.8,0.9,0.35,0.55,4.15,10,initial,36.05,296,328,361,393,425,9,9,9,9,9,,,,,,,0,0,0,0,0,3,3,50,,,,,,,,,,,,num_5,0.7679278999567032,num_5,0.2,0.8,0.35,0.7,13.37193,26.74385,return,6.63395330007188,,,,,,,,,,,,,,,,,910,,male,left_right_width,2024-10-21_09h39.39.855,exp1,2023.1.0,59.978467719744366,
,,,,,,,,,,,,,,,,3,9.1,10,10.9,0,0,0.9,0.35,0.55,2.35,10,initial,36.05,328,361,393,0,0,9,9,9,0,0,,,,,,,0,0,0,0,0,4,4,28,,,,,,,,,,,,num_3,1.036296600010246,num_3,0.45,1.3,0.45,0.85,17.19248,32.47468,return,4.892501699971035,,,,,,,,,,,,,,,,,910,,male,left_right_width,2024-10-21_09h39.39.855,exp1,2023.1.0,59.978467719744366,
,,,,,,,,,,,,,,,,3,9.1,10,10.9,0,0,0.9,0.35,0.55,2.35,10,initial,36.05,328,361,393,0,0,9,9,9,0,0,,,,,,,0,0,0,0,0,5,5,5,,,,,,,,,,,,num_3,0.4750482998788357,num_3,0.35,0.8,0.44999999999999996,0.8,17.19248,30.5644,return,7.840409100055695,,,,,,,,,,,,,,,,,910,,male,left_right_width,2024-10-21_09h39.39.855,exp1,2023.1.0,59.978467719744366,
,,,,,,,,,,,,,,,,3,9.1,10,10.9,0,0,0.9,0.35,0.55,2.35,10,initial,36.05,328,361,393,0,0,9,9,9,0,0,,,,,,,0,0,0,0,0,6,6,4,,,,,,,,,,,,num_3,0.8517691001761705,num_3,0.2,1.2,0.44999999999999996,0.85,17.19248,32.47468,return,5.932200400158763,,,,,,,,,,,,,,,,,910,,male,left_right_width,2024-10-21_09h39.39.855,exp1,2023.1.0,59.978467719744366,
,,,,,,,,,,,,,,,,5,8.2,9.1,10,10.9,11.8,0.9,0.35,0.55,4.15,10,initial,36.05,296,328,361,393,425,9,9,9,9,9,,,,,,,0,0,0,0,0,7,7,49,,,,,,,,,,,,num_5,0.6993768999818712,num_5,0.3,1.0,0.44999999999999996,0.95,17.19248,36.29523,return,6.791813000105321,,,,,,,,,,,,,,,,,910,,male,left_right_width,2024-10-21_09h39.39.855,exp1,2023.1.0,59.978467719744366,
,,,,,,,,,,,,,,,,3,9.1,10,10.9,0,0,0.9,0.35,0.55,2.35,10,initial,36.05,328,361,393,0,0,9,9,9,0,0,,,,,,,0,0,0,0,0,8,8,6,,,,,,,,,,,,num_3,0.7117693999316543,num_3,0.5,1.1,0.5,1.0,19.10275,38.2055,return,3.86572919995524,,,,,,,,,,,,,,,,,910,,male,left_right_width,2024-10-21_09h39.39.855,exp1,2023.1.0,59.978467719744366,
,,,,,,,,,,,,,,,,4,8.65,9.55,10.45,11.35,0,0.9,0.35,0.55,3.25,10,initial,36.05,312,344,377,409,0,9,9,9,9,0,,,,,,,0,0,0,0,0,9,9,42,,,,,,,,,,,,num_4,0.7910257999319583,num_4,0.2,1.0,0.39999999999999997,0.9,15.2822,34.38495,return,6.114270500140265,,,,,,,,,,,,,,,,,910,,male,left_right_width,2024-10-21_09h39.39.855,exp1,2023.1.0,59.978467719744366,
,,,,,,,,,,,,,,,,4,8.65,9.55,10.45,11.35,0,0.9,0.35,0.55,3.25,10,initial,36.05,312,344,377,409,0,9,9,9,9,0,,,,,,,0,0,0,0,0,10,10,14,,,,,,,,,,,,num_4,0.7403360998723656,num_4,0.5,1.2,0.5,1.0,19.10275,38.2055,return,2.9009453000035137,,,,,,,,,,,,,,,,,910,,male,left_right_width,2024-10-21_09h39.39.855,exp1,2023.1.0,59.978467719744366,
,,,,,,,,,,,,,,,,3,9.1,10,10.9,0,0,0.9,0.35,0.55,2.35,10,initial,36.05,328,361,393,0,0,9,9,9,0,0,,,,,,,0,0,0,0,0,11,11,34,,,,,,,,,,,,num_3,0.5849450000096112,num_3,0.35,0.8,0.39999999999999997,0.85,15.2822,32.47468,return,8.41630950011313,,,,,,,,,,,,,,,,,910,,male,left_right_width,2024-10-21_09h39.39.855,exp1,2023.1.0,59.978467719744366,
,,,,,,,,,,,,,,,,4,8.65,9.55,10.45,11.35,0,0.9,0.35,0.55,3.25,10,initial,36.05,312,344,377,409,0,9,9,9,9,0,,,,,,,0,0,0,0,0,12,12,36,,,,,,,,,,,,num_3,0.7652399002108723,num_3,0.45,0.8,0.4,0.85,15.2822,32.47468,return,7.078706700121984,,,,,,,,,,,,,,,,,910,,male,left_right_width,2024-10-21_09h39.39.855,exp1,2023.1.0,59.978467719744366,
,,,,,,,,,,,,,,,,5,8.2,9.1,10,10.9,11.8,0.9,0.35,0.55,4.15,10,initial,36.05,296,328,361,393,425,9,9,9,9,9,,,,,,,0,0,0,0,0,13,13,23,,,,,,,,,,,,num_4,1.1629806999117136,num_4,0.45,1.2,0.45,1.0,17.19248,38.2055,return,12.777295499807224,,,,,,,,,,,,,,,,,910,,male,left_right_width,2024-10-21_09h39.39.855,exp1,2023.1.0,59.978467719744366,
,,,,,,,,,,,,,,,,3,9.1,10,10.9,0,0,0.9,0.35,0.55,2.35,10,initial,36.05,328,361,393,0,0,9,9,9,0,0,,,,,,,0,0,0,0,0,14,14,0,,,,,,,,,,,,num_3,0.561111600138247,num_3,0.5,0.8,0.5,0.8,19.10275,30.5644,return,1.6862443999852985,,,,,,,,,,,,,,,,,910,,male,left_right_width,2024-10-21_09h39.39.855,exp1,2023.1.0,59.978467719744366,
,,,,,,,,,,,,,,,,5,8.2,9.1,10,10.9,11.8,0.9,0.35,0.55,4.15,10,initial,36.05,296,328,361,393,425,9,9,9,9,9,,,,,,,0,0,0,0,0,15,15,53,,,,,,,,,,,,num_4,0.8061261000111699,num_4,0.4,0.6,0.45,1.0,17.19248,38.2055,return,10.593683399958536,,,,,,,,,,,,,,,,,910,,male,left_right_width,2024-10-21_09h39.39.855,exp1,2023.1.0,59.978467719744366,
,,,,,,,,,,,,,,,,4,8.65,9.55,10.45,11.35,0,0.9,0.35,0.55,3.25,10,initial,36.05,312,344,377,409,0,9,9,9,9,0,,,,,,,0,0,0,0,0,16,16,10,,,,,,,,,,,,num_4,1.073211600072682,num_4,0.2,1.3,0.39999999999999997,1.0,15.2822,38.2055,return,8.095681699924171,,,,,,,,,,,,,,,,,910,,male,left_right_width,2024-10-21_09h39.39.855,exp1,2023.1.0,59.978467719744366,
,,,,,,,,,,,,,,,,3,9.1,10,10.9,0,0,0.9,0.35,0.55,2.35,10,initial,36.05,328,361,393,0,0,9,9,9,0,0,,,,,,,0,0,0,0,0,17,17,32,,,,,,,,,,,,num_3,0.5196485000196844,num_3,0.4,0.6,0.4,0.75,15.2822,28.65413,return,4.587388799991459,,,,,,,,,,,,,,,,,910,,male,left_right_width,2024-10-21_09h39.39.855,exp1,2023.1.0,59.978467719744366,
,,,,,,,,,,,,,,,,4,8.65,9.55,10.45,11.35,0,0.9,0.35,0.55,3.25,10,initial,36.05,312,344,377,409,0,9,9,9,9,0,,,,,,,0,0,0,0,0,18,18,38,,,,,,,,,,,,num_4,0.7389385998249054,num_4,0.3,1.3,0.44999999999999996,1.1,17.19248,42.02605,return,5.2039685000199825,,,,,,,,,,,,,,,,,910,,male,left_right_width,2024-10-21_09h39.39.855,exp1,2023.1.0,59.978467719744366,
,,,,,,,,,,,,,,,,4,8.65,9.55,10.45,11.35,0,0.9,0.35,0.55,3.25,10,initial,36.05,312,344,377,409,0,9,9,9,9,0,,,,,,,0,0,0,0,0,19,19,16,,,,,,,,,,,,num_4,0.9414683000650257,num_4,0.25,0.4,0.39999999999999997,0.9,15.2822,34.38495,return,7.411205100128427,,,,,,,,,,,,,,,,,910,,male,left_right_width,2024-10-21_09h39.39.855,exp1,2023.1.0,59.978467719744366,
,,,,,,,,,,,,,,,,3,9.1,10,10.9,0,0,0.9,0.35,0.55,2.35,10,initial,36.05,328,361,393,0,0,9,9,9,0,0,,,,,,,0,0,0,0,0,20,20,29,,,,,,,,,,,,num_3,0.6254352000541985,num_3,0.35,1,0.39999999999999997,0.95,15.2822,36.29523,return,6.806626599980518,,,,,,,,,,,,,,,,,910,,male,left_right_width,2024-10-21_09h39.39.855,exp1,2023.1.0,59.978467719744366,
,,,,,,,,,,,,,,,,3,9.1,10,10.9,0,0,0.9,0.35,0.55,2.35,10,initial,36.05,328,361,393,0,0,9,9,9,0,0,,,,,,,0,0,0,0,0,21,21,1,,,,,,,,,,,,num_3,0.5828474999871105,num_3,0.35,1.3,0.44999999999999996,0.85,17.19248,32.47468,return,5.919326799921691,,,,,,,,,,,,,,,,,910,,male,left_right_width,2024-10-21_09h39.39.855,exp1,2023.1.0,59.978467719744366,
,,,,,,,,,,,,,,,,4,8.65,9.55,10.45,11.35,0,0.9,0.35,0.55,3.25,10,initial,36.05,312,344,377,409,0,9,9,9,9,0,,,,,,,0,0,0,0,0,22,22,9,,,,,,,,,,,,num_4,0.5827570999972522,num_4,0.35,1.1,0.39999999999999997,0.9,15.2822,34.38495,return,6.219584499951452,,,,,,,,,,,,,,,,,910,,male,left_right_width,2024-10-21_09h39.39.855,exp1,2023.1.0,59.978467719744366,
,,,,,,,,,,,,,,,,3,9.1,10,10.9,0,0,0.9,0.35,0.55,2.35,10,initial,36.05,328,361,393,0,0,9,9,9,0,0,,,,,,,0,0,0,0,0,23,23,27,,,,,,,,,,,,num_3,0.4404772000852972,num_3,0.25,0.5,0.39999999999999997,0.8,15.2822,30.5644,return,4.928540300112218,,,,,,,,,,,,,,,,,910,,male,left_right_width,2024-10-21_09h39.39.855,exp1,2023.1.0,59.978467719744366,
,,,,,,,,,,,,,,,,3,9.1,10,10.9,0,0,0.9,0.35,0.55,2.35,10,initial,36.05,328,361,393,0,0,9,9,9,0,0,,,,,,,0,0,0,0,0,24,24,7,,,,,,,,,,,,num_3,0.47373299999162555,num_3,0.25,1.2,0.39999999999999997,1.0,15.2822,38.2055,return,7.556790499947965,,,,,,,,,,,,,,,,,910,,male,left_right_width,2024-10-21_09h39.39.855,exp1,2023.1.0,59.978467719744366,
,,,,,,,,,,,,,,,,4,8.65,9.55,10.45,11.35,0,0.9,0.35,0.55,3.25,10,initial,36.05,312,344,377,409,0,9,9,9,9,0,,,,,,,0,0,0,0,0,25,25,44,,,,,,,,,,,,num_3,0.7992334999144077,num_3,0.2,1.1,0.39999999999999997,0.95,15.2822,36.29523,return,6.219003500184044,,,,,,,,,,,,,,,,,910,,male,left_right_width,2024-10-21_09h39.39.855,exp1,2023.1.0,59.978467719744366,
,,,,,,,,,,,,,,,,5,8.2,9.1,10,10.9,11.8,0.9,0.35,0.55,4.15,10,initial,36.05,296,328,361,393,425,9,9,9,9,9,,,,,,,0,0,0,0,0,26,26,45,,,,,,,,,,,,num_4,0.6582331999670714,num_4,0.3,0.5,0.39999999999999997,1.1,15.2822,42.02605,return,9.221977400127798,,,,,,,,,,,,,,,,,910,,male,left_right_width,2024-10-21_09h39.39.855,exp1,2023.1.0,59.978467719744366,
,,,,,,,,,,,,,,,,3,9.1,10,10.9,0,0,0.9,0.35,0.55,2.35,10,initial,36.05,328,361,393,0,0,9,9,9,0,0,,,,,,,0,0,0,0,0,27,27,31,,,,,,,,,,,,num_3,0.5428273000288755,num_3,0.35,1.2,0.44999999999999996,1.1,17.19248,42.02605,return,10.243321399902925,,,,,,,,,,,,,,,,,910,,male,left_right_width,2024-10-21_09h39.39.855,exp1,2023.1.0,59.978467719744366,
,,,,,,,,,,,,,,,,3,9.1,10,10.9,0,0,0.9,0.35,0.55,2.35,10,initial,36.05,328,361,393,0,0,9,9,9,0,0,,,,,,,0,0,0,0,0,28,28,30,,,,,,,,,,,,num_3,0.7570761998649687,num_3,0.4,1,0.4,1.05,15.2822,40.11578,return,10.818956399802119,,,,,,,,,,,,,,,,,910,,male,left_right_width,2024-10-21_09h39.39.855,exp1,2023.1.0,59.978467719744366,
,,,,,,,,,,,,,,,,5,8.2,9.1,10,10.9,11.8,0.9,0.35,0.55,4.15,10,initial,36.05,296,328,361,393,425,9,9,9,9,9,,,,,,,0,0,0,0,0,29,29,18,,,,,,,,,,,,num_5,0.8921316000632942,num_5,0.35,1.0,0.39999999999999997,1.0,15.2822,38.2055,return,7.7021763999946415,,,,,,,,,,,,,,,,,910,,male,left_right_width,2024-10-21_09h39.39.855,exp1,2023.1.0,59.978467719744366,
,,,,,,,,,,,,,,,,4,8.65,9.55,10.45,11.35,0,0.9,0.35,0.55,3.25,10,initial,36.05,312,344,377,409,0,9,9,9,9,0,,,,,,,0,0,0,0,0,30,30,39,,,,,,,,,,,,num_4,0.7080465001054108,num_4,0.5,1.1,0.4,1.1,15.2822,42.02605,return,8.40310509991832,,,,,,,,,,,,,,,,,910,,male,left_right_width,2024-10-21_09h39.39.855,exp1,2023.1.0,59.978467719744366,
,,,,,,,,,,,,,,,,5,8.2,9.1,10,10.9,11.8,0.9,0.35,0.55,4.15,10,initial,36.05,296,328,361,393,425,9,9,9,9,9,,,,,,,0,0,0,0,0,31,31,51,,,,,,,,,,,,num_4,0.6177062999922782,num_4,0.25,1.1,0.39999999999999997,1.1,15.2822,42.02605,return,13.44926519994624,,,,,,,,,,,,,,,,,910,,male,left_right_width,2024-10-21_09h39.39.855,exp1,2023.1.0,59.978467719744366,
,,,,,,,,,,,,,,,,5,8.2,9.1,10,10.9,11.8,0.9,0.35,0.55,4.15,10,initial,36.05,296,328,361,393,425,9,9,9,9,9,,,,,,,0,0,0,0,0,32,32,20,,,,,,,,,,,,num_4,1.1345480000600219,num_4,0.55,0.7,0.5,1.1,19.10275,42.02605,return,6.940255499910563,,,,,,,,,,,,,,,,,910,,male,left_right_width,2024-10-21_09h39.39.855,exp1,2023.1.0,59.978467719744366,
,,,,,,,,,,,,,,,,5,8.2,9.1,10,10.9,11.8,0.9,0.35,0.55,4.15,10,initial,36.05,296,328,361,393,425,9,9,9,9,9,,,,,,,0,0,0,0,0,33,33,25,,,,,,,,,,,,num_5,0.6797843999229372,num_5,0.3,0.4,0.39999999999999997,1.0,15.2822,38.2055,return,6.5226527999620885,,,,,,,,,,,,,,,,,910,,male,left_right_width,2024-10-21_09h39.39.855,exp1,2023.1.0,59.978467719744366,
,,,,,,,,,,,,,,,,5,8.2,9.1,10,10.9,11.8,0.9,0.35,0.55,4.15,10,initial,36.05,296,328,361,393,425,9,9,9,9,9,,,,,,,0,0,0,0,0,34,34,46,,,,,,,,,,,,num_5,0.6637978998478502,num_5,0.35,1.0,0.39999999999999997,1.1,15.2822,42.02605,return,4.748941899975762,,,,,,,,,,,,,,,,,910,,male,left_right_width,2024-10-21_09h39.39.855,exp1,2023.1.0,59.978467719744366,
,,,,,,,,,,,,,,,,5,8.2,9.1,10,10.9,11.8,0.9,0.35,0.55,4.15,10,initial,36.05,296,328,361,393,425,9,9,9,9,9,,,,,,,0,0,0,0,0,35,35,48,,,,,,,,,,,,num_5,0.5703479000367224,num_5,0.5,0.6,0.5,0.9,19.10275,34.38495,return,5.181014499859884,,,,,,,,,,,,,,,,,910,,male,left_right_width,2024-10-21_09h39.39.855,exp1,2023.1.0,59.978467719744366,
,,,,,,,,,,,,,,,,3,9.1,10,10.9,0,0,0.9,0.35,0.55,2.35,10,initial,36.05,328,361,393,0,0,9,9,9,0,0,,,,,,,0,0,0,0,0,36,36,35,,,,,,,,,,,,num_3,0.7082913001067936,num_3,0.25,1,0.44999999999999996,1.05,17.19248,40.11578,return,4.128168099792674,,,,,,,,,,,,,,,,,910,,male,left_right_width,2024-10-21_09h39.39.855,exp1,2023.1.0,59.978467719744366,
,,,,,,,,,,,,,,,,5,8.2,9.1,10,10.9,11.8,0.9,0.35,0.55,4.15,10,initial,36.05,296,328,361,393,425,9,9,9,9,9,,,,,,,0,0,0,0,0,37,37,22,,,,,,,,,,,,num_5,1.3013247000053525,num_5,0.25,0.5,0.39999999999999997,0.95,15.2822,36.29523,return,8.575269400142133,,,,,,,,,,,,,,,,,910,,male,left_right_width,2024-10-21_09h39.39.855,exp1,2023.1.0,59.978467719744366,
,,,,,,,,,,,,,,,,4,8.65,9.55,10.45,11.35,0,0.9,0.35,0.55,3.25,10,initial,36.05,312,344,377,409,0,9,9,9,9,0,,,,,,,0,0,0,0,0,38,38,43,,,,,,,,,,,,num_4,0.6560702999122441,num_4,0.25,1.0,0.39999999999999997,0.9,15.2822,34.38495,return,13.202146200230345,,,,,,,,,,,,,,,,,910,,male,left_right_width,2024-10-21_09h39.39.855,exp1,2023.1.0,59.978467719744366,
,,,,,,,,,,,,,,,,4,8.65,9.55,10.45,11.35,0,0.9,0.35,0.55,3.25,10,initial,36.05,312,344,377,409,0,9,9,9,9,0,,,,,,,0,0,0,0,0,39,39,15,,,,,,,,,,,,num_4,1.28515710006468,num_4,0.4,0.9,0.45,1.0,17.19248,38.2055,return,4.188536999979988,,,,,,,,,,,,,,,,,910,,male,left_right_width,2024-10-21_09h39.39.855,exp1,2023.1.0,59.978467719744366,
,,,,,,,,,,,,,,,,5,8.2,9.1,10,10.9,11.8,0.9,0.35,0.55,4.15,10,initial,36.05,296,328,361,393,425,9,9,9,9,9,,,,,,,0,0,0,0,0,40,40,47,,,,,,,,,,,,num_5,0.6562684001401067,num_5,0.55,0.7,0.4,0.95,15.2822,36.29523,return,7.7929525000508875,,,,,,,,,,,,,,,,,910,,male,left_right_width,2024-10-21_09h39.39.855,exp1,2023.1.0,59.978467719744366,
,,,,,,,,,,,,,,,,5,8.2,9.1,10,10.9,11.8,0.9,0.35,0.55,4.15,10,initial,36.05,296,328,361,393,425,9,9,9,9,9,,,,,,,0,0,0,0,0,41,41,24,,,,,,,,,,,,num_5,1.2257311001885682,num_5,0.35,0.5,0.39999999999999997,1.0,15.2822,38.2055,return,16.240670800209045,,,,,,,,,,,,,,,,,910,,male,left_right_width,2024-10-21_09h39.39.855,exp1,2023.1.0,59.978467719744366,
,,,,,,,,,,,,,,,,3,9.1,10,10.9,0,0,0.9,0.35,0.55,2.35,10,initial,36.05,328,361,393,0,0,9,9,9,0,0,,,,,,,0,0,0,0,0,42,42,3,,,,,,,,,,,,num_3,0.4653046999592334,num_3,0.4,1.1,0.4,0.95,15.2822,36.29523,return,7.42165010003373,,,,,,,,,,,,,,,,,910,,male,left_right_width,2024-10-21_09h39.39.855,exp1,2023.1.0,59.978467719744366,
,,,,,,,,,,,,,,,,4,8.65,9.55,10.45,11.35,0,0.9,0.35,0.55,3.25,10,initial,36.05,312,344,377,409,0,9,9,9,9,0,,,,,,,0,0,0,0,0,43,43,17,,,,,,,,,,,,num_3,0.7698484999127686,num_3,0.55,1,0.45,1.25,17.19248,47.75688,return,16.10684509994462,,,,,,,,,,,,,,,,,910,,male,left_right_width,2024-10-21_09h39.39.855,exp1,2023.1.0,59.978467719744366,
,,,,,,,,,,,,,,,,4,8.65,9.55,10.45,11.35,0,0.9,0.35,0.55,3.25,10,initial,36.05,312,344,377,409,0,9,9,9,9,0,,,,,,,0,0,0,0,0,44,44,12,,,,,,,,,,,,num_3,0.6347686999943107,num_3,0.2,0.6,0.35,1.05,13.37193,40.11578,return,7.066811499884352,,,,,,,,,,,,,,,,,910,,male,left_right_width,2024-10-21_09h39.39.855,exp1,2023.1.0,59.978467719744366,
,,,,,,,,,,,,,,,,5,8.2,9.1,10,10.9,11.8,0.9,0.35,0.55,4.15,10,initial,36.05,296,328,361,393,425,9,9,9,9,9,,,,,,,0,0,0,0,0,45,45,21,,,,,,,,,,,,num_5,0.8618088997900486,num_5,0.45,0.9,0.45,1.1,17.19248,42.02605,return,7.940051299985498,,,,,,,,,,,,,,,,,910,,male,left_right_width,2024-10-21_09h39.39.855,exp1,2023.1.0,59.978467719744366,
,,,,,,,,,,,,,,,,4,8.65,9.55,10.45,11.35,0,0.9,0.35,0.55,3.25,10,initial,36.05,312,344,377,409,0,9,9,9,9,0,,,,,,,0,0,0,0,0,46,46,11,,,,,,,,,,,,num_3,0.8422511001117527,num_3,0.35,0.8,0.39999999999999997,1.05,15.2822,40.11578,return,10.675466799875721,,,,,,,,,,,,,,,,,910,,male,left_right_width,2024-10-21_09h39.39.855,exp1,2023.1.0,59.978467719744366,
,,,,,,,,,,,,,,,,3,9.1,10,10.9,0,0,0.9,0.35,0.55,2.35,10,initial,36.05,328,361,393,0,0,9,9,9,0,0,,,,,,,0,0,0,0,0,47,47,2,,,,,,,,,,,,num_3,0.9494735000189394,num_3,0.3,1.2,0.39999999999999997,1.0,15.2822,38.2055,return,10.318307099863887,,,,,,,,,,,,,,,,,910,,male,left_right_width,2024-10-21_09h39.39.855,exp1,2023.1.0,59.978467719744366,
,,,,,,,,,,,,,,,,4,8.65,9.55,10.45,11.35,0,0.9,0.35,0.55,3.25,10,initial,36.05,312,344,377,409,0,9,9,9,9,0,,,,,,,0,0,0,0,0,48,48,37,,,,,,,,,,,,num_3,0.8415246999356896,num_3,0.25,1,0.39999999999999997,1.0,15.2822,38.2055,return,11.058794799959287,,,,,,,,,,,,,,,,,910,,male,left_right_width,2024-10-21_09h39.39.855,exp1,2023.1.0,59.978467719744366,
,,,,,,,,,,,,,,,,3,9.1,10,10.9,0,0,0.9,0.35,0.55,2.35,10,initial,36.05,328,361,393,0,0,9,9,9,0,0,,,,,,,0,0,0,0,0,49,49,33,,,,,,,,,,,,num_3,0.5789302000775933,num_3,0.35,0.7,0.39999999999999997,0.7,15.2822,26.74385,return,4.03761830017902,,,,,,,,,,,,,,,,,910,,male,left_right_width,2024-10-21_09h39.39.855,exp1,2023.1.0,59.978467719744366,
,,,,,,,,,,,,,,,,4,8.65,9.55,10.45,11.35,0,0.9,0.35,0.55,3.25,10,initial,36.05,312,344,377,409,0,9,9,9,9,0,,,,,,,0,0,0,0,0,50,50,40,,,,,,,,,,,,num_4,1.0891650998964906,num_4,0.4,0.6,0.4,0.8,15.2822,30.5644,return,3.732726200018078,,,,,,,,,,,,,,,,,910,,male,left_right_width,2024-10-21_09h39.39.855,exp1,2023.1.0,59.978467719744366,
,,,,,,,,,,,,,,,,5,8.2,9.1,10,10.9,11.8,0.9,0.35,0.55,4.15,10,initial,36.05,296,328,361,393,425,9,9,9,9,9,,,,,,,0,0,0,0,0,51,51,19,,,,,,,,,,,,num_4,1.0903986999765038,num_4,0.3,0.5,0.39999999999999997,0.8,15.2822,30.5644,return,8.718674500007182,,,,,,,,,,,,,,,,,910,,male,left_right_width,2024-10-21_09h39.39.855,exp1,2023.1.0,59.978467719744366,
,,,,,,,,,,,,,,,,4,8.65,9.55,10.45,11.35,0,0.9,0.35,0.55,3.25,10,initial,36.05,312,344,377,409,0,9,9,9,9,0,,,,,,,0,0,0,0,0,52,52,13,,,,,,,,,,,,num_4,0.9111358998343349,num_4,0.2,0.8,0.39999999999999997,0.8,15.2822,30.5644,return,6.023746600141749,,,,,,,,,,,,,,,,,910,,male,left_right_width,2024-10-21_09h39.39.855,exp1,2023.1.0,59.978467719744366,
,,,,,,,,,,,,,,,,5,8.2,9.1,10,10.9,11.8,0.9,0.35,0.55,4.15,10,initial,36.05,296,328,361,393,425,9,9,9,9,9,,,,,,,0,0,0,0,0,53,53,52,,,,,,,,,,,,num_5,0.8748032001312822,num_5,0.2,0.3,0.35,0.7,13.37193,26.74385,return,10.721845499938354,,,,,,,,,,,,,,,,,910,,male,left_right_width,2024-10-21_09h39.39.855,exp1,2023.1.0,59.978467719744366,
,,,,,,,,,,,,,,,,,,,,,,,,,,,,,,,,,,,,,,,,,,,,,0,0,0,0,,,,,,,,,,,,,,,,,,,,,,,,,,,,,839.7064190001693,839.7064190001693,839.7064190001693,,,,,,,,,,,,910,,male,left_right_width,2024-10-21_09h39.39.855,exp1,2023.1.0,59.978467719744366,
,,,,,,,,,,,,,,,,3,9.5,10,10.5,0,0,0.5,0.1,0.4,1.4000000000000001,10,initial,36.05,342,361,379,0,0,9,9,9,0,0,,,,,,,1,0,1,0,0,0,0,4,,,,,,,,,,,,num_3,0.8958649998530746,num_3,0.35,0.7,0.35,0.5,13.37193,19.10275,return,7.498983399942517,,,,,,,,,,,,,,,,,910,,male,left_right_width,2024-10-21_09h39.39.855,exp1,2023.1.0,59.978467719744366,
,,,,,,,,,,,,,,,,4,9.25,9.75,10.25,10.75,0,0.5,0.1,0.4,1.9000000000000001,10,initial,36.05,333,351,370,388,0,9,9,9,9,0,,,,,,,1,0,1,0,0,1,1,39,,,,,,,,,,,,num_3,0.6841986998915672,num_3,0.2,0.4,0.3,0.4,11.46165,15.2822,return,3.4665369000285864,,,,,,,,,,,,,,,,,910,,male,left_right_width,2024-10-21_09h39.39.855,exp1,2023.1.0,59.978467719744366,
,,,,,,,,,,,,,,,,3,9.5,10,10.5,0,0,0.5,0.1,0.4,1.4000000000000001,10,initial,36.05,342,361,379,0,0,9,9,9,0,0,,,,,,,1,0,1,0,0,2,2,29,,,,,,,,,,,,num_3,0.47762309992685914,num_3,0.3,0.7,0.25,0.4,9.55138,15.2822,return,4.343530300073326,,,,,,,,,,,,,,,,,910,,male,left_right_width,2024-10-21_09h39.39.855,exp1,2023.1.0,59.978467719744366,
,,,,,,,,,,,,,,,,5,9,9.5,10,10.5,11,0.5,0.1,0.4,2.4,10,initial,36.05,324,342,361,379,397,9,9,9,9,9,,,,,,,1,0,1,0,0,3,3,46,,,,,,,,,,,,num_4,0.6536820000037551,num_4,0.5,0.9,0.35000000000000003,0.5,13.37193,19.10275,return,4.54725500009954,,,,,,,,,,,,,,,,,910,,male,left_right_width,2024-10-21_09h39.39.855,exp1,2023.1.0,59.978467719744366,
,,,,,,,,,,,,,,,,4,9.25,9.75,10.25,10.75,0,0.5,0.1,0.4,1.9000000000000001,10,initial,36.05,333,351,370,388,0,9,9,9,9,0,,,,,,,1,0,1,0,0,4,4,15,,,,,,,,,,,,num_3,1.156026199925691,num_3,0.4,1.1,0.30000000000000004,0.5,11.46165,19.10275,return,6.145661400165409,,,,,,,,,,,,,,,,,910,,male,left_right_width,2024-10-21_09h39.39.855,exp1,2023.1.0,59.978467719744366,
,,,,,,,,,,,,,,,,3,9.5,10,10.5,0,0,0.5,0.1,0.4,1.4000000000000001,10,initial,36.05,342,361,379,0,0,9,9,9,0,0,,,,,,,1,0,1,0,0,5,5,31,,,,,,,,,,,,num_3,0.5927153998054564,num_3,0.4,1.3,0.25000000000000006,0.4,9.55138,15.2822,return,5.973040899960324,,,,,,,,,,,,,,,,,910,,male,left_right_width,2024-10-21_09h39.39.855,exp1,2023.1.0,59.978467719744366,
,,,,,,,,,,,,,,,,3,9.5,10,10.5,0,0,0.5,0.1,0.4,1.4000000000000001,10,initial,36.05,342,361,379,0,0,9,9,9,0,0,,,,,,,1,0,1,0,0,6,6,34,,,,,,,,,,,,num_3,0.4797167999204248,num_3,0.55,1.2,0.30000000000000004,0.45,11.46165,17.19248,return,6.934919500024989,,,,,,,,,,,,,,,,,910,,male,left_right_width,2024-10-21_09h39.39.855,exp1,2023.1.0,59.978467719744366,
,,,,,,,,,,,,,,,,4,9.25,9.75,10.25,10.75,0,0.5,0.1,0.4,1.9000000000000001,10,initial,36.05,333,351,370,388,0,9,9,9,9,0,,,,,,,1,0,1,0,0,7,7,36,,,,,,,,,,,,num_4,0.8234331998974085,num_4,0.2,0.9,0.3,0.5,11.46165,19.10275,return,5.936769499909133,,,,,,,,,,,,,,,,,910,,male,left_right_width,2024-10-21_09h39.39.855,exp1,2023.1.0,59.978467719744366,
,,,,,,,,,,,,,,,,4,9.25,9.75,10.25,10.75,0,0.5,0.1,0.4,1.9000000000000001,10,initial,36.05,333,351,370,388,0,9,9,9,9,0,,,,,,,1,0,1,0,0,8,8,37,,,,,,,,,,,,num_4,0.7663260998670012,num_4,0.35,0.6,0.3,0.5,11.46165,19.10275,return,2.954948900034651,,,,,,,,,,,,,,,,,910,,male,left_right_width,2024-10-21_09h39.39.855,exp1,2023.1.0,59.978467719744366,
,,,,,,,,,,,,,,,,5,9,9.5,10,10.5,11,0.5,0.1,0.4,2.4,10,initial,36.05,324,342,361,379,397,9,9,9,9,9,,,,,,,1,0,1,0,0,9,9,45,,,,,,,,,,,,num_5,0.7028622999787331,num_5,0.55,0.8,0.30000000000000004,0.5,11.46165,19.10275,return,6.815592899918556,,,,,,,,,,,,,,,,,910,,male,left_right_width,2024-10-21_09h39.39.855,exp1,2023.1.0,59.978467719744366,
,,,,,,,,,,,,,,,,3,9.5,10,10.5,0,0,0.5,0.1,0.4,1.4000000000000001,10,initial,36.05,342,361,379,0,0,9,9,9,0,0,,,,,,,1,0,1,0,0,10,10,30,,,,,,,,,,,,num_4,0.8502831999212503,num_4,0.25,0.9,0.2,0.4,7.6411,15.2822,return,4.348217100137845,,,,,,,,,,,,,,,,,910,,male,left_right_width,2024-10-21_09h39.39.855,exp1,2023.1.0,59.978467719744366,
,,,,,,,,,,,,,,,,4,9.25,9.75,10.25,10.75,0,0.5,0.1,0.4,1.9000000000000001,10,initial,36.05,333,351,370,388,0,9,9,9,9,0,,,,,,,1,0,1,0,0,11,11,40,,,,,,,,,,,,num_4,0.8798332000151277,num_4,0.3,0.6,0.25,0.5,9.55138,19.10275,return,4.69468370010145,,,,,,,,,,,,,,,,,910,,male,left_right_width,2024-10-21_09h39.39.855,exp1,2023.1.0,59.978467719744366,
,,,,,,,,,,,,,,,,5,9,9.5,10,10.5,11,0.5,0.1,0.4,2.4,10,initial,36.05,324,342,361,379,397,9,9,9,9,9,,,,,,,1,0,1,0,0,12,12,25,,,,,,,,,,,,num_4,1.1436881001573056,num_4,0.5,1.2,0.30000000000000004,0.5,11.46165,19.10275,return,10.580314900027588,,,,,,,,,,,,,,,,,910,,male,left_right_width,2024-10-21_09h39.39.855,exp1,2023.1.0,59.978467719744366,
,,,,,,,,,,,,,,,,4,9.25,9.75,10.25,10.75,0,0.5,0.1,0.4,1.9000000000000001,10,initial,36.05,333,351,370,388,0,9,9,9,9,0,,,,,,,1,0,1,0,0,13,13,14,,,,,,,,,,,,num_3,0.8847753000445664,num_3,0.4,0.8,0.25000000000000006,0.55,9.55138,21.01303,return,14.971576899988577,,,,,,,,,,,,,,,,,910,,male,left_right_width,2024-10-21_09h39.39.855,exp1,2023.1.0,59.978467719744366,
,,,,,,,,,,,,,,,,5,9,9.5,10,10.5,11,0.5,0.1,0.4,2.4,10,initial,36.05,324,342,361,379,397,9,9,9,9,9,,,,,,,1,0,1,0,0,14,14,50,,,,,,,,,,,,num_4,0.777696899836883,num_4,0.25,0.6,0.3,0.5,11.46165,19.10275,return,5.818403800018132,,,,,,,,,,,,,,,,,910,,male,left_right_width,2024-10-21_09h39.39.855,exp1,2023.1.0,59.978467719744366,
,,,,,,,,,,,,,,,,5,9,9.5,10,10.5,11,0.5,0.1,0.4,2.4,10,initial,36.05,324,342,361,379,397,9,9,9,9,9,,,,,,,1,0,1,0,0,15,15,49,,,,,,,,,,,,num_4,0.9910795001778752,num_4,0.45,0.6,0.30000000000000004,0.5,11.46165,19.10275,return,4.805098199984059,,,,,,,,,,,,,,,,,910,,male,left_right_width,2024-10-21_09h39.39.855,exp1,2023.1.0,59.978467719744366,
,,,,,,,,,,,,,,,,5,9,9.5,10,10.5,11,0.5,0.1,0.4,2.4,10,initial,36.05,324,342,361,379,397,9,9,9,9,9,,,,,,,1,0,1,0,0,16,16,51,,,,,,,,,,,,num_4,0.9248273998964578,num_4,0.55,0.9,0.35000000000000003,0.7,13.37193,26.74385,return,7.351114800199866,,,,,,,,,,,,,,,,,910,,male,left_right_width,2024-10-21_09h39.39.855,exp1,2023.1.0,59.978467719744366,
,,,,,,,,,,,,,,,,4,9.25,9.75,10.25,10.75,0,0.5,0.1,0.4,1.9000000000000001,10,initial,36.05,333,351,370,388,0,9,9,9,9,0,,,,,,,1,0,1,0,0,17,17,16,,,,,,,,,,,,num_3,1.4012428000569344,num_3,0.35,1.1,0.35,0.65,13.37193,24.83358,return,10.733970199944451,,,,,,,,,,,,,,,,,910,,male,left_right_width,2024-10-21_09h39.39.855,exp1,2023.1.0,59.978467719744366,
,,,,,,,,,,,,,,,,4,9.25,9.75,10.25,10.75,0,0.5,0.1,0.4,1.9000000000000001,10,initial,36.05,333,351,370,388,0,9,9,9,9,0,,,,,,,1,0,1,0,0,18,18,9,,,,,,,,,,,,num_4,1.2369431001134217,num_4,0.35,0.8,0.3,0.5,11.46165,19.10275,return,7.026043900055811,,,,,,,,,,,,,,,,,910,,male,left_right_width,2024-10-21_09h39.39.855,exp1,2023.1.0,59.978467719744366,
,,,,,,,,,,,,,,,,5,9,9.5,10,10.5,11,0.5,0.1,0.4,2.4,10,initial,36.05,324,342,361,379,397,9,9,9,9,9,,,,,,,1,0,1,0,0,19,19,20,,,,,,,,,,,,num_4,0.7703655001241714,num_4,0.4,0.5,0.30000000000000004,0.5,11.46165,19.10275,return,6.640939899953082,,,,,,,,,,,,,,,,,910,,male,left_right_width,2024-10-21_09h39.39.855,exp1,2023.1.0,59.978467719744366,
,,,,,,,,,,,,,,,,5,9,9.5,10,10.5,11,0.5,0.1,0.4,2.4,10,initial,36.05,324,342,361,379,397,9,9,9,9,9,,,,,,,1,0,1,0,0,20,20,18,,,,,,,,,,,,num_3,0.6829128998797387,num_3,0.4,1.1,0.35000000000000003,0.65,13.37193,24.83358,return,10.667676799930632,,,,,,,,,,,,,,,,,910,,male,left_right_width,2024-10-21_09h39.39.855,exp1,2023.1.0,59.978467719744366,
,,,,,,,,,,,,,,,,3,9.5,10,10.5,0,0,0.5,0.1,0.4,1.4000000000000001,10,initial,36.05,342,361,379,0,0,9,9,9,0,0,,,,,,,1,0,1,0,0,21,21,0,,,,,,,,,,,,num_3,0.44958070013672113,num_3,0.45,0.7,0.35000000000000003,0.65,13.37193,24.83358,return,5.679144399939105,,,,,,,,,,,,,,,,,910,,male,left_right_width,2024-10-21_09h39.39.855,exp1,2023.1.0,59.978467719744366,
,,,,,,,,,,,,,,,,3,9.5,10,10.5,0,0,0.5,0.1,0.4,1.4000000000000001,10,initial,36.05,342,361,379,0,0,9,9,9,0,0,,,,,,,1,0,1,0,0,22,22,35,,,,,,,,,,,,num_3,0.8300973000004888,num_3,0.2,1.1,0.25,0.4,9.55138,15.2822,return,8.715937899891287,,,,,,,,,,,,,,,,,910,,male,left_right_width,2024-10-21_09h39.39.855,exp1,2023.1.0,59.978467719744366,
,,,,,,,,,,,,,,,,3,9.5,10,10.5,0,0,0.5,0.1,0.4,1.4000000000000001,10,initial,36.05,342,361,379,0,0,9,9,9,0,0,,,,,,,1,0,1,0,0,23,23,6,,,,,,,,,,,,num_3,0.6528896000236273,num_3,0.5,0.9,0.30000000000000004,0.5,11.46165,19.10275,return,6.639489599969238,,,,,,,,,,,,,,,,,910,,male,left_right_width,2024-10-21_09h39.39.855,exp1,2023.1.0,59.978467719744366,
,,,,,,,,,,,,,,,,4,9.25,9.75,10.25,10.75,0,0.5,0.1,0.4,1.9000000000000001,10,initial,36.05,333,351,370,388,0,9,9,9,9,0,,,,,,,1,0,1,0,0,24,24,13,,,,,,,,,,,,num_3,0.532249900046736,num_3,0.35,1.1,0.3,0.5,11.46165,19.10275,return,5.355482100043446,,,,,,,,,,,,,,,,,910,,male,left_right_width,2024-10-21_09h39.39.855,exp1,2023.1.0,59.978467719744366,
,,,,,,,,,,,,,,,,3,9.5,10,10.5,0,0,0.5,0.1,0.4,1.4000000000000001,10,initial,36.05,342,361,379,0,0,9,9,9,0,0,,,,,,,1,0,1,0,0,25,25,32,,,,,,,,,,,,num_3,1.30643739993684,num_3,0.3,0.6,0.25,0.4,9.55138,15.2822,return,7.727786000119522,,,,,,,,,,,,,,,,,910,,male,left_right_width,2024-10-21_09h39.39.855,exp1,2023.1.0,59.978467719744366,
,,,,,,,,,,,,,,,,5,9,9.5,10,10.5,11,0.5,0.1,0.4,2.4,10,initial,36.05,324,342,361,379,397,9,9,9,9,9,,,,,,,1,0,1,0,0,26,26,23,,,,,,,,,,,,num_5,0.7045119998510927,num_5,0.5,0.6,0.35000000000000003,0.55,13.37193,21.01303,return,10.096997799817473,,,,,,,,,,,,,,,,,910,,male,left_right_width,2024-10-21_09h39.39.855,exp1,2023.1.0,59.978467719744366,
,,,,,,,,,,,,,,,,4,9.25,9.75,10.25,10.75,0,0.5,0.1,0.4,1.9000000000000001,10,initial,36.05,333,351,370,388,0,9,9,9,9,0,,,,,,,1,0,1,0,0,27,27,44,,,,,,,,,,,,num_4,0.7132191001437604,num_4,0.2,0.5,0.35,0.6,13.37193,22.9233,return,6.294584000017494,,,,,,,,,,,,,,,,,910,,male,left_right_width,2024-10-21_09h39.39.855,exp1,2023.1.0,59.978467719744366,
,,,,,,,,,,,,,,,,4,9.25,9.75,10.25,10.75,0,0.5,0.1,0.4,1.9000000000000001,10,initial,36.05,333,351,370,388,0,9,9,9,9,0,,,,,,,1,0,1,0,0,28,28,41,,,,,,,,,,,,num_3,0.5470603001303971,num_3,0.45,1.1,0.4,0.65,15.2822,24.83358,return,11.719615200068802,,,,,,,,,,,,,,,,,910,,male,left_right_width,2024-10-21_09h39.39.855,exp1,2023.1.0,59.978467719744366,
,,,,,,,,,,,,,,,,5,9,9.5,10,10.5,11,0.5,0.1,0.4,2.4,10,initial,36.05,324,342,361,379,397,9,9,9,9,9,,,,,,,1,0,1,0,0,29,29,24,,,,,,,,,,,,num_4,0.6911032998468727,num_4,0.3,0.9,0.44999999999999996,0.7,17.19248,26.74385,return,3.3517841999419034,,,,,,,,,,,,,,,,,910,,male,left_right_width,2024-10-21_09h39.39.855,exp1,2023.1.0,59.978467719744366,
,,,,,,,,,,,,,,,,3,9.5,10,10.5,0,0,0.5,0.1,0.4,1.4000000000000001,10,initial,36.05,342,361,379,0,0,9,9,9,0,0,,,,,,,1,0,1,0,0,30,30,3,,,,,,,,,,,,num_3,0.5297314000781626,num_3,0.25,0.5,0.3,0.5,11.46165,19.10275,return,8.98774449992925,,,,,,,,,,,,,,,,,910,,male,left_right_width,2024-10-21_09h39.39.855,exp1,2023.1.0,59.978467719744366,
,,,,,,,,,,,,,,,,5,9,9.5,10,10.5,11,0.5,0.1,0.4,2.4,10,initial,36.05,324,342,361,379,397,9,9,9,9,9,,,,,,,1,0,1,0,0,31,31,48,,,,,,,,,,,,num_4,0.7436909999232739,num_4,0.55,1.0,0.4,0.7,15.2822,26.74385,return,10.656940400134772,,,,,,,,,,,,,,,,,910,,male,left_right_width,2024-10-21_09h39.39.855,exp1,2023.1.0,59.978467719744366,
,,,,,,,,,,,,,,,,4,9.25,9.75,10.25,10.75,0,0.5,0.1,0.4,1.9000000000000001,10,initial,36.05,333,351,370,388,0,9,9,9,9,0,,,,,,,1,0,1,0,0,32,32,17,,,,,,,,,,,,num_4,0.7164422001224011,num_4,0.3,1.2,0.3,0.6,11.46165,22.9233,return,6.189900900004432,,,,,,,,,,,,,,,,,910,,male,left_right_width,2024-10-21_09h39.39.855,exp1,2023.1.0,59.978467719744366,
,,,,,,,,,,,,,,,,3,9.5,10,10.5,0,0,0.5,0.1,0.4,1.4000000000000001,10,initial,36.05,342,361,379,0,0,9,9,9,0,0,,,,,,,1,0,1,0,0,33,33,28,,,,,,,,,,,,num_3,0.5586409999523312,num_3,0.25,1.3,0.25,0.45,9.55138,17.19248,return,7.1895212000235915,,,,,,,,,,,,,,,,,910,,male,left_right_width,2024-10-21_09h39.39.855,exp1,2023.1.0,59.978467719744366,
,,,,,,,,,,,,,,,,3,9.5,10,10.5,0,0,0.5,0.1,0.4,1.4000000000000001,10,initial,36.05,342,361,379,0,0,9,9,9,0,0,,,,,,,1,0,1,0,0,34,34,5,,,,,,,,,,,,num_3,0.4582907999865711,num_3,0.4,1.3,0.30000000000000004,0.55,11.46165,21.01303,return,7.009933200199157,,,,,,,,,,,,,,,,,910,,male,left_right_width,2024-10-21_09h39.39.855,exp1,2023.1.0,59.978467719744366,
,,,,,,,,,,,,,,,,5,9,9.5,10,10.5,11,0.5,0.1,0.4,2.4,10,initial,36.05,324,342,361,379,397,9,9,9,9,9,,,,,,,1,0,1,0,0,35,35,52,,,,,,,,,,,,num_4,0.7525291000492871,num_4,0.55,0.7,0.35000000000000003,0.6,13.37193,22.9233,return,5.146480299998075,,,,,,,,,,,,,,,,,910,,male,left_right_width,2024-10-21_09h39.39.855,exp1,2023.1.0,59.978467719744366,
,,,,,,,,,,,,,,,,5,9,9.5,10,10.5,11,0.5,0.1,0.4,2.4,10,initial,36.05,324,342,361,379,397,9,9,9,9,9,,,,,,,1,0,1,0,0,36,36,19,,,,,,,,,,,,num_4,0.8129630999173969,num_4,0.3,0.8,0.3,0.6,11.46165,22.9233,return,7.47213299991563,,,,,,,,,,,,,,,,,910,,male,left_right_width,2024-10-21_09h39.39.855,exp1,2023.1.0,59.978467719744366,
,,,,,,,,,,,,,,,,3,9.5,10,10.5,0,0,0.5,0.1,0.4,1.4000000000000001,10,initial,36.05,342,361,379,0,0,9,9,9,0,0,,,,,,,1,0,1,0,0,37,37,1,,,,,,,,,,,,num_3,0.606946500018239,num_3,0.3,0.5,0.3,0.55,11.46165,21.01303,return,9.120528900064528,,,,,,,,,,,,,,,,,910,,male,left_right_width,2024-10-21_09h39.39.855,exp1,2023.1.0,59.978467719744366,
,,,,,,,,,,,,,,,,3,9.5,10,10.5,0,0,0.5,0.1,0.4,1.4000000000000001,10,initial,36.05,342,361,379,0,0,9,9,9,0,0,,,,,,,1,0,1,0,0,38,38,27,,,,,,,,,,,,num_3,0.5690639000386,num_3,0.45,1.3,0.35000000000000003,0.7,13.37193,26.74385,return,12.00156300002709,,,,,,,,,,,,,,,,,910,,male,left_right_width,2024-10-21_09h39.39.855,exp1,2023.1.0,59.978467719744366,
,,,,,,,,,,,,,,,,4,9.25,9.75,10.25,10.75,0,0.5,0.1,0.4,1.9000000000000001,10,initial,36.05,333,351,370,388,0,9,9,9,9,0,,,,,,,1,0,1,0,0,39,39,11,,,,,,,,,,,,num_4,0.8310883000958711,num_4,0.2,0.7,0.35,0.6,13.37193,22.9233,return,15.369816899998114,,,,,,,,,,,,,,,,,910,,male,left_right_width,2024-10-21_09h39.39.855,exp1,2023.1.0,59.978467719744366,
,,,,,,,,,,,,,,,,5,9,9.5,10,10.5,11,0.5,0.1,0.4,2.4,10,initial,36.05,324,342,361,379,397,9,9,9,9,9,,,,,,,1,0,1,0,0,40,40,53,,,,,,,,,,,,num_5,1.0311583001166582,num_5,0.4,0.6,0.35000000000000003,0.55,13.37193,21.01303,return,3.2606464000418782,,,,,,,,,,,,,,,,,910,,male,left_right_width,2024-10-21_09h39.39.855,exp1,2023.1.0,59.978467719744366,
,,,,,,,,,,,,,,,,4,9.25,9.75,10.25,10.75,0,0.5,0.1,0.4,1.9000000000000001,10,initial,36.05,333,351,370,388,0,9,9,9,9,0,,,,,,,1,0,1,0,0,41,41,43,,,,,,,,,,,,num_3,1.3157939999364316,num_3,0.5,0.7,0.4,0.7,15.2822,26.74385,return,9.880443200003356,,,,,,,,,,,,,,,,,910,,male,left_right_width,2024-10-21_09h39.39.855,exp1,2023.1.0,59.978467719744366,
,,,,,,,,,,,,,,,,3,9.5,10,10.5,0,0,0.5,0.1,0.4,1.4000000000000001,10,initial,36.05,342,361,379,0,0,9,9,9,0,0,,,,,,,1,0,1,0,0,42,42,8,,,,,,,,,,,,num_3,0.8378006999846548,num_3,0.35,1.3,0.25,0.4,9.55138,15.2822,return,5.730439600069076,,,,,,,,,,,,,,,,,910,,male,left_right_width,2024-10-21_09h39.39.855,exp1,2023.1.0,59.978467719744366,
,,,,,,,,,,,,,,,,3,9.5,10,10.5,0,0,0.5,0.1,0.4,1.4000000000000001,10,initial,36.05,342,361,379,0,0,9,9,9,0,0,,,,,,,1,0,1,0,0,43,43,33,,,,,,,,,,,,num_3,0.4849114001262933,num_3,0.55,1.1,0.30000000000000004,0.5,11.46165,19.10275,return,6.699962999904528,,,,,,,,,,,,,,,,,910,,male,left_right_width,2024-10-21_09h39.39.855,exp1,2023.1.0,59.978467719744366,
,,,,,,,,,,,,,,,,4,9.25,9.75,10.25,10.75,0,0.5,0.1,0.4,1.9000000000000001,10,initial,36.05,333,351,370,388,0,9,9,9,9,0,,,,,,,1,0,1,0,0,44,44,12,,,,,,,,,,,,num_4,0.8008745000697672,num_4,0.25,1.0,0.25,0.5,9.55138,19.10275,return,4.896328200120479,,,,,,,,,,,,,,,,,910,,male,left_right_width,2024-10-21_09h39.39.855,exp1,2023.1.0,59.978467719744366,
,,,,,,,,,,,,,,,,5,9,9.5,10,10.5,11,0.5,0.1,0.4,2.4,10,initial,36.05,324,342,361,379,397,9,9,9,9,9,,,,,,,1,0,1,0,0,45,45,21,,,,,,,,,,,,num_5,1.1076357001438737,num_5,0.55,0.9,0.30000000000000004,0.6,11.46165,22.9233,return,4.482618199894205,,,,,,,,,,,,,,,,,910,,male,left_right_width,2024-10-21_09h39.39.855,exp1,2023.1.0,59.978467719744366,
,,,,,,,,,,,,,,,,5,9,9.5,10,10.5,11,0.5,0.1,0.4,2.4,10,initial,36.05,324,342,361,379,397,9,9,9,9,9,,,,,,,1,0,1,0,0,46,46,26,,,,,,,,,,,,num_5,0.6029495000839233,num_5,0.4,1.0,0.30000000000000004,0.5,11.46165,19.10275,return,4.0452379998750985,,,,,,,,,,,,,,,,,910,,male,left_right_width,2024-10-21_09h39.39.855,exp1,2023.1.0,59.978467719744366,
,,,,,,,,,,,,,,,,3,9.5,10,10.5,0,0,0.5,0.1,0.4,1.4000000000000001,10,initial,36.05,342,361,379,0,0,9,9,9,0,0,,,,,,,1,0,1,0,0,47,47,7,,,,,,,,,,,,num_3,0.5183331998996437,num_3,0.35,0.4,0.25,0.5,9.55138,19.10275,return,5.457463899860159,,,,,,,,,,,,,,,,,910,,male,left_right_width,2024-10-21_09h39.39.855,exp1,2023.1.0,59.978467719744366,
,,,,,,,,,,,,,,,,5,9,9.5,10,10.5,11,0.5,0.1,0.4,2.4,10,initial,36.05,324,342,361,379,397,9,9,9,9,9,,,,,,,1,0,1,0,0,48,48,47,,,,,,,,,,,,num_4,0.6494523000437766,num_4,0.4,0.8,0.30000000000000004,0.6,11.46165,22.9233,return,8.299994200002402,,,,,,,,,,,,,,,,,910,,male,left_right_width,2024-10-21_09h39.39.855,exp1,2023.1.0,59.978467719744366,
,,,,,,,,,,,,,,,,4,9.25,9.75,10.25,10.75,0,0.5,0.1,0.4,1.9000000000000001,10,initial,36.05,333,351,370,388,0,9,9,9,9,0,,,,,,,1,0,1,0,0,49,49,10,,,,,,,,,,,,num_3,0.529108899878338,num_3,0.25,0.8,0.39999999999999997,0.55,15.2822,21.01303,return,4.84319379995577,,,,,,,,,,,,,,,,,910,,male,left_right_width,2024-10-21_09h39.39.855,exp1,2023.1.0,59.978467719744366,
,,,,,,,,,,,,,,,,4,9.25,9.75,10.25,10.75,0,0.5,0.1,0.4,1.9000000000000001,10,initial,36.05,333,351,370,388,0,9,9,9,9,0,,,,,,,1,0,1,0,0,50,50,42,,,,,,,,,,,,num_3,0.6043004998937249,num_3,0.55,1.3,0.35000000000000003,0.55,13.37193,21.01303,return,8.434392499970272,,,,,,,,,,,,,,,,,910,,male,left_right_width,2024-10-21_09h39.39.855,exp1,2023.1.0,59.978467719744366,
,,,,,,,,,,,,,,,,5,9,9.5,10,10.5,11,0.5,0.1,0.4,2.4,10,initial,36.05,324,342,361,379,397,9,9,9,9,9,,,,,,,1,0,1,0,0,51,51,22,,,,,,,,,,,,num_4,0.7471143999136984,num_4,0.5,1.3,0.4,0.7,15.2822,26.74385,return,4.811254800064489,,,,,,,,,,,,,,,,,910,,male,left_right_width,2024-10-21_09h39.39.855,exp1,2023.1.0,59.978467719744366,
,,,,,,,,,,,,,,,,4,9.25,9.75,10.25,10.75,0,0.5,0.1,0.4,1.9000000000000001,10,initial,36.05,333,351,370,388,0,9,9,9,9,0,,,,,,,1,0,1,0,0,52,52,38,,,,,,,,,,,,num_3,0.6039107998367399,num_3,0.2,1.1,0.3,0.55,11.46165,21.01303,return,9.26279060007073,,,,,,,,,,,,,,,,,910,,male,left_right_width,2024-10-21_09h39.39.855,exp1,2023.1.0,59.978467719744366,
,,,,,,,,,,,,,,,,3,9.5,10,10.5,0,0,0.5,0.1,0.4,1.4000000000000001,10,initial,36.05,342,361,379,0,0,9,9,9,0,0,,,,,,,1,0,1,0,0,53,53,2,,,,,,,,,,,,num_3,0.48413480003364384,num_3,0.3,0.6,0.3,0.6,11.46165,22.9233,return,8.571164399851114,,,,,,,,,,,,,,,,,910,,male,left_right_width,2024-10-21_09h39.39.855,exp1,2023.1.0,59.978467719744366,
,,,,,,,,,,,,,,,,,,,,,,,,,,,,,,,,,,,,,,,,,,,,,1,0,1,0,,,,,,,,,,,,,,,,,,,,,,,,,,,,,1382.9220855000895,1382.9220855000895,1382.9220855000895,,,,,,,,,,,,910,,male,left_right_width,2024-10-21_09h39.39.855,exp1,2023.1.0,59.978467719744366,
,,,,,,,,,,,,,,,,5,9,9.5,10,10.5,11,0.5,0.25,0.25,2.25,10,initial,36.05,324,342,361,379,397,9,9,9,9,9,,,,,,,2,0,2,0,0,0,0,45,,,,,,,,,,,,num_4,0.7864389999303967,num_4,0.3,0.9,0.25,0.7,9.55138,26.74385,return,4.177466500084847,,,,,,,,,,,,,,,,,910,,male,left_right_width,2024-10-21_09h39.39.855,exp1,2023.1.0,59.978467719744366,
,,,,,,,,,,,,,,,,4,9.25,9.75,10.25,10.75,0,0.5,0.25,0.25,1.75,10,initial,36.05,333,351,370,388,0,9,9,9,9,0,,,,,,,2,0,2,0,0,1,1,40,,,,,,,,,,,,num_3,1.1284272000193596,num_3,0.2,0.4,0.25,0.75,9.55138,28.65413,return,4.2824970001820475,,,,,,,,,,,,,,,,,910,,male,left_right_width,2024-10-21_09h39.39.855,exp1,2023.1.0,59.978467719744366,
,,,,,,,,,,,,,,,,4,9.25,9.75,10.25,10.75,0,0.5,0.25,0.25,1.75,10,initial,36.05,333,351,370,388,0,9,9,9,9,0,,,,,,,2,0,2,0,0,2,2,44,,,,,,,,,,,,num_4,0.9466403999831527,num_4,0.35,0.4,0.2,0.8,7.6411,30.5644,return,6.962974400026724,,,,,,,,,,,,,,,,,910,,male,left_right_width,2024-10-21_09h39.39.855,exp1,2023.1.0,59.978467719744366,
,,,,,,,,,,,,,,,,4,9.25,9.75,10.25,10.75,0,0.5,0.25,0.25,1.75,10,initial,36.05,333,351,370,388,0,9,9,9,9,0,,,,,,,2,0,2,0,0,3,3,42,,,,,,,,,,,,num_3,1.2181905000470579,num_3,0.55,0.6,0.20000000000000007,0.75,7.6411,28.65413,return,6.650002700043842,,,,,,,,,,,,,,,,,910,,male,left_right_width,2024-10-21_09h39.39.855,exp1,2023.1.0,59.978467719744366,
,,,,,,,,,,,,,,,,4,9.25,9.75,10.25,10.75,0,0.5,0.25,0.25,1.75,10,initial,36.05,333,351,370,388,0,9,9,9,9,0,,,,,,,2,0,2,0,0,4,4,36,,,,,,,,,,,,num_4,1.2600281999912113,num_4,0.5,1.0,0.20000000000000007,0.7,7.6411,26.74385,return,3.589472800027579,,,,,,,,,,,,,,,,,910,,male,left_right_width,2024-10-21_09h39.39.855,exp1,2023.1.0,59.978467719744366,
,,,,,,,,,,,,,,,,5,9,9.5,10,10.5,11,0.5,0.25,0.25,2.25,10,initial,36.05,324,342,361,379,397,9,9,9,9,9,,,,,,,2,0,2,0,0,5,5,22,,,,,,,,,,,,num_5,0.7626290000043809,num_5,0.25,0.5,0.15000000000000002,0.55,5.73083,21.01303,return,6.328551799990237,,,,,,,,,,,,,,,,,910,,male,left_right_width,2024-10-21_09h39.39.855,exp1,2023.1.0,59.978467719744366,
,,,,,,,,,,,,,,,,5,9,9.5,10,10.5,11,0.5,0.25,0.25,2.25,10,initial,36.05,324,342,361,379,397,9,9,9,9,9,,,,,,,2,0,2,0,0,6,6,21,,,,,,,,,,,,num_5,0.8009464000351727,num_5,0.3,1.0,0.2,0.65,7.6411,24.83358,return,6.569706999929622,,,,,,,,,,,,,,,,,910,,male,left_right_width,2024-10-21_09h39.39.855,exp1,2023.1.0,59.978467719744366,
,,,,,,,,,,,,,,,,5,9,9.5,10,10.5,11,0.5,0.25,0.25,2.25,10,initial,36.05,324,342,361,379,397,9,9,9,9,9,,,,,,,2,0,2,0,0,7,7,47,,,,,,,,,,,,num_5,0.8631949000991881,num_5,0.2,1.3,0.2,0.6,7.6411,22.9233,return,8.103333899984136,,,,,,,,,,,,,,,,,910,,male,left_right_width,2024-10-21_09h39.39.855,exp1,2023.1.0,59.978467719744366,
,,,,,,,,,,,,,,,,5,9,9.5,10,10.5,11,0.5,0.25,0.25,2.25,10,initial,36.05,324,342,361,379,397,9,9,9,9,9,,,,,,,2,0,2,0,0,8,8,23,,,,,,,,,,,,num_5,0.8247143002226949,num_5,0.2,0.7,0.2,0.65,7.6411,24.83358,return,3.590438599931076,,,,,,,,,,,,,,,,,910,,male,left_right_width,2024-10-21_09h39.39.855,exp1,2023.1.0,59.978467719744366,
,,,,,,,,,,,,,,,,5,9,9.5,10,10.5,11,0.5,0.25,0.25,2.25,10,initial,36.05,324,342,361,379,397,9,9,9,9,9,,,,,,,2,0,2,0,0,9,9,26,,,,,,,,,,,,num_5,0.9675472001545131,num_5,0.35,0.6,0.2,0.55,7.6411,21.01303,return,4.799195599975064,,,,,,,,,,,,,,,,,910,,male,left_right_width,2024-10-21_09h39.39.855,exp1,2023.1.0,59.978467719744366,
,,,,,,,,,,,,,,,,3,9.5,10,10.5,0,0,0.5,0.25,0.25,1.25,10,initial,36.05,342,361,379,0,0,9,9,9,0,0,,,,,,,2,0,2,0,0,10,10,32,,,,,,,,,,,,num_3,0.5318123998586088,num_3,0.5,0.9,0.25000000000000006,0.65,9.55138,24.83358,return,7.084323500050232,,,,,,,,,,,,,,,,,910,,male,left_right_width,2024-10-21_09h39.39.855,exp1,2023.1.0,59.978467719744366,
,,,,,,,,,,,,,,,,5,9,9.5,10,10.5,11,0.5,0.25,0.25,2.25,10,initial,36.05,324,342,361,379,397,9,9,9,9,9,,,,,,,2,0,2,0,0,11,11,19,,,,,,,,,,,,num_5,1.2580844999756664,num_5,0.45,0.6,0.15000000000000008,0.5,5.73083,19.10275,return,7.6336095000151545,,,,,,,,,,,,,,,,,910,,male,left_right_width,2024-10-21_09h39.39.855,exp1,2023.1.0,59.978467719744366,
,,,,,,,,,,,,,,,,3,9.5,10,10.5,0,0,0.5,0.25,0.25,1.25,10,initial,36.05,342,361,379,0,0,9,9,9,0,0,,,,,,,2,0,2,0,0,12,12,33,,,,,,,,,,,,num_3,0.5553858999628574,num_3,0.2,0.4,0.2,0.55,7.6411,21.01303,return,3.3791382000781596,,,,,,,,,,,,,,,,,910,,male,left_right_width,2024-10-21_09h39.39.855,exp1,2023.1.0,59.978467719744366,
,,,,,,,,,,,,,,,,4,9.25,9.75,10.25,10.75,0,0.5,0.25,0.25,1.75,10,initial,36.05,333,351,370,388,0,9,9,9,9,0,,,,,,,2,0,2,0,0,13,13,9,,,,,,,,,,,,num_4,0.9060915000736713,num_4,0.35,0.8,0.2,0.6,7.6411,22.9233,return,6.065010899910703,,,,,,,,,,,,,,,,,910,,male,left_right_width,2024-10-21_09h39.39.855,exp1,2023.1.0,59.978467719744366,
,,,,,,,,,,,,,,,,4,9.25,9.75,10.25,10.75,0,0.5,0.25,0.25,1.75,10,initial,36.05,333,351,370,388,0,9,9,9,9,0,,,,,,,2,0,2,0,0,14,14,37,,,,,,,,,,,,num_3,0.7550524000544101,num_3,0.3,0.8,0.2,0.65,7.6411,24.83358,return,6.435132799902931,,,,,,,,,,,,,,,,,910,,male,left_right_width,2024-10-21_09h39.39.855,exp1,2023.1.0,59.978467719744366,
,,,,,,,,,,,,,,,,3,9.5,10,10.5,0,0,0.5,0.25,0.25,1.25,10,initial,36.05,342,361,379,0,0,9,9,9,0,0,,,,,,,2,0,2,0,0,15,15,1,,,,,,,,,,,,num_3,0.7885821000672877,num_3,0.45,1.2,0.25000000000000006,0.75,9.55138,28.65413,return,7.291496499907225,,,,,,,,,,,,,,,,,910,,male,left_right_width,2024-10-21_09h39.39.855,exp1,2023.1.0,59.978467719744366,
,,,,,,,,,,,,,,,,5,9,9.5,10,10.5,11,0.5,0.25,0.25,2.25,10,initial,36.05,324,342,361,379,397,9,9,9,9,9,,,,,,,2,0,2,0,0,16,16,24,,,,,,,,,,,,num_5,0.6953216001857072,num_5,0.4,1.2,0.25000000000000006,0.6,9.55138,22.9233,return,7.017689100001007,,,,,,,,,,,,,,,,,910,,male,left_right_width,2024-10-21_09h39.39.855,exp1,2023.1.0,59.978467719744366,
,,,,,,,,,,,,,,,,4,9.25,9.75,10.25,10.75,0,0.5,0.25,0.25,1.75,10,initial,36.05,333,351,370,388,0,9,9,9,9,0,,,,,,,2,0,2,0,0,17,17,11,,,,,,,,,,,,num_3,0.9845322000328451,num_3,0.35,1.1,0.25,0.7,9.55138,26.74385,return,9.981036300072446,,,,,,,,,,,,,,,,,910,,male,left_right_width,2024-10-21_09h39.39.855,exp1,2023.1.0,59.978467719744366,
,,,,,,,,,,,,,,,,4,9.25,9.75,10.25,10.75,0,0.5,0.25,0.25,1.75,10,initial,36.05,333,351,370,388,0,9,9,9,9,0,,,,,,,2,0,2,0,0,18,18,10,,,,,,,,,,,,num_4,0.8082363000139594,num_4,0.45,0.8,0.25000000000000006,0.7,9.55138,26.74385,return,5.74508239980787,,,,,,,,,,,,,,,,,910,,male,left_right_width,2024-10-21_09h39.39.855,exp1,2023.1.0,59.978467719744366,
,,,,,,,,,,,,,,,,3,9.5,10,10.5,0,0,0.5,0.25,0.25,1.25,10,initial,36.05,342,361,379,0,0,9,9,9,0,0,,,,,,,2,0,2,0,0,19,19,30,,,,,,,,,,,,num_3,0.6220787998754531,num_3,0.55,0.9,0.25000000000000006,0.65,9.55138,24.83358,return,9.811027699848637,,,,,,,,,,,,,,,,,910,,male,left_right_width,2024-10-21_09h39.39.855,exp1,2023.1.0,59.978467719744366,
,,,,,,,,,,,,,,,,4,9.25,9.75,10.25,10.75,0,0.5,0.25,0.25,1.75,10,initial,36.05,333,351,370,388,0,9,9,9,9,0,,,,,,,2,0,2,0,0,20,20,39,,,,,,,,,,,,num_4,0.8078112998045981,num_4,0.25,1.0,0.25,0.6,9.55138,22.9233,return,5.779797999886796,,,,,,,,,,,,,,,,,910,,male,left_right_width,2024-10-21_09h39.39.855,exp1,2023.1.0,59.978467719744366,
,,,,,,,,,,,,,,,,3,9.5,10,10.5,0,0,0.5,0.25,0.25,1.25,10,initial,36.05,342,361,379,0,0,9,9,9,0,0,,,,,,,2,0,2,0,0,21,21,27,,,,,,,,,,,,num_3,0.5777253000997007,num_3,0.2,1,0.2,0.55,7.6411,21.01303,return,9.525599699933082,,,,,,,,,,,,,,,,,910,,male,left_right_width,2024-10-21_09h39.39.855,exp1,2023.1.0,59.978467719744366,
,,,,,,,,,,,,,,,,3,9.5,10,10.5,0,0,0.5,0.25,0.25,1.25,10,initial,36.05,342,361,379,0,0,9,9,9,0,0,,,,,,,2,0,2,0,0,22,22,5,,,,,,,,,,,,num_3,0.7005058000795543,num_3,0.5,1.1,0.30000000000000004,0.6,11.46165,22.9233,return,6.091966700041667,,,,,,,,,,,,,,,,,910,,male,left_right_width,2024-10-21_09h39.39.855,exp1,2023.1.0,59.978467719744366,
,,,,,,,,,,,,,,,,3,9.5,10,10.5,0,0,0.5,0.25,0.25,1.25,10,initial,36.05,342,361,379,0,0,9,9,9,0,0,,,,,,,2,0,2,0,0,23,23,4,,,,,,,,,,,,num_3,0.45740850013680756,num_3,0.45,1.1,0.25000000000000006,0.6,9.55138,22.9233,return,8.736531999893486,,,,,,,,,,,,,,,,,910,,male,left_right_width,2024-10-21_09h39.39.855,exp1,2023.1.0,59.978467719744366,
,,,,,,,,,,,,,,,,3,9.5,10,10.5,0,0,0.5,0.25,0.25,1.25,10,initial,36.05,342,361,379,0,0,9,9,9,0,0,,,,,,,2,0,2,0,0,24,24,8,,,,,,,,,,,,num_3,0.513753900071606,num_3,0.25,0.8,0.2,0.6,7.6411,22.9233,return,4.08704339992255,,,,,,,,,,,,,,,,,910,,male,left_right_width,2024-10-21_09h39.39.855,exp1,2023.1.0,59.978467719744366,
,,,,,,,,,,,,,,,,4,9.25,9.75,10.25,10.75,0,0.5,0.25,0.25,1.75,10,initial,36.05,333,351,370,388,0,9,9,9,9,0,,,,,,,2,0,2,0,0,25,25,14,,,,,,,,,,,,num_4,0.7959688999690115,num_4,0.35,0.5,0.2,0.6,7.6411,22.9233,return,7.25069750007242,,,,,,,,,,,,,,,,,910,,male,left_right_width,2024-10-21_09h39.39.855,exp1,2023.1.0,59.978467719744366,
,,,,,,,,,,,,,,,,5,9,9.5,10,10.5,11,0.5,0.25,0.25,2.25,10,initial,36.05,324,342,361,379,397,9,9,9,9,9,,,,,,,2,0,2,0,0,26,26,48,,,,,,,,,,,,num_5,0.6935471000615507,num_5,0.2,1.3,0.2,0.75,7.6411,28.65413,return,12.32495060004294,,,,,,,,,,,,,,,,,910,,male,left_right_width,2024-10-21_09h39.39.855,exp1,2023.1.0,59.978467719744366,
,,,,,,,,,,,,,,,,4,9.25,9.75,10.25,10.75,0,0.5,0.25,0.25,1.75,10,initial,36.05,333,351,370,388,0,9,9,9,9,0,,,,,,,2,0,2,0,0,27,27,41,,,,,,,,,,,,num_4,0.7545818998478353,num_4,0.2,0.7,0.2,0.6,7.6411,22.9233,return,2.1111838999204338,,,,,,,,,,,,,,,,,910,,male,left_right_width,2024-10-21_09h39.39.855,exp1,2023.1.0,59.978467719744366,
,,,,,,,,,,,,,,,,4,9.25,9.75,10.25,10.75,0,0.5,0.25,0.25,1.75,10,initial,36.05,333,351,370,388,0,9,9,9,9,0,,,,,,,2,0,2,0,0,28,28,17,,,,,,,,,,,,num_4,0.8083101999945939,num_4,0.5,0.6,0.25000000000000006,0.7,9.55138,26.74385,return,7.264328100020066,,,,,,,,,,,,,,,,,910,,male,left_right_width,2024-10-21_09h39.39.855,exp1,2023.1.0,59.978467719744366,
,,,,,,,,,,,,,,,,4,9.25,9.75,10.25,10.75,0,0.5,0.25,0.25,1.75,10,initial,36.05,333,351,370,388,0,9,9,9,9,0,,,,,,,2,0,2,0,0,29,29,38,,,,,,,,,,,,num_4,1.1015453999862075,num_4,0.45,1.2,0.25000000000000006,0.7,9.55138,26.74385,return,5.338401400018483,,,,,,,,,,,,,,,,,910,,male,left_right_width,2024-10-21_09h39.39.855,exp1,2023.1.0,59.978467719744366,
,,,,,,,,,,,,,,,,3,9.5,10,10.5,0,0,0.5,0.25,0.25,1.25,10,initial,36.05,342,361,379,0,0,9,9,9,0,0,,,,,,,2,0,2,0,0,30,30,6,,,,,,,,,,,,num_3,0.5674540000036359,num_3,0.4,1.3,0.25000000000000006,0.75,9.55138,28.65413,return,7.419295000145212,,,,,,,,,,,,,,,,,910,,male,left_right_width,2024-10-21_09h39.39.855,exp1,2023.1.0,59.978467719744366,
,,,,,,,,,,,,,,,,4,9.25,9.75,10.25,10.75,0,0.5,0.25,0.25,1.75,10,initial,36.05,333,351,370,388,0,9,9,9,9,0,,,,,,,2,0,2,0,0,31,31,12,,,,,,,,,,,,num_4,0.7351365999784321,num_4,0.45,1.1,0.25000000000000006,0.7,9.55138,26.74385,return,9.035716000013053,,,,,,,,,,,,,,,,,910,,male,left_right_width,2024-10-21_09h39.39.855,exp1,2023.1.0,59.978467719744366,
,,,,,,,,,,,,,,,,5,9,9.5,10,10.5,11,0.5,0.25,0.25,2.25,10,initial,36.05,324,342,361,379,397,9,9,9,9,9,,,,,,,2,0,2,0,0,32,32,46,,,,,,,,,,,,num_5,1.65876720007509,num_5,0.35,0.5,0.2,0.55,7.6411,21.01303,return,5.495838199974969,,,,,,,,,,,,,,,,,910,,male,left_right_width,2024-10-21_09h39.39.855,exp1,2023.1.0,59.978467719744366,
,,,,,,,,,,,,,,,,3,9.5,10,10.5,0,0,0.5,0.25,0.25,1.25,10,initial,36.05,342,361,379,0,0,9,9,9,0,0,,,,,,,2,0,2,0,0,33,33,3,,,,,,,,,,,,num_3,0.7471454001497477,num_3,0.45,0.7,0.25000000000000006,0.6,9.55138,22.9233,return,4.106349800014868,,,,,,,,,,,,,,,,,910,,male,left_right_width,2024-10-21_09h39.39.855,exp1,2023.1.0,59.978467719744366,
,,,,,,,,,,,,,,,,4,9.25,9.75,10.25,10.75,0,0.5,0.25,0.25,1.75,10,initial,36.05,333,351,370,388,0,9,9,9,9,0,,,,,,,2,0,2,0,0,34,34,15,,,,,,,,,,,,num_4,0.9145646002143621,num_4,0.5,0.6,0.25000000000000006,0.6,9.55138,22.9233,return,8.139622800052166,,,,,,,,,,,,,,,,,910,,male,left_right_width,2024-10-21_09h39.39.855,exp1,2023.1.0,59.978467719744366,
,,,,,,,,,,,,,,,,4,9.25,9.75,10.25,10.75,0,0.5,0.25,0.25,1.75,10,initial,36.05,333,351,370,388,0,9,9,9,9,0,,,,,,,2,0,2,0,0,35,35,43,,,,,,,,,,,,num_4,0.8937721999827772,num_4,0.25,0.9,0.25,0.7,9.55138,26.74385,return,7.156200400087982,,,,,,,,,,,,,,,,,910,,male,left_right_width,2024-10-21_09h39.39.855,exp1,2023.1.0,59.978467719744366,
,,,,,,,,,,,,,,,,5,9,9.5,10,10.5,11,0.5,0.25,0.25,2.25,10,initial,36.05,324,342,361,379,397,9,9,9,9,9,,,,,,,2,0,2,0,0,36,36,52,,,,,,,,,,,,num_5,0.9258860000409186,num_5,0.55,1.2,0.30000000000000004,0.8,11.46165,30.5644,return,8.647142500150949,,,,,,,,,,,,,,,,,910,,male,left_right_width,2024-10-21_09h39.39.855,exp1,2023.1.0,59.978467719744366,
,,,,,,,,,,,,,,,,5,9,9.5,10,10.5,11,0.5,0.25,0.25,2.25,10,initial,36.05,324,342,361,379,397,9,9,9,9,9,,,,,,,2,0,2,0,0,37,37,51,,,,,,,,,,,,num_5,0.6996198000852019,num_5,0.2,0.6,0.25,0.7,9.55138,26.74385,return,7.837797499960288,,,,,,,,,,,,,,,,,910,,male,left_right_width,2024-10-21_09h39.39.855,exp1,2023.1.0,59.978467719744366,
,,,,,,,,,,,,,,,,5,9,9.5,10,10.5,11,0.5,0.25,0.25,2.25,10,initial,36.05,324,342,361,379,397,9,9,9,9,9,,,,,,,2,0,2,0,0,38,38,49,,,,,,,,,,,,num_5,0.6425142001826316,num_5,0.25,0.3,0.25,0.6,9.55138,22.9233,return,5.747842199867591,,,,,,,,,,,,,,,,,910,,male,left_right_width,2024-10-21_09h39.39.855,exp1,2023.1.0,59.978467719744366,
,,,,,,,,,,,,,,,,3,9.5,10,10.5,0,0,0.5,0.25,0.25,1.25,10,initial,36.05,342,361,379,0,0,9,9,9,0,0,,,,,,,2,0,2,0,0,39,39,28,,,,,,,,,,,,num_3,0.7086906998883933,num_3,0.3,0.5,0.25,0.6,9.55138,22.9233,return,8.371106599923223,,,,,,,,,,,,,,,,,910,,male,left_right_width,2024-10-21_09h39.39.855,exp1,2023.1.0,59.978467719744366,
,,,,,,,,,,,,,,,,3,9.5,10,10.5,0,0,0.5,0.25,0.25,1.25,10,initial,36.05,342,361,379,0,0,9,9,9,0,0,,,,,,,2,0,2,0,0,40,40,7,,,,,,,,,,,,num_3,1.0135181001387537,num_3,0.3,0.9,0.25,0.6,9.55138,22.9233,return,6.837817899882793,,,,,,,,,,,,,,,,,910,,male,left_right_width,2024-10-21_09h39.39.855,exp1,2023.1.0,59.978467719744366,
,,,,,,,,,,,,,,,,4,9.25,9.75,10.25,10.75,0,0.5,0.25,0.25,1.75,10,initial,36.05,333,351,370,388,0,9,9,9,9,0,,,,,,,2,0,2,0,0,41,41,13,,,,,,,,,,,,num_3,1.4347639000043273,num_3,0.4,0.7,0.25000000000000006,0.7,9.55138,26.74385,return,7.896712800022215,,,,,,,,,,,,,,,,,910,,male,left_right_width,2024-10-21_09h39.39.855,exp1,2023.1.0,59.978467719744366,
,,,,,,,,,,,,,,,,3,9.5,10,10.5,0,0,0.5,0.25,0.25,1.25,10,initial,36.05,342,361,379,0,0,9,9,9,0,0,,,,,,,2,0,2,0,0,42,42,31,,,,,,,,,,,,num_3,0.6132501000538468,num_3,0.35,0.5,0.2,0.6,7.6411,22.9233,return,4.2810186999849975,,,,,,,,,,,,,,,,,910,,male,left_right_width,2024-10-21_09h39.39.855,exp1,2023.1.0,59.978467719744366,
,,,,,,,,,,,,,,,,3,9.5,10,10.5,0,0,0.5,0.25,0.25,1.25,10,initial,36.05,342,361,379,0,0,9,9,9,0,0,,,,,,,2,0,2,0,0,43,43,29,,,,,,,,,,,,num_3,1.1405213000252843,num_3,0.4,1.3,0.20000000000000007,0.6,7.6411,22.9233,return,9.102522400207818,,,,,,,,,,,,,,,,,910,,male,left_right_width,2024-10-21_09h39.39.855,exp1,2023.1.0,59.978467719744366,
,,,,,,,,,,,,,,,,3,9.5,10,10.5,0,0,0.5,0.25,0.25,1.25,10,initial,36.05,342,361,379,0,0,9,9,9,0,0,,,,,,,2,0,2,0,0,44,44,2,,,,,,,,,,,,num_3,0.5853484000544995,num_3,0.5,0.6,0.20000000000000007,0.5,7.6411,19.10275,return,5.987748199841008,,,,,,,,,,,,,,,,,910,,male,left_right_width,2024-10-21_09h39.39.855,exp1,2023.1.0,59.978467719744366,
,,,,,,,,,,,,,,,,5,9,9.5,10,10.5,11,0.5,0.25,0.25,2.25,10,initial,36.05,324,342,361,379,397,9,9,9,9,9,,,,,,,2,0,2,0,0,45,45,20,,,,,,,,,,,,num_5,0.8367611002177,num_5,0.2,0.8,0.2,0.6,7.6411,22.9233,return,5.006416199961677,,,,,,,,,,,,,,,,,910,,male,left_right_width,2024-10-21_09h39.39.855,exp1,2023.1.0,59.978467719744366,
,,,,,,,,,,,,,,,,3,9.5,10,10.5,0,0,0.5,0.25,0.25,1.25,10,initial,36.05,342,361,379,0,0,9,9,9,0,0,,,,,,,2,0,2,0,0,46,46,35,,,,,,,,,,,,num_3,0.5559320000465959,num_3,0.35,0.7,0.25,0.5,9.55138,19.10275,return,6.90171859995462,,,,,,,,,,,,,,,,,910,,male,left_right_width,2024-10-21_09h39.39.855,exp1,2023.1.0,59.978467719744366,
,,,,,,,,,,,,,,,,5,9,9.5,10,10.5,11,0.5,0.25,0.25,2.25,10,initial,36.05,324,342,361,379,397,9,9,9,9,9,,,,,,,2,0,2,0,0,47,47,53,,,,,,,,,,,,num_5,0.6071052001789212,num_5,0.2,0.7,0.25,0.5,9.55138,19.10275,return,6.053173700114712,,,,,,,,,,,,,,,,,910,,male,left_right_width,2024-10-21_09h39.39.855,exp1,2023.1.0,59.978467719744366,
,,,,,,,,,,,,,,,,5,9,9.5,10,10.5,11,0.5,0.25,0.25,2.25,10,initial,36.05,324,342,361,379,397,9,9,9,9,9,,,,,,,2,0,2,0,0,48,48,25,,,,,,,,,,,,num_5,0.8914550000336021,num_5,0.25,1.2,0.25,0.65,9.55138,24.83358,return,4.323151200078428,,,,,,,,,,,,,,,,,910,,male,left_right_width,2024-10-21_09h39.39.855,exp1,2023.1.0,59.978467719744366,
,,,,,,,,,,,,,,,,3,9.5,10,10.5,0,0,0.5,0.25,0.25,1.25,10,initial,36.05,342,361,379,0,0,9,9,9,0,0,,,,,,,2,0,2,0,0,49,49,34,,,,,,,,,,,,num_3,0.6420527000445873,num_3,0.55,1.2,0.25000000000000006,0.8,9.55138,30.5644,return,9.079501200001687,,,,,,,,,,,,,,,,,910,,male,left_right_width,2024-10-21_09h39.39.855,exp1,2023.1.0,59.978467719744366,
,,,,,,,,,,,,,,,,5,9,9.5,10,10.5,11,0.5,0.25,0.25,2.25,10,initial,36.05,324,342,361,379,397,9,9,9,9,9,,,,,,,2,0,2,0,0,50,50,50,,,,,,,,,,,,num_4,0.7816274999640882,num_4,0.3,1.0,0.25,0.7,9.55138,26.74385,return,6.747581399977207,,,,,,,,,,,,,,,,,910,,male,left_right_width,2024-10-21_09h39.39.855,exp1,2023.1.0,59.978467719744366,
,,,,,,,,,,,,,,,,4,9.25,9.75,10.25,10.75,0,0.5,0.25,0.25,1.75,10,initial,36.05,333,351,370,388,0,9,9,9,9,0,,,,,,,2,0,2,0,0,51,51,16,,,,,,,,,,,,num_4,1.5650283000431955,num_4,0.3,0.4,0.25,0.7,9.55138,26.74385,return,7.001093200175092,,,,,,,,,,,,,,,,,910,,male,left_right_width,2024-10-21_09h39.39.855,exp1,2023.1.0,59.978467719744366,
,,,,,,,,,,,,,,,,5,9,9.5,10,10.5,11,0.5,0.25,0.25,2.25,10,initial,36.05,324,342,361,379,397,9,9,9,9,9,,,,,,,2,0,2,0,0,52,52,18,,,,,,,,,,,,num_5,0.7762374000158161,num_5,0.45,0.6,0.20000000000000007,0.65,7.6411,24.83358,return,5.623934299917892,,,,,,,,,,,,,,,,,910,,male,left_right_width,2024-10-21_09h39.39.855,exp1,2023.1.0,59.978467719744366,
,,,,,,,,,,,,,,,,3,9.5,10,10.5,0,0,0.5,0.25,0.25,1.25,10,initial,36.05,342,361,379,0,0,9,9,9,0,0,,,,,,,2,0,2,0,0,53,53,0,,,,,,,,,,,,num_3,0.9835822999011725,num_3,0.25,0.7,0.2,0.6,7.6411,22.9233,return,7.950639700051397,,,,,,,,,,,,,,,,,910,,male,left_right_width,2024-10-21_09h39.39.855,exp1,2023.1.0,59.978467719744366,
,,,,,,,,,,,,,,,,,,,,,,,,,,,,,,,,,,,,,,,,,,,,,2,0,2,0,,,,,,,,,,,,,,,,,,,,,,,,,,,,,1921.4708604000043,1921.4708604000043,1921.4708604000043,,,,,,,,,,,,910,,male,left_right_width,2024-10-21_09h39.39.855,exp1,2023.1.0,59.978467719744366,
,,,,,,,,,,,,,,,,3,9.1,10,10.9,0,0,0.9,0.35,0.55,2.35,10,initial,36.05,328,361,393,0,0,9,9,9,0,0,,,,,,,3,0,3,0,0,0,0,29,,,,,,,,,,,,num_3,1.6693055001087487,num_3,0.3,0.5,0.44999999999999996,1.05,17.19248,40.11578,return,6.045136000029743,,,,,,,,,,,,,,,,,910,,male,left_right_width,2024-10-21_09h39.39.855,exp1,2023.1.0,59.978467719744366,
,,,,,,,,,,,,,,,,4,8.65,9.55,10.45,11.35,0,0.9,0.35,0.55,3.25,10,initial,36.05,312,344,377,409,0,9,9,9,9,0,,,,,,,3,0,3,0,0,1,1,11,,,,,,,,,,,,num_4,0.9579954000655562,num_4,0.25,0.6,0.39999999999999997,1.0,15.2822,38.2055,return,3.6023525001946837,,,,,,,,,,,,,,,,,910,,male,left_right_width,2024-10-21_09h39.39.855,exp1,2023.1.0,59.978467719744366,
,,,,,,,,,,,,,,,,3,9.1,10,10.9,0,0,0.9,0.35,0.55,2.35,10,initial,36.05,328,361,393,0,0,9,9,9,0,0,,,,,,,3,0,3,0,0,2,2,35,,,,,,,,,,,,num_3,0.8343595000915229,num_3,0.3,1,0.49999999999999994,1.2,19.10275,45.8466,return,4.272905400022864,,,,,,,,,,,,,,,,,910,,male,left_right_width,2024-10-21_09h39.39.855,exp1,2023.1.0,59.978467719744366,
,,,,,,,,,,,,,,,,4,8.65,9.55,10.45,11.35,0,0.9,0.35,0.55,3.25,10,initial,36.05,312,344,377,409,0,9,9,9,9,0,,,,,,,3,0,3,0,0,3,3,10,,,,,,,,,,,,num_4,0.9424155000597239,num_4,0.3,0.9,0.49999999999999994,1.2,19.10275,45.8466,return,4.627930799964815,,,,,,,,,,,,,,,,,910,,male,left_right_width,2024-10-21_09h39.39.855,exp1,2023.1.0,59.978467719744366,
,,,,,,,,,,,,,,,,3,9.1,10,10.9,0,0,0.9,0.35,0.55,2.35,10,initial,36.05,328,361,393,0,0,9,9,9,0,0,,,,,,,3,0,3,0,0,4,4,0,,,,,,,,,,,,num_3,0.5296832001768053,num_3,0.5,1,0.5,1.15,19.10275,43.93633,return,1.9901091000065207,,,,,,,,,,,,,,,,,910,,male,left_right_width,2024-10-21_09h39.39.855,exp1,2023.1.0,59.978467719744366,
,,,,,,,,,,,,,,,,4,8.65,9.55,10.45,11.35,0,0.9,0.35,0.55,3.25,10,initial,36.05,312,344,377,409,0,9,9,9,9,0,,,,,,,3,0,3,0,0,5,5,43,,,,,,,,,,,,num_4,0.7829722999595106,num_4,0.55,0.6,0.55,1.2,21.01303,45.8466,return,5.3535736000631005,,,,,,,,,,,,,,,,,910,,male,left_right_width,2024-10-21_09h39.39.855,exp1,2023.1.0,59.978467719744366,
,,,,,,,,,,,,,,,,5,8.2,9.1,10,10.9,11.8,0.9,0.35,0.55,4.15,10,initial,36.05,296,328,361,393,425,9,9,9,9,9,,,,,,,3,0,3,0,0,6,6,51,,,,,,,,,,,,num_5,0.7404588002245873,num_5,0.45,1.3,0.55,1.35,21.01303,51.57743,return,6.627306000096723,,,,,,,,,,,,,,,,,910,,male,left_right_width,2024-10-21_09h39.39.855,exp1,2023.1.0,59.978467719744366,
,,,,,,,,,,,,,,,,3,9.1,10,10.9,0,0,0.9,0.35,0.55,2.35,10,initial,36.05,328,361,393,0,0,9,9,9,0,0,,,,,,,3,0,3,0,0,7,7,28,,,,,,,,,,,,num_3,0.4747794000431895,num_3,0.25,0.5,0.44999999999999996,1.0,17.19248,38.2055,return,6.935012200148776,,,,,,,,,,,,,,,,,910,,male,left_right_width,2024-10-21_09h39.39.855,exp1,2023.1.0,59.978467719744366,
,,,,,,,,,,,,,,,,3,9.1,10,10.9,0,0,0.9,0.35,0.55,2.35,10,initial,36.05,328,361,393,0,0,9,9,9,0,0,,,,,,,3,0,3,0,0,8,8,31,,,,,,,,,,,,num_3,0.49926429986953735,num_3,0.5,0.8,0.5,1.05,19.10275,40.11578,return,6.344252899987623,,,,,,,,,,,,,,,,,910,,male,left_right_width,2024-10-21_09h39.39.855,exp1,2023.1.0,59.978467719744366,
,,,,,,,,,,,,,,,,5,8.2,9.1,10,10.9,11.8,0.9,0.35,0.55,4.15,10,initial,36.05,296,328,361,393,425,9,9,9,9,9,,,,,,,3,0,3,0,0,9,9,21,,,,,,,,,,,,num_4,0.8393896000925452,num_4,0.5,0.7,0.5,1.2,19.10275,45.8466,return,4.5293859001249075,,,,,,,,,,,,,,,,,910,,male,left_right_width,2024-10-21_09h39.39.855,exp1,2023.1.0,59.978467719744366,
,,,,,,,,,,,,,,,,5,8.2,9.1,10,10.9,11.8,0.9,0.35,0.55,4.15,10,initial,36.05,296,328,361,393,425,9,9,9,9,9,,,,,,,3,0,3,0,0,10,10,47,,,,,,,,,,,,num_5,0.6731689998414367,num_5,0.35,1.0,0.44999999999999996,1.1,17.19248,42.02605,return,6.446147600188851,,,,,,,,,,,,,,,,,910,,male,left_right_width,2024-10-21_09h39.39.855,exp1,2023.1.0,59.978467719744366,
,,,,,,,,,,,,,,,,5,8.2,9.1,10,10.9,11.8,0.9,0.35,0.55,4.15,10,initial,36.05,296,328,361,393,425,9,9,9,9,9,,,,,,,3,0,3,0,0,11,11,49,,,,,,,,,,,,num_5,0.8322318999562413,num_5,0.35,0.7,0.44999999999999996,1.05,17.19248,40.11578,return,4.794558299938217,,,,,,,,,,,,,,,,,910,,male,left_right_width,2024-10-21_09h39.39.855,exp1,2023.1.0,59.978467719744366,
,,,,,,,,,,,,,,,,5,8.2,9.1,10,10.9,11.8,0.9,0.35,0.55,4.15,10,initial,36.05,296,328,361,393,425,9,9,9,9,9,,,,,,,3,0,3,0,0,12,12,50,,,,,,,,,,,,num_5,0.7531691000331193,num_5,0.2,0.8,0.39999999999999997,1.1,15.2822,42.02605,return,5.469792700139806,,,,,,,,,,,,,,,,,910,,male,left_right_width,2024-10-21_09h39.39.855,exp1,2023.1.0,59.978467719744366,
,,,,,,,,,,,,,,,,4,8.65,9.55,10.45,11.35,0,0.9,0.35,0.55,3.25,10,initial,36.05,312,344,377,409,0,9,9,9,9,0,,,,,,,3,0,3,0,0,13,13,37,,,,,,,,,,,,num_4,0.6658877998124808,num_4,0.25,0.6,0.44999999999999996,1.1,17.19248,42.02605,return,7.502086200052872,,,,,,,,,,,,,,,,,910,,male,left_right_width,2024-10-21_09h39.39.855,exp1,2023.1.0,59.978467719744366,
,,,,,,,,,,,,,,,,5,8.2,9.1,10,10.9,11.8,0.9,0.35,0.55,4.15,10,initial,36.05,296,328,361,393,425,9,9,9,9,9,,,,,,,3,0,3,0,0,14,14,46,,,,,,,,,,,,num_5,0.5874325002077967,num_5,0.55,1.2,0.55,1.3,21.01303,49.66716,return,5.902234400156885,,,,,,,,,,,,,,,,,910,,male,left_right_width,2024-10-21_09h39.39.855,exp1,2023.1.0,59.978467719744366,
,,,,,,,,,,,,,,,,4,8.65,9.55,10.45,11.35,0,0.9,0.35,0.55,3.25,10,initial,36.05,312,344,377,409,0,9,9,9,9,0,,,,,,,3,0,3,0,0,15,15,42,,,,,,,,,,,,num_4,0.8452835001517087,num_4,0.55,0.9,0.55,1.2,21.01303,45.8466,return,4.39340030006133,,,,,,,,,,,,,,,,,910,,male,left_right_width,2024-10-21_09h39.39.855,exp1,2023.1.0,59.978467719744366,
,,,,,,,,,,,,,,,,4,8.65,9.55,10.45,11.35,0,0.9,0.35,0.55,3.25,10,initial,36.05,312,344,377,409,0,9,9,9,9,0,,,,,,,3,0,3,0,0,16,16,40,,,,,,,,,,,,num_4,0.963137699989602,num_4,0.45,0.8,0.55,1.3,21.01303,49.66716,return,6.19898259988986,,,,,,,,,,,,,,,,,910,,male,left_right_width,2024-10-21_09h39.39.855,exp1,2023.1.0,59.978467719744366,
,,,,,,,,,,,,,,,,3,9.1,10,10.9,0,0,0.9,0.35,0.55,2.35,10,initial,36.05,328,361,393,0,0,9,9,9,0,0,,,,,,,3,0,3,0,0,17,17,8,,,,,,,,,,,,num_3,0.608635799959302,num_3,0.2,0.4,0.39999999999999997,0.8,15.2822,30.5644,return,4.609920799965039,,,,,,,,,,,,,,,,,910,,male,left_right_width,2024-10-21_09h39.39.855,exp1,2023.1.0,59.978467719744366,
,,,,,,,,,,,,,,,,5,8.2,9.1,10,10.9,11.8,0.9,0.35,0.55,4.15,10,initial,36.05,296,328,361,393,425,9,9,9,9,9,,,,,,,3,0,3,0,0,18,18,48,,,,,,,,,,,,num_4,0.7419753998983651,num_4,0.3,0.8,0.49999999999999994,1.1,19.10275,42.02605,return,4.802572499960661,,,,,,,,,,,,,,,,,910,,male,left_right_width,2024-10-21_09h39.39.855,exp1,2023.1.0,59.978467719744366,
,,,,,,,,,,,,,,,,5,8.2,9.1,10,10.9,11.8,0.9,0.35,0.55,4.15,10,initial,36.05,296,328,361,393,425,9,9,9,9,9,,,,,,,3,0,3,0,0,19,19,22,,,,,,,,,,,,num_5,1.3415139000862837,num_5,0.45,1.1,0.5,1.2,19.10275,45.8466,return,10.72293210006319,,,,,,,,,,,,,,,,,910,,male,left_right_width,2024-10-21_09h39.39.855,exp1,2023.1.0,59.978467719744366,
,,,,,,,,,,,,,,,,5,8.2,9.1,10,10.9,11.8,0.9,0.35,0.55,4.15,10,initial,36.05,296,328,361,393,425,9,9,9,9,9,,,,,,,3,0,3,0,0,20,20,45,,,,,,,,,,,,num_5,0.9182972998823971,num_5,0.25,0.8,0.44999999999999996,0.95,17.19248,36.29523,return,8.986737499944866,,,,,,,,,,,,,,,,,910,,male,left_right_width,2024-10-21_09h39.39.855,exp1,2023.1.0,59.978467719744366,
,,,,,,,,,,,,,,,,5,8.2,9.1,10,10.9,11.8,0.9,0.35,0.55,4.15,10,initial,36.05,296,328,361,393,425,9,9,9,9,9,,,,,,,3,0,3,0,0,21,21,24,,,,,,,,,,,,num_4,1.2926518998574466,num_4,0.45,0.6,0.5,1.2,19.10275,45.8466,return,7.6491859999950975,,,,,,,,,,,,,,,,,910,,male,left_right_width,2024-10-21_09h39.39.855,exp1,2023.1.0,59.978467719744366,
,,,,,,,,,,,,,,,,5,8.2,9.1,10,10.9,11.8,0.9,0.35,0.55,4.15,10,initial,36.05,296,328,361,393,425,9,9,9,9,9,,,,,,,3,0,3,0,0,22,22,18,,,,,,,,,,,,num_4,0.9560827000532299,num_4,0.55,1.1,0.55,1.3,21.01303,49.66716,return,6.08190290001221,,,,,,,,,,,,,,,,,910,,male,left_right_width,2024-10-21_09h39.39.855,exp1,2023.1.0,59.978467719744366,
,,,,,,,,,,,,,,,,4,8.65,9.55,10.45,11.35,0,0.9,0.35,0.55,3.25,10,initial,36.05,312,344,377,409,0,9,9,9,9,0,,,,,,,3,0,3,0,0,23,23,44,,,,,,,,,,,,num_3,1.0342574999667704,num_3,0.2,1.1,0.6,1.2,22.9233,45.8466,return,10.216976399999112,,,,,,,,,,,,,,,,,910,,male,left_right_width,2024-10-21_09h39.39.855,exp1,2023.1.0,59.978467719744366,
,,,,,,,,,,,,,,,,3,9.1,10,10.9,0,0,0.9,0.35,0.55,2.35,10,initial,36.05,328,361,393,0,0,9,9,9,0,0,,,,,,,3,0,3,0,0,24,24,2,,,,,,,,,,,,num_3,0.5541402001399547,num_3,0.2,0.7,0.44999999999999996,0.95,17.19248,36.29523,return,5.357067600125447,,,,,,,,,,,,,,,,,910,,male,left_right_width,2024-10-21_09h39.39.855,exp1,2023.1.0,59.978467719744366,
,,,,,,,,,,,,,,,,5,8.2,9.1,10,10.9,11.8,0.9,0.35,0.55,4.15,10,initial,36.05,296,328,361,393,425,9,9,9,9,9,,,,,,,3,0,3,0,0,25,25,20,,,,,,,,,,,,num_4,1.0327431000769138,num_4,0.4,1.2,0.55,1.1,21.01303,42.02605,return,7.517581100109965,,,,,,,,,,,,,,,,,910,,male,left_right_width,2024-10-21_09h39.39.855,exp1,2023.1.0,59.978467719744366,
,,,,,,,,,,,,,,,,4,8.65,9.55,10.45,11.35,0,0.9,0.35,0.55,3.25,10,initial,36.05,312,344,377,409,0,9,9,9,9,0,,,,,,,3,0,3,0,0,26,26,39,,,,,,,,,,,,num_3,0.651241899933666,num_3,0.2,0.8,0.49999999999999994,0.95,19.10275,36.29523,return,6.653326499974355,,,,,,,,,,,,,,,,,910,,male,left_right_width,2024-10-21_09h39.39.855,exp1,2023.1.0,59.978467719744366,
,,,,,,,,,,,,,,,,3,9.1,10,10.9,0,0,0.9,0.35,0.55,2.35,10,initial,36.05,328,361,393,0,0,9,9,9,0,0,,,,,,,3,0,3,0,0,27,27,6,,,,,,,,,,,,num_3,0.42928699986077845,num_3,0.4,0.8,0.45,1.0,17.19248,38.2055,return,5.564160399837419,,,,,,,,,,,,,,,,,910,,male,left_right_width,2024-10-21_09h39.39.855,exp1,2023.1.0,59.978467719744366,
,,,,,,,,,,,,,,,,3,9.1,10,10.9,0,0,0.9,0.35,0.55,2.35,10,initial,36.05,328,361,393,0,0,9,9,9,0,0,,,,,,,3,0,3,0,0,28,28,7,,,,,,,,,,,,num_3,0.5606454000808299,num_3,0.35,0.4,0.49999999999999994,0.95,19.10275,36.29523,return,11.07994950003922,,,,,,,,,,,,,,,,,910,,male,left_right_width,2024-10-21_09h39.39.855,exp1,2023.1.0,59.978467719744366,
,,,,,,,,,,,,,,,,4,8.65,9.55,10.45,11.35,0,0.9,0.35,0.55,3.25,10,initial,36.05,312,344,377,409,0,9,9,9,9,0,,,,,,,3,0,3,0,0,29,29,17,,,,,,,,,,,,num_4,0.8649527998641133,num_4,0.5,0.8,0.5,0.9,19.10275,34.38495,return,2.874209700152278,,,,,,,,,,,,,,,,,910,,male,left_right_width,2024-10-21_09h39.39.855,exp1,2023.1.0,59.978467719744366,
,,,,,,,,,,,,,,,,4,8.65,9.55,10.45,11.35,0,0.9,0.35,0.55,3.25,10,initial,36.05,312,344,377,409,0,9,9,9,9,0,,,,,,,3,0,3,0,0,30,30,38,,,,,,,,,,,,num_4,0.8281422001309693,num_4,0.45,1.1,0.45,1.1,17.19248,42.02605,return,4.297403699951246,,,,,,,,,,,,,,,,,910,,male,left_right_width,2024-10-21_09h39.39.855,exp1,2023.1.0,59.978467719744366,
,,,,,,,,,,,,,,,,4,8.65,9.55,10.45,11.35,0,0.9,0.35,0.55,3.25,10,initial,36.05,312,344,377,409,0,9,9,9,9,0,,,,,,,3,0,3,0,0,31,31,36,,,,,,,,,,,,num_4,0.849081699969247,num_4,0.2,0.6,0.44999999999999996,0.9,17.19248,34.38495,return,7.837612499948591,,,,,,,,,,,,,,,,,910,,male,left_right_width,2024-10-21_09h39.39.855,exp1,2023.1.0,59.978467719744366,
,,,,,,,,,,,,,,,,4,8.65,9.55,10.45,11.35,0,0.9,0.35,0.55,3.25,10,initial,36.05,312,344,377,409,0,9,9,9,9,0,,,,,,,3,0,3,0,0,32,32,9,,,,,,,,,,,,num_4,0.7726418001111597,num_4,0.35,0.4,0.39999999999999997,0.8,15.2822,30.5644,return,4.2285477998666465,,,,,,,,,,,,,,,,,910,,male,left_right_width,2024-10-21_09h39.39.855,exp1,2023.1.0,59.978467719744366,
,,,,,,,,,,,,,,,,3,9.1,10,10.9,0,0,0.9,0.35,0.55,2.35,10,initial,36.05,328,361,393,0,0,9,9,9,0,0,,,,,,,3,0,3,0,0,33,33,32,,,,,,,,,,,,num_3,0.5592177999205887,num_3,0.55,0.9,0.55,0.9,21.01303,34.38495,return,1.3630711000878364,,,,,,,,,,,,,,,,,910,,male,left_right_width,2024-10-21_09h39.39.855,exp1,2023.1.0,59.978467719744366,
,,,,,,,,,,,,,,,,3,9.1,10,10.9,0,0,0.9,0.35,0.55,2.35,10,initial,36.05,328,361,393,0,0,9,9,9,0,0,,,,,,,3,0,3,0,0,34,34,3,,,,,,,,,,,,num_3,1.3306446000933647,num_3,0.45,0.6,0.45,0.8,17.19248,30.5644,return,2.45984400017187,,,,,,,,,,,,,,,,,910,,male,left_right_width,2024-10-21_09h39.39.855,exp1,2023.1.0,59.978467719744366,
,,,,,,,,,,,,,,,,3,9.1,10,10.9,0,0,0.9,0.35,0.55,2.35,10,initial,36.05,328,361,393,0,0,9,9,9,0,0,,,,,,,3,0,3,0,0,35,35,30,,,,,,,,,,,,num_3,0.47131829988211393,num_3,0.25,0.6,0.44999999999999996,0.75,17.19248,28.65413,return,11.342778700171039,,,,,,,,,,,,,,,,,910,,male,left_right_width,2024-10-21_09h39.39.855,exp1,2023.1.0,59.978467719744366,
,,,,,,,,,,,,,,,,5,8.2,9.1,10,10.9,11.8,0.9,0.35,0.55,4.15,10,initial,36.05,296,328,361,393,425,9,9,9,9,9,,,,,,,3,0,3,0,0,36,36,53,,,,,,,,,,,,num_5,0.9269087999127805,num_5,0.45,1.3,0.45,1.0,17.19248,38.2055,return,8.008267699973658,,,,,,,,,,,,,,,,,910,,male,left_right_width,2024-10-21_09h39.39.855,exp1,2023.1.0,59.978467719744366,
,,,,,,,,,,,,,,,,3,9.1,10,10.9,0,0,0.9,0.35,0.55,2.35,10,initial,36.05,328,361,393,0,0,9,9,9,0,0,,,,,,,3,0,3,0,0,37,37,27,,,,,,,,,,,,num_3,0.6866112998686731,num_3,0.25,1,0.44999999999999996,0.9,17.19248,34.38495,return,8.721942300209776,,,,,,,,,,,,,,,,,910,,male,left_right_width,2024-10-21_09h39.39.855,exp1,2023.1.0,59.978467719744366,
,,,,,,,,,,,,,,,,5,8.2,9.1,10,10.9,11.8,0.9,0.35,0.55,4.15,10,initial,36.05,296,328,361,393,425,9,9,9,9,9,,,,,,,3,0,3,0,0,38,38,19,,,,,,,,,,,,num_5,0.7290024999529123,num_5,0.45,0.6,0.4,0.85,15.2822,32.47468,return,6.434484199853614,,,,,,,,,,,,,,,,,910,,male,left_right_width,2024-10-21_09h39.39.855,exp1,2023.1.0,59.978467719744366,
,,,,,,,,,,,,,,,,3,9.1,10,10.9,0,0,0.9,0.35,0.55,2.35,10,initial,36.05,328,361,393,0,0,9,9,9,0,0,,,,,,,3,0,3,0,0,39,39,34,,,,,,,,,,,,num_3,0.5346951000392437,num_3,0.5,1.1,0.45,0.95,17.19248,36.29523,return,3.8394597999285907,,,,,,,,,,,,,,,,,910,,male,left_right_width,2024-10-21_09h39.39.855,exp1,2023.1.0,59.978467719744366,
,,,,,,,,,,,,,,,,4,8.65,9.55,10.45,11.35,0,0.9,0.35,0.55,3.25,10,initial,36.05,312,344,377,409,0,9,9,9,9,0,,,,,,,3,0,3,0,0,40,40,14,,,,,,,,,,,,num_4,0.8513710000552237,num_4,0.2,1.1,0.39999999999999997,0.9,15.2822,34.38495,return,4.622852300060913,,,,,,,,,,,,,,,,,910,,male,left_right_width,2024-10-21_09h39.39.855,exp1,2023.1.0,59.978467719744366,
,,,,,,,,,,,,,,,,3,9.1,10,10.9,0,0,0.9,0.35,0.55,2.35,10,initial,36.05,328,361,393,0,0,9,9,9,0,0,,,,,,,3,0,3,0,0,41,41,4,,,,,,,,,,,,num_3,0.408922899980098,num_3,0.35,0.4,0.44999999999999996,0.8,17.19248,30.5644,return,5.86369390017353,,,,,,,,,,,,,,,,,910,,male,left_right_width,2024-10-21_09h39.39.855,exp1,2023.1.0,59.978467719744366,
,,,,,,,,,,,,,,,,5,8.2,9.1,10,10.9,11.8,0.9,0.35,0.55,4.15,10,initial,36.05,296,328,361,393,425,9,9,9,9,9,,,,,,,3,0,3,0,0,42,42,52,,,,,,,,,,,,num_4,1.578753599897027,num_4,0.4,1.3,0.4,1.0,15.2822,38.2055,return,4.96742370002903,,,,,,,,,,,,,,,,,910,,male,left_right_width,2024-10-21_09h39.39.855,exp1,2023.1.0,59.978467719744366,
,,,,,,,,,,,,,,,,4,8.65,9.55,10.45,11.35,0,0.9,0.35,0.55,3.25,10,initial,36.05,312,344,377,409,0,9,9,9,9,0,,,,,,,3,0,3,0,0,43,43,41,,,,,,,,,,,,num_4,1.3967858001124114,num_4,0.55,0.7,0.5,0.9,19.10275,34.38495,return,3.739871900063008,,,,,,,,,,,,,,,,,910,,male,left_right_width,2024-10-21_09h39.39.855,exp1,2023.1.0,59.978467719744366,
,,,,,,,,,,,,,,,,4,8.65,9.55,10.45,11.35,0,0.9,0.35,0.55,3.25,10,initial,36.05,312,344,377,409,0,9,9,9,9,0,,,,,,,3,0,3,0,0,44,44,12,,,,,,,,,,,,num_4,0.648754799971357,num_4,0.45,0.7,0.4,1.0,15.2822,38.2055,return,6.347363600041717,,,,,,,,,,,,,,,,,910,,male,left_right_width,2024-10-21_09h39.39.855,exp1,2023.1.0,59.978467719744366,
,,,,,,,,,,,,,,,,3,9.1,10,10.9,0,0,0.9,0.35,0.55,2.35,10,initial,36.05,328,361,393,0,0,9,9,9,0,0,,,,,,,3,0,3,0,0,45,45,1,,,,,,,,,,,,num_3,0.5584106999449432,num_3,0.4,1.3,0.5,0.9,19.10275,34.38495,return,4.705476599978283,,,,,,,,,,,,,,,,,910,,male,left_right_width,2024-10-21_09h39.39.855,exp1,2023.1.0,59.978467719744366,
,,,,,,,,,,,,,,,,5,8.2,9.1,10,10.9,11.8,0.9,0.35,0.55,4.15,10,initial,36.05,296,328,361,393,425,9,9,9,9,9,,,,,,,3,0,3,0,0,46,46,26,,,,,,,,,,,,num_5,0.6685577998869121,num_5,0.55,0.9,0.4,0.9,15.2822,34.38495,return,9.261248799972236,,,,,,,,,,,,,,,,,910,,male,left_right_width,2024-10-21_09h39.39.855,exp1,2023.1.0,59.978467719744366,
,,,,,,,,,,,,,,,,3,9.1,10,10.9,0,0,0.9,0.35,0.55,2.35,10,initial,36.05,328,361,393,0,0,9,9,9,0,0,,,,,,,3,0,3,0,0,47,47,5,,,,,,,,,,,,num_3,0.39062930014915764,num_3,0.2,0.7,0.44999999999999996,0.85,17.19248,32.47468,return,5.109780800063163,,,,,,,,,,,,,,,,,910,,male,left_right_width,2024-10-21_09h39.39.855,exp1,2023.1.0,59.978467719744366,
,,,,,,,,,,,,,,,,4,8.65,9.55,10.45,11.35,0,0.9,0.35,0.55,3.25,10,initial,36.05,312,344,377,409,0,9,9,9,9,0,,,,,,,3,0,3,0,0,48,48,13,,,,,,,,,,,,num_4,0.9542024999391288,num_4,0.4,0.6,0.5,1.0,19.10275,38.2055,return,6.0943124000914395,,,,,,,,,,,,,,,,,910,,male,left_right_width,2024-10-21_09h39.39.855,exp1,2023.1.0,59.978467719744366,
,,,,,,,,,,,,,,,,5,8.2,9.1,10,10.9,11.8,0.9,0.35,0.55,4.15,10,initial,36.05,296,328,361,393,425,9,9,9,9,9,,,,,,,3,0,3,0,0,49,49,23,,,,,,,,,,,,num_5,0.7373053000774235,num_5,0.45,1.0,0.45,0.85,17.19248,32.47468,return,4.972043799934909,,,,,,,,,,,,,,,,,910,,male,left_right_width,2024-10-21_09h39.39.855,exp1,2023.1.0,59.978467719744366,
,,,,,,,,,,,,,,,,4,8.65,9.55,10.45,11.35,0,0.9,0.35,0.55,3.25,10,initial,36.05,312,344,377,409,0,9,9,9,9,0,,,,,,,3,0,3,0,0,50,50,15,,,,,,,,,,,,num_4,0.7032890999689698,num_4,0.25,0.4,0.44999999999999996,0.8,17.19248,30.5644,return,4.8019243001472205,,,,,,,,,,,,,,,,,910,,male,left_right_width,2024-10-21_09h39.39.855,exp1,2023.1.0,59.978467719744366,
,,,,,,,,,,,,,,,,3,9.1,10,10.9,0,0,0.9,0.35,0.55,2.35,10,initial,36.05,328,361,393,0,0,9,9,9,0,0,,,,,,,3,0,3,0,0,51,51,33,,,,,,,,,,,,num_3,0.48282679985277355,num_3,0.35,1.1,0.44999999999999996,0.85,17.19248,32.47468,return,4.111063200049102,,,,,,,,,,,,,,,,,910,,male,left_right_width,2024-10-21_09h39.39.855,exp1,2023.1.0,59.978467719744366,
,,,,,,,,,,,,,,,,4,8.65,9.55,10.45,11.35,0,0.9,0.35,0.55,3.25,10,initial,36.05,312,344,377,409,0,9,9,9,9,0,,,,,,,3,0,3,0,0,52,52,16,,,,,,,,,,,,num_4,0.7156048000324517,num_4,0.5,1.3,0.5,0.9,19.10275,34.38495,return,3.758026799885556,,,,,,,,,,,,,,,,,910,,male,left_right_width,2024-10-21_09h39.39.855,exp1,2023.1.0,59.978467719744366,
,,,,,,,,,,,,,,,,5,8.2,9.1,10,10.9,11.8,0.9,0.35,0.55,4.15,10,initial,36.05,296,328,361,393,425,9,9,9,9,9,,,,,,,3,0,3,0,0,53,53,25,,,,,,,,,,,,num_5,0.7289861000608653,num_5,0.5,1.2,0.45,0.95,17.19248,36.29523,return,4.052974799880758,,,,,,,,,,,,,,,,,910,,male,left_right_width,2024-10-21_09h39.39.855,exp1,2023.1.0,59.978467719744366,
,,,,,,,,,,,,,,,,,,,,,,,,,,,,,,,,,,,,,,,,,,,,,3,0,3,0,,,,,,,,,,,,,,,,,,,,,,,,,,,,,2407.30319970008,2407.30319970008,2407.30319970008,,,,,,,,,,,,910,,male,left_right_width,2024-10-21_09h39.39.855,exp1,2023.1.0,59.978467719744366,
,,,,,,,,,,,,,,,,4,9.25,9.75,10.25,10.75,0,0.5,0.1,0.4,1.9000000000000001,10,initial,36.05,333,351,370,388,0,9,9,9,9,0,,,,,,,4,0,4,0,0,0,0,36,,,,,,,,,,,,num_3,0.36535999993793666,num_3,0.35,1,0.35,0.45,13.37193,17.19248,return,4.782070599962026,,,,,,,,,,,,,,,,,910,,male,left_right_width,2024-10-21_09h39.39.855,exp1,2023.1.0,59.978467719744366,
,,,,,,,,,,,,,,,,5,9,9.5,10,10.5,11,0.5,0.1,0.4,2.4,10,initial,36.05,324,342,361,379,397,9,9,9,9,9,,,,,,,4,0,4,0,0,1,1,50,,,,,,,,,,,,num_4,0.7191190999001265,num_4,0.4,0.7,0.4,0.5,15.2822,19.10275,return,2.8805231999140233,,,,,,,,,,,,,,,,,910,,male,left_right_width,2024-10-21_09h39.39.855,exp1,2023.1.0,59.978467719744366,
,,,,,,,,,,,,,,,,4,9.25,9.75,10.25,10.75,0,0.5,0.1,0.4,1.9000000000000001,10,initial,36.05,333,351,370,388,0,9,9,9,9,0,,,,,,,4,0,4,0,0,2,2,14,,,,,,,,,,,,num_3,0.699161000084132,num_3,0.2,0.3,0.3,0.5,11.46165,19.10275,return,4.63367690006271,,,,,,,,,,,,,,,,,910,,male,left_right_width,2024-10-21_09h39.39.855,exp1,2023.1.0,59.978467719744366,
,,,,,,,,,,,,,,,,4,9.25,9.75,10.25,10.75,0,0.5,0.1,0.4,1.9000000000000001,10,initial,36.05,333,351,370,388,0,9,9,9,9,0,,,,,,,4,0,4,0,0,3,3,40,,,,,,,,,,,,num_4,0.6540832000318915,num_4,0.45,1.3,0.35000000000000003,0.5,13.37193,19.10275,return,3.8081936999224126,,,,,,,,,,,,,,,,,910,,male,left_right_width,2024-10-21_09h39.39.855,exp1,2023.1.0,59.978467719744366,
,,,,,,,,,,,,,,,,4,9.25,9.75,10.25,10.75,0,0.5,0.1,0.4,1.9000000000000001,10,initial,36.05,333,351,370,388,0,9,9,9,9,0,,,,,,,4,0,4,0,0,4,4,9,,,,,,,,,,,,num_3,0.47730070003308356,num_3,0.55,0.8,0.4,0.55,15.2822,21.01303,return,6.537678000051528,,,,,,,,,,,,,,,,,910,,male,left_right_width,2024-10-21_09h39.39.855,exp1,2023.1.0,59.978467719744366,
,,,,,,,,,,,,,,,,3,9.5,10,10.5,0,0,0.5,0.1,0.4,1.4000000000000001,10,initial,36.05,342,361,379,0,0,9,9,9,0,0,,,,,,,4,0,4,0,0,5,5,7,,,,,,,,,,,,num_3,0.5010240999981761,num_3,0.4,0.5,0.30000000000000004,0.45,11.46165,17.19248,return,6.95461819996126,,,,,,,,,,,,,,,,,910,,male,left_right_width,2024-10-21_09h39.39.855,exp1,2023.1.0,59.978467719744366,
,,,,,,,,,,,,,,,,5,9,9.5,10,10.5,11,0.5,0.1,0.4,2.4,10,initial,36.05,324,342,361,379,397,9,9,9,9,9,,,,,,,4,0,4,0,0,6,6,45,,,,,,,,,,,,num_4,0.6944750000257045,num_4,0.55,0.9,0.35000000000000003,0.5,13.37193,19.10275,return,5.40163840004243,,,,,,,,,,,,,,,,,910,,male,left_right_width,2024-10-21_09h39.39.855,exp1,2023.1.0,59.978467719744366,
,,,,,,,,,,,,,,,,3,9.5,10,10.5,0,0,0.5,0.1,0.4,1.4000000000000001,10,initial,36.05,342,361,379,0,0,9,9,9,0,0,,,,,,,4,0,4,0,0,7,7,2,,,,,,,,,,,,num_3,0.4913478000089526,num_3,0.45,1,0.35000000000000003,0.55,13.37193,21.01303,return,4.979519999818876,,,,,,,,,,,,,,,,,910,,male,left_right_width,2024-10-21_09h39.39.855,exp1,2023.1.0,59.978467719744366,
,,,,,,,,,,,,,,,,4,9.25,9.75,10.25,10.75,0,0.5,0.1,0.4,1.9000000000000001,10,initial,36.05,333,351,370,388,0,9,9,9,9,0,,,,,,,4,0,4,0,0,8,8,42,,,,,,,,,,,,num_4,0.7109173000790179,num_4,0.25,1.3,0.3,0.5,11.46165,19.10275,return,9.447357199853286,,,,,,,,,,,,,,,,,910,,male,left_right_width,2024-10-21_09h39.39.855,exp1,2023.1.0,59.978467719744366,
,,,,,,,,,,,,,,,,3,9.5,10,10.5,0,0,0.5,0.1,0.4,1.4000000000000001,10,initial,36.05,342,361,379,0,0,9,9,9,0,0,,,,,,,4,0,4,0,0,9,9,29,,,,,,,,,,,,num_3,0.49664949998259544,num_3,0.25,0.5,0.35,0.55,13.37193,21.01303,return,4.0519512998871505,,,,,,,,,,,,,,,,,910,,male,left_right_width,2024-10-21_09h39.39.855,exp1,2023.1.0,59.978467719744366,
,,,,,,,,,,,,,,,,5,9,9.5,10,10.5,11,0.5,0.1,0.4,2.4,10,initial,36.05,324,342,361,379,397,9,9,9,9,9,,,,,,,4,0,4,0,0,10,10,47,,,,,,,,,,,,num_4,0.5239469001535326,num_4,0.3,0.5,0.35,0.6,13.37193,22.9233,return,4.965317500056699,,,,,,,,,,,,,,,,,910,,male,left_right_width,2024-10-21_09h39.39.855,exp1,2023.1.0,59.978467719744366,
,,,,,,,,,,,,,,,,4,9.25,9.75,10.25,10.75,0,0.5,0.1,0.4,1.9000000000000001,10,initial,36.05,333,351,370,388,0,9,9,9,9,0,,,,,,,4,0,4,0,0,11,11,37,,,,,,,,,,,,num_4,0.7812151999678463,num_4,0.3,0.3,0.3,0.5,11.46165,19.10275,return,4.172550900140777,,,,,,,,,,,,,,,,,910,,male,left_right_width,2024-10-21_09h39.39.855,exp1,2023.1.0,59.978467719744366,
,,,,,,,,,,,,,,,,5,9,9.5,10,10.5,11,0.5,0.1,0.4,2.4,10,initial,36.05,324,342,361,379,397,9,9,9,9,9,,,,,,,4,0,4,0,0,12,12,19,,,,,,,,,,,,num_4,1.4165957998484373,num_4,0.2,0.9,0.3,0.5,11.46165,19.10275,return,10.936567600117996,,,,,,,,,,,,,,,,,910,,male,left_right_width,2024-10-21_09h39.39.855,exp1,2023.1.0,59.978467719744366,
,,,,,,,,,,,,,,,,3,9.5,10,10.5,0,0,0.5,0.1,0.4,1.4000000000000001,10,initial,36.05,342,361,379,0,0,9,9,9,0,0,,,,,,,4,0,4,0,0,13,13,30,,,,,,,,,,,,num_3,0.6346034000162035,num_3,0.4,0.7,0.30000000000000004,0.5,11.46165,19.10275,return,10.189506300026551,,,,,,,,,,,,,,,,,910,,male,left_right_width,2024-10-21_09h39.39.855,exp1,2023.1.0,59.978467719744366,
,,,,,,,,,,,,,,,,5,9,9.5,10,10.5,11,0.5,0.1,0.4,2.4,10,initial,36.05,324,342,361,379,397,9,9,9,9,9,,,,,,,4,0,4,0,0,14,14,20,,,,,,,,,,,,num_4,1.0721540998201817,num_4,0.2,0.6,0.25,0.4,9.55138,15.2822,return,7.5227900999598205,,,,,,,,,,,,,,,,,910,,male,left_right_width,2024-10-21_09h39.39.855,exp1,2023.1.0,59.978467719744366,
,,,,,,,,,,,,,,,,3,9.5,10,10.5,0,0,0.5,0.1,0.4,1.4000000000000001,10,initial,36.05,342,361,379,0,0,9,9,9,0,0,,,,,,,4,0,4,0,0,15,15,35,,,,,,,,,,,,num_3,0.6176553000696003,num_3,0.45,0.7,0.30000000000000004,0.45,11.46165,17.19248,return,3.963376299943775,,,,,,,,,,,,,,,,,910,,male,left_right_width,2024-10-21_09h39.39.855,exp1,2023.1.0,59.978467719744366,
,,,,,,,,,,,,,,,,5,9,9.5,10,10.5,11,0.5,0.1,0.4,2.4,10,initial,36.05,324,342,361,379,397,9,9,9,9,9,,,,,,,4,0,4,0,0,16,16,24,,,,,,,,,,,,num_5,0.7924506000708789,num_5,0.4,0.5,0.35000000000000003,0.5,13.37193,19.10275,return,2.663654200034216,,,,,,,,,,,,,,,,,910,,male,left_right_width,2024-10-21_09h39.39.855,exp1,2023.1.0,59.978467719744366,
,,,,,,,,,,,,,,,,5,9,9.5,10,10.5,11,0.5,0.1,0.4,2.4,10,initial,36.05,324,342,361,379,397,9,9,9,9,9,,,,,,,4,0,4,0,0,17,17,21,,,,,,,,,,,,num_5,0.8683936998713762,num_5,0.3,0.4,0.35,0.55,13.37193,21.01303,return,3.6329894999507815,,,,,,,,,,,,,,,,,910,,male,left_right_width,2024-10-21_09h39.39.855,exp1,2023.1.0,59.978467719744366,
,,,,,,,,,,,,,,,,3,9.5,10,10.5,0,0,0.5,0.1,0.4,1.4000000000000001,10,initial,36.05,342,361,379,0,0,9,9,9,0,0,,,,,,,4,0,4,0,0,18,18,33,,,,,,,,,,,,num_3,0.46077550016343594,num_3,0.3,1.2,0.25,0.45,9.55138,17.19248,return,6.072258100146428,,,,,,,,,,,,,,,,,910,,male,left_right_width,2024-10-21_09h39.39.855,exp1,2023.1.0,59.978467719744366,
,,,,,,,,,,,,,,,,5,9,9.5,10,10.5,11,0.5,0.1,0.4,2.4,10,initial,36.05,324,342,361,379,397,9,9,9,9,9,,,,,,,4,0,4,0,0,19,19,49,,,,,,,,,,,,num_4,0.7020965998526663,num_4,0.3,0.5,0.35,0.6,13.37193,22.9233,return,4.1447184002026916,,,,,,,,,,,,,,,,,910,,male,left_right_width,2024-10-21_09h39.39.855,exp1,2023.1.0,59.978467719744366,
,,,,,,,,,,,,,,,,5,9,9.5,10,10.5,11,0.5,0.1,0.4,2.4,10,initial,36.05,324,342,361,379,397,9,9,9,9,9,,,,,,,4,0,4,0,0,20,20,26,,,,,,,,,,,,num_4,1.1294232998043299,num_4,0.45,1.0,0.35000000000000003,0.6,13.37193,22.9233,return,4.266194999916479,,,,,,,,,,,,,,,,,910,,male,left_right_width,2024-10-21_09h39.39.855,exp1,2023.1.0,59.978467719744366,
,,,,,,,,,,,,,,,,3,9.5,10,10.5,0,0,0.5,0.1,0.4,1.4000000000000001,10,initial,36.05,342,361,379,0,0,9,9,9,0,0,,,,,,,4,0,4,0,0,21,21,28,,,,,,,,,,,,num_3,0.6316819998901337,num_3,0.4,0.7,0.35000000000000003,0.55,13.37193,21.01303,return,7.270754100056365,,,,,,,,,,,,,,,,,910,,male,left_right_width,2024-10-21_09h39.39.855,exp1,2023.1.0,59.978467719744366,
,,,,,,,,,,,,,,,,3,9.5,10,10.5,0,0,0.5,0.1,0.4,1.4000000000000001,10,initial,36.05,342,361,379,0,0,9,9,9,0,0,,,,,,,4,0,4,0,0,22,22,6,,,,,,,,,,,,num_3,0.4919165000319481,num_3,0.3,0.6,0.3,0.45,11.46165,17.19248,return,3.218129200162366,,,,,,,,,,,,,,,,,910,,male,left_right_width,2024-10-21_09h39.39.855,exp1,2023.1.0,59.978467719744366,
,,,,,,,,,,,,,,,,4,9.25,9.75,10.25,10.75,0,0.5,0.1,0.4,1.9000000000000001,10,initial,36.05,333,351,370,388,0,9,9,9,9,0,,,,,,,4,0,4,0,0,23,23,43,,,,,,,,,,,,num_4,0.9827181999571621,num_4,0.5,0.7,0.4,0.6,15.2822,22.9233,return,7.278559300117195,,,,,,,,,,,,,,,,,910,,male,left_right_width,2024-10-21_09h39.39.855,exp1,2023.1.0,59.978467719744366,
,,,,,,,,,,,,,,,,3,9.5,10,10.5,0,0,0.5,0.1,0.4,1.4000000000000001,10,initial,36.05,342,361,379,0,0,9,9,9,0,0,,,,,,,4,0,4,0,0,24,24,27,,,,,,,,,,,,num_3,0.5327031000051647,num_3,0.25,0.8,0.35,0.55,13.37193,21.01303,return,6.537626399891451,,,,,,,,,,,,,,,,,910,,male,left_right_width,2024-10-21_09h39.39.855,exp1,2023.1.0,59.978467719744366,
,,,,,,,,,,,,,,,,3,9.5,10,10.5,0,0,0.5,0.1,0.4,1.4000000000000001,10,initial,36.05,342,361,379,0,0,9,9,9,0,0,,,,,,,4,0,4,0,0,25,25,0,,,,,,,,,,,,num_3,0.4752307999879122,num_3,0.35,1.3,0.3,0.5,11.46165,19.10275,return,7.666996200103313,,,,,,,,,,,,,,,,,910,,male,left_right_width,2024-10-21_09h39.39.855,exp1,2023.1.0,59.978467719744366,
,,,,,,,,,,,,,,,,4,9.25,9.75,10.25,10.75,0,0.5,0.1,0.4,1.9000000000000001,10,initial,36.05,333,351,370,388,0,9,9,9,9,0,,,,,,,4,0,4,0,0,26,26,10,,,,,,,,,,,,num_3,0.7220864000264555,num_3,0.2,0.3,0.39999999999999997,0.65,15.2822,24.83358,return,4.7813535002060235,,,,,,,,,,,,,,,,,910,,male,left_right_width,2024-10-21_09h39.39.855,exp1,2023.1.0,59.978467719744366,
,,,,,,,,,,,,,,,,4,9.25,9.75,10.25,10.75,0,0.5,0.1,0.4,1.9000000000000001,10,initial,36.05,333,351,370,388,0,9,9,9,9,0,,,,,,,4,0,4,0,0,27,27,12,,,,,,,,,,,,num_3,0.5039747999981046,num_3,0.3,0.7,0.35,0.55,13.37193,21.01303,return,3.9851494000758976,,,,,,,,,,,,,,,,,910,,male,left_right_width,2024-10-21_09h39.39.855,exp1,2023.1.0,59.978467719744366,
,,,,,,,,,,,,,,,,3,9.5,10,10.5,0,0,0.5,0.1,0.4,1.4000000000000001,10,initial,36.05,342,361,379,0,0,9,9,9,0,0,,,,,,,4,0,4,0,0,28,28,8,,,,,,,,,,,,num_3,0.5279079000465572,num_3,0.4,0.8,0.30000000000000004,0.5,11.46165,19.10275,return,3.9077840000391006,,,,,,,,,,,,,,,,,910,,male,left_right_width,2024-10-21_09h39.39.855,exp1,2023.1.0,59.978467719744366,
,,,,,,,,,,,,,,,,5,9,9.5,10,10.5,11,0.5,0.1,0.4,2.4,10,initial,36.05,324,342,361,379,397,9,9,9,9,9,,,,,,,4,0,4,0,0,29,29,51,,,,,,,,,,,,num_4,1.1435006998945028,num_4,0.2,0.6,0.35,0.6,13.37193,22.9233,return,6.119608200155199,,,,,,,,,,,,,,,,,910,,male,left_right_width,2024-10-21_09h39.39.855,exp1,2023.1.0,59.978467719744366,
,,,,,,,,,,,,,,,,5,9,9.5,10,10.5,11,0.5,0.1,0.4,2.4,10,initial,36.05,324,342,361,379,397,9,9,9,9,9,,,,,,,4,0,4,0,0,30,30,25,,,,,,,,,,,,num_4,0.961632699938491,num_4,0.55,1.2,0.35000000000000003,0.7,13.37193,26.74385,return,4.99950179993175,,,,,,,,,,,,,,,,,910,,male,left_right_width,2024-10-21_09h39.39.855,exp1,2023.1.0,59.978467719744366,
,,,,,,,,,,,,,,,,4,9.25,9.75,10.25,10.75,0,0.5,0.1,0.4,1.9000000000000001,10,initial,36.05,333,351,370,388,0,9,9,9,9,0,,,,,,,4,0,4,0,0,31,31,41,,,,,,,,,,,,num_3,0.6060343999415636,num_3,0.25,0.6,0.3,0.55,11.46165,21.01303,return,4.789134200196713,,,,,,,,,,,,,,,,,910,,male,left_right_width,2024-10-21_09h39.39.855,exp1,2023.1.0,59.978467719744366,
,,,,,,,,,,,,,,,,5,9,9.5,10,10.5,11,0.5,0.1,0.4,2.4,10,initial,36.05,324,342,361,379,397,9,9,9,9,9,,,,,,,4,0,4,0,0,32,32,18,,,,,,,,,,,,num_4,0.8076179998461157,num_4,0.45,0.6,0.35000000000000003,0.7,13.37193,26.74385,return,3.8295494997873902,,,,,,,,,,,,,,,,,910,,male,left_right_width,2024-10-21_09h39.39.855,exp1,2023.1.0,59.978467719744366,
,,,,,,,,,,,,,,,,3,9.5,10,10.5,0,0,0.5,0.1,0.4,1.4000000000000001,10,initial,36.05,342,361,379,0,0,9,9,9,0,0,,,,,,,4,0,4,0,0,33,33,32,,,,,,,,,,,,num_3,0.5473905999679118,num_3,0.5,1.3,0.35000000000000003,0.55,13.37193,21.01303,return,8.0869944000151,,,,,,,,,,,,,,,,,910,,male,left_right_width,2024-10-21_09h39.39.855,exp1,2023.1.0,59.978467719744366,
,,,,,,,,,,,,,,,,5,9,9.5,10,10.5,11,0.5,0.1,0.4,2.4,10,initial,36.05,324,342,361,379,397,9,9,9,9,9,,,,,,,4,0,4,0,0,34,34,22,,,,,,,,,,,,num_4,0.9383534998632967,num_4,0.5,0.9,0.35000000000000003,0.6,13.37193,22.9233,return,4.227090500062332,,,,,,,,,,,,,,,,,910,,male,left_right_width,2024-10-21_09h39.39.855,exp1,2023.1.0,59.978467719744366,
,,,,,,,,,,,,,,,,3,9.5,10,10.5,0,0,0.5,0.1,0.4,1.4000000000000001,10,initial,36.05,342,361,379,0,0,9,9,9,0,0,,,,,,,4,0,4,0,0,35,35,34,,,,,,,,,,,,num_3,0.5561697999946773,num_3,0.5,0.6,0.30000000000000004,0.55,11.46165,21.01303,return,4.335983900120482,,,,,,,,,,,,,,,,,910,,male,left_right_width,2024-10-21_09h39.39.855,exp1,2023.1.0,59.978467719744366,
,,,,,,,,,,,,,,,,3,9.5,10,10.5,0,0,0.5,0.1,0.4,1.4000000000000001,10,initial,36.05,342,361,379,0,0,9,9,9,0,0,,,,,,,4,0,4,0,0,36,36,1,,,,,,,,,,,,num_3,0.5258697001263499,num_3,0.5,1.2,0.30000000000000004,0.5,11.46165,19.10275,return,6.0998968000058085,,,,,,,,,,,,,,,,,910,,male,left_right_width,2024-10-21_09h39.39.855,exp1,2023.1.0,59.978467719744366,
,,,,,,,,,,,,,,,,4,9.25,9.75,10.25,10.75,0,0.5,0.1,0.4,1.9000000000000001,10,initial,36.05,333,351,370,388,0,9,9,9,9,0,,,,,,,4,0,4,0,0,37,37,17,,,,,,,,,,,,num_3,0.9810059999581426,num_3,0.3,0.4,0.35,0.6,13.37193,22.9233,return,5.8521271999925375,,,,,,,,,,,,,,,,,910,,male,left_right_width,2024-10-21_09h39.39.855,exp1,2023.1.0,59.978467719744366,
,,,,,,,,,,,,,,,,5,9,9.5,10,10.5,11,0.5,0.1,0.4,2.4,10,initial,36.05,324,342,361,379,397,9,9,9,9,9,,,,,,,4,0,4,0,0,38,38,23,,,,,,,,,,,,num_4,1.0604991000145674,num_4,0.25,1.1,0.35,0.7,13.37193,26.74385,return,5.0919727999717,,,,,,,,,,,,,,,,,910,,male,left_right_width,2024-10-21_09h39.39.855,exp1,2023.1.0,59.978467719744366,
,,,,,,,,,,,,,,,,3,9.5,10,10.5,0,0,0.5,0.1,0.4,1.4000000000000001,10,initial,36.05,342,361,379,0,0,9,9,9,0,0,,,,,,,4,0,4,0,0,39,39,5,,,,,,,,,,,,num_3,0.44648610008880496,num_3,0.25,0.7,0.3,0.6,11.46165,22.9233,return,10.743883399991319,,,,,,,,,,,,,,,,,910,,male,left_right_width,2024-10-21_09h39.39.855,exp1,2023.1.0,59.978467719744366,
,,,,,,,,,,,,,,,,4,9.25,9.75,10.25,10.75,0,0.5,0.1,0.4,1.9000000000000001,10,initial,36.05,333,351,370,388,0,9,9,9,9,0,,,,,,,4,0,4,0,0,40,40,44,,,,,,,,,,,,num_3,0.6126776998862624,num_3,0.3,1.3,0.35,0.65,13.37193,24.83358,return,7.260028399992734,,,,,,,,,,,,,,,,,910,,male,left_right_width,2024-10-21_09h39.39.855,exp1,2023.1.0,59.978467719744366,
,,,,,,,,,,,,,,,,4,9.25,9.75,10.25,10.75,0,0.5,0.1,0.4,1.9000000000000001,10,initial,36.05,333,351,370,388,0,9,9,9,9,0,,,,,,,4,0,4,0,0,41,41,15,,,,,,,,,,,,num_4,1.6102768001146615,num_4,0.2,0.7,0.3,0.5,11.46165,19.10275,return,3.1298696999438107,,,,,,,,,,,,,,,,,910,,male,left_right_width,2024-10-21_09h39.39.855,exp1,2023.1.0,59.978467719744366,
,,,,,,,,,,,,,,,,5,9,9.5,10,10.5,11,0.5,0.1,0.4,2.4,10,initial,36.05,324,342,361,379,397,9,9,9,9,9,,,,,,,4,0,4,0,0,42,42,46,,,,,,,,,,,,num_5,1.6508618998341262,num_5,0.3,1.3,0.35,0.5,13.37193,19.10275,return,4.889980500098318,,,,,,,,,,,,,,,,,910,,male,left_right_width,2024-10-21_09h39.39.855,exp1,2023.1.0,59.978467719744366,
,,,,,,,,,,,,,,,,4,9.25,9.75,10.25,10.75,0,0.5,0.1,0.4,1.9000000000000001,10,initial,36.05,333,351,370,388,0,9,9,9,9,0,,,,,,,4,0,4,0,0,43,43,13,,,,,,,,,,,,num_4,0.9477529998403043,num_4,0.5,0.8,0.4,0.6,15.2822,22.9233,return,3.302517900010571,,,,,,,,,,,,,,,,,910,,male,left_right_width,2024-10-21_09h39.39.855,exp1,2023.1.0,59.978467719744366,
,,,,,,,,,,,,,,,,4,9.25,9.75,10.25,10.75,0,0.5,0.1,0.4,1.9000000000000001,10,initial,36.05,333,351,370,388,0,9,9,9,9,0,,,,,,,4,0,4,0,0,44,44,11,,,,,,,,,,,,num_3,1.3266838998533785,num_3,0.2,0.4,0.35,0.6,13.37193,22.9233,return,7.4613239001482725,,,,,,,,,,,,,,,,,910,,male,left_right_width,2024-10-21_09h39.39.855,exp1,2023.1.0,59.978467719744366,
,,,,,,,,,,,,,,,,5,9,9.5,10,10.5,11,0.5,0.1,0.4,2.4,10,initial,36.05,324,342,361,379,397,9,9,9,9,9,,,,,,,4,0,4,0,0,45,45,52,,,,,,,,,,,,num_4,0.8601804999634624,num_4,0.25,0.5,0.35,0.7,13.37193,26.74385,return,5.2668200000189245,,,,,,,,,,,,,,,,,910,,male,left_right_width,2024-10-21_09h39.39.855,exp1,2023.1.0,59.978467719744366,
,,,,,,,,,,,,,,,,3,9.5,10,10.5,0,0,0.5,0.1,0.4,1.4000000000000001,10,initial,36.05,342,361,379,0,0,9,9,9,0,0,,,,,,,4,0,4,0,0,46,46,4,,,,,,,,,,,,num_3,0.5944870999082923,num_3,0.25,1.1,0.25,0.4,9.55138,15.2822,return,7.733607400208712,,,,,,,,,,,,,,,,,910,,male,left_right_width,2024-10-21_09h39.39.855,exp1,2023.1.0,59.978467719744366,
,,,,,,,,,,,,,,,,5,9,9.5,10,10.5,11,0.5,0.1,0.4,2.4,10,initial,36.05,324,342,361,379,397,9,9,9,9,9,,,,,,,4,0,4,0,0,47,47,48,,,,,,,,,,,,num_4,0.6413408999796957,num_4,0.3,1.0,0.3,0.6,11.46165,22.9233,return,3.314376699971035,,,,,,,,,,,,,,,,,910,,male,left_right_width,2024-10-21_09h39.39.855,exp1,2023.1.0,59.978467719744366,
,,,,,,,,,,,,,,,,4,9.25,9.75,10.25,10.75,0,0.5,0.1,0.4,1.9000000000000001,10,initial,36.05,333,351,370,388,0,9,9,9,9,0,,,,,,,4,0,4,0,0,48,48,38,,,,,,,,,,,,num_3,0.5399521999061108,num_3,0.5,1,0.4,0.65,15.2822,24.83358,return,7.090874999994412,,,,,,,,,,,,,,,,,910,,male,left_right_width,2024-10-21_09h39.39.855,exp1,2023.1.0,59.978467719744366,
,,,,,,,,,,,,,,,,4,9.25,9.75,10.25,10.75,0,0.5,0.1,0.4,1.9000000000000001,10,initial,36.05,333,351,370,388,0,9,9,9,9,0,,,,,,,4,0,4,0,0,49,49,39,,,,,,,,,,,,num_3,0.8929829001426697,num_3,0.35,0.7,0.35,0.5,13.37193,19.10275,return,6.055464799981564,,,,,,,,,,,,,,,,,910,,male,left_right_width,2024-10-21_09h39.39.855,exp1,2023.1.0,59.978467719744366,
,,,,,,,,,,,,,,,,4,9.25,9.75,10.25,10.75,0,0.5,0.1,0.4,1.9000000000000001,10,initial,36.05,333,351,370,388,0,9,9,9,9,0,,,,,,,4,0,4,0,0,50,50,16,,,,,,,,,,,,num_3,0.5090298999566585,num_3,0.3,0.4,0.35,0.6,13.37193,22.9233,return,6.693130299914628,,,,,,,,,,,,,,,,,910,,male,left_right_width,2024-10-21_09h39.39.855,exp1,2023.1.0,59.978467719744366,
,,,,,,,,,,,,,,,,3,9.5,10,10.5,0,0,0.5,0.1,0.4,1.4000000000000001,10,initial,36.05,342,361,379,0,0,9,9,9,0,0,,,,,,,4,0,4,0,0,51,51,31,,,,,,,,,,,,num_3,0.5205413999501616,num_3,0.5,0.8,0.35000000000000003,0.6,13.37193,22.9233,return,8.911427699960768,,,,,,,,,,,,,,,,,910,,male,left_right_width,2024-10-21_09h39.39.855,exp1,2023.1.0,59.978467719744366,
,,,,,,,,,,,,,,,,3,9.5,10,10.5,0,0,0.5,0.1,0.4,1.4000000000000001,10,initial,36.05,342,361,379,0,0,9,9,9,0,0,,,,,,,4,0,4,0,0,52,52,3,,,,,,,,,,,,num_3,0.49745859997347,num_3,0.2,0.8,0.3,0.5,11.46165,19.10275,return,7.430200299946591,,,,,,,,,,,,,,,,,910,,male,left_right_width,2024-10-21_09h39.39.855,exp1,2023.1.0,59.978467719744366,
,,,,,,,,,,,,,,,,5,9,9.5,10,10.5,11,0.5,0.1,0.4,2.4,10,initial,36.05,324,342,361,379,397,9,9,9,9,9,,,,,,,4,0,4,0,0,53,53,53,,,,,,,,,,,,num_4,0.7839196999557316,num_4,0.5,0.6,0.4,0.7,15.2822,26.74385,return,5.293202800210565,,,,,,,,,,,,,,,,,910,,male,left_right_width,2024-10-21_09h39.39.855,exp1,2023.1.0,59.978467719744366,
,,,,,,,,,,,,,,,,,,,,,,,,,,,,,,,,,,,,,,,,,,,,,4,0,4,0,,,,,,,,,,,,,,,,,,,,,,,,,,,,,2925.6355630999897,2925.6355630999897,2925.6355630999897,,,,,,,,,,,,910,,male,left_right_width,2024-10-21_09h39.39.855,exp1,2023.1.0,59.978467719744366,
,,,,,,,,,,,,,,,,5,9,9.5,10,10.5,11,0.5,0.25,0.25,2.25,10,initial,36.05,324,342,361,379,397,9,9,9,9,9,,,,,,,5,0,5,0,0,0,0,45,,,,,,,,,,,,num_4,0.9045817998703569,num_4,0.5,1.2,0.25000000000000006,0.9,9.55138,34.38495,return,4.494920700090006,,,,,,,,,,,,,,,,,910,,male,left_right_width,2024-10-21_09h39.39.855,exp1,2023.1.0,59.978467719744366,
,,,,,,,,,,,,,,,,4,9.25,9.75,10.25,10.75,0,0.5,0.25,0.25,1.75,10,initial,36.05,333,351,370,388,0,9,9,9,9,0,,,,,,,5,0,5,0,0,1,1,44,,,,,,,,,,,,num_3,0.704359200084582,num_3,0.25,0.7,0.25,0.8,9.55138,30.5644,return,1.9969800000544637,,,,,,,,,,,,,,,,,910,,male,left_right_width,2024-10-21_09h39.39.855,exp1,2023.1.0,59.978467719744366,
,,,,,,,,,,,,,,,,4,9.25,9.75,10.25,10.75,0,0.5,0.25,0.25,1.75,10,initial,36.05,333,351,370,388,0,9,9,9,9,0,,,,,,,5,0,5,0,0,2,2,13,,,,,,,,,,,,num_3,0.6659967999439687,num_3,0.45,0.7,0.20000000000000007,0.75,7.6411,28.65413,return,9.690334299812093,,,,,,,,,,,,,,,,,910,,male,left_right_width,2024-10-21_09h39.39.855,exp1,2023.1.0,59.978467719744366,
,,,,,,,,,,,,,,,,4,9.25,9.75,10.25,10.75,0,0.5,0.25,0.25,1.75,10,initial,36.05,333,351,370,388,0,9,9,9,9,0,,,,,,,5,0,5,0,0,3,3,41,,,,,,,,,,,,num_4,0.9083124999888241,num_4,0.2,0.4,0.2,0.6,7.6411,22.9233,return,2.8512931999284774,,,,,,,,,,,,,,,,,910,,male,left_right_width,2024-10-21_09h39.39.855,exp1,2023.1.0,59.978467719744366,
,,,,,,,,,,,,,,,,4,9.25,9.75,10.25,10.75,0,0.5,0.25,0.25,1.75,10,initial,36.05,333,351,370,388,0,9,9,9,9,0,,,,,,,5,0,5,0,0,4,4,38,,,,,,,,,,,,num_4,1.2609645000193268,num_4,0.3,0.4,0.2,0.6,7.6411,22.9233,return,4.149786900030449,,,,,,,,,,,,,,,,,910,,male,left_right_width,2024-10-21_09h39.39.855,exp1,2023.1.0,59.978467719744366,
,,,,,,,,,,,,,,,,4,9.25,9.75,10.25,10.75,0,0.5,0.25,0.25,1.75,10,initial,36.05,333,351,370,388,0,9,9,9,9,0,,,,,,,5,0,5,0,0,5,5,14,,,,,,,,,,,,num_3,1.3346011000685394,num_3,0.5,0.7,0.20000000000000007,0.65,7.6411,24.83358,return,4.590534600196406,,,,,,,,,,,,,,,,,910,,male,left_right_width,2024-10-21_09h39.39.855,exp1,2023.1.0,59.978467719744366,
,,,,,,,,,,,,,,,,4,9.25,9.75,10.25,10.75,0,0.5,0.25,0.25,1.75,10,initial,36.05,333,351,370,388,0,9,9,9,9,0,,,,,,,5,0,5,0,0,6,6,43,,,,,,,,,,,,num_4,1.1360136000439525,num_4,0.3,0.8,0.25,0.7,9.55138,26.74385,return,5.851564799901098,,,,,,,,,,,,,,,,,910,,male,left_right_width,2024-10-21_09h39.39.855,exp1,2023.1.0,59.978467719744366,
,,,,,,,,,,,,,,,,5,9,9.5,10,10.5,11,0.5,0.25,0.25,2.25,10,initial,36.05,324,342,361,379,397,9,9,9,9,9,,,,,,,5,0,5,0,0,7,7,49,,,,,,,,,,,,num_4,1.3042064001783729,num_4,0.35,0.8,0.2,0.6,7.6411,22.9233,return,3.937825000146404,,,,,,,,,,,,,,,,,910,,male,left_right_width,2024-10-21_09h39.39.855,exp1,2023.1.0,59.978467719744366,
,,,,,,,,,,,,,,,,3,9.5,10,10.5,0,0,0.5,0.25,0.25,1.25,10,initial,36.05,342,361,379,0,0,9,9,9,0,0,,,,,,,5,0,5,0,0,8,8,2,,,,,,,,,,,,num_3,0.5017289000097662,num_3,0.2,1.1,0.2,0.55,7.6411,21.01303,return,4.768624300137162,,,,,,,,,,,,,,,,,910,,male,left_right_width,2024-10-21_09h39.39.855,exp1,2023.1.0,59.978467719744366,
,,,,,,,,,,,,,,,,3,9.5,10,10.5,0,0,0.5,0.25,0.25,1.25,10,initial,36.05,342,361,379,0,0,9,9,9,0,0,,,,,,,5,0,5,0,0,9,9,27,,,,,,,,,,,,num_3,0.4684949000366032,num_3,0.2,0.5,0.2,0.45,7.6411,17.19248,return,2.4890163999516517,,,,,,,,,,,,,,,,,910,,male,left_right_width,2024-10-21_09h39.39.855,exp1,2023.1.0,59.978467719744366,
,,,,,,,,,,,,,,,,5,9,9.5,10,10.5,11,0.5,0.25,0.25,2.25,10,initial,36.05,324,342,361,379,397,9,9,9,9,9,,,,,,,5,0,5,0,0,10,10,50,,,,,,,,,,,,num_5,0.8050843998789787,num_5,0.5,1.1,0.20000000000000007,0.6,7.6411,22.9233,return,7.31593589996919,,,,,,,,,,,,,,,,,910,,male,left_right_width,2024-10-21_09h39.39.855,exp1,2023.1.0,59.978467719744366,
,,,,,,,,,,,,,,,,3,9.5,10,10.5,0,0,0.5,0.25,0.25,1.25,10,initial,36.05,342,361,379,0,0,9,9,9,0,0,,,,,,,5,0,5,0,0,11,11,34,,,,,,,,,,,,num_3,0.6804458999540657,num_3,0.45,1,0.20000000000000007,0.6,7.6411,22.9233,return,9.723858800018206,,,,,,,,,,,,,,,,,910,,male,left_right_width,2024-10-21_09h39.39.855,exp1,2023.1.0,59.978467719744366,
