amount_p,posx1_p,posx2_p,posx3_p,posx4_p,posx5_p,center_to_center_p,edge_to_edge_p,w_p,stim_length_p,eccentricity_p,line1_p,line2_p,line3_p,line4_p,line5_p,amount,posx1,posx2,posx3,posx4,posx5,center_to_center,edge_to_edge,w,stim_length,eccentricity,trial_type,deg_to_pix_index,posx1_in_pix,posx2_in_pix,posx3_in_pix,posx4_in_pix,posx5_in_pix,line1,line2,line3,line4,line5,posx,setsize_cobdi,trials.thisRepN,trials.thisTrialN,trials.thisN,trials.thisIndex,blocks.thisRepN,blocks.thisTrialN,blocks.thisN,blocks.thisIndex,loop.thisRepN,loop.thisTrialN,loop.thisN,loop.thisIndex,first.thisRepN,first.thisTrialN,first.thisN,first.thisIndex,second.thisRepN,second.thisTrialN,second.thisN,second.thisIndex,key_resp_3.started,key_resp_3.keys,key_resp_3.rt,key_resp.keys,key_resp.rt,response,starting_width_deg,starting_space_deg,response_width_degree,response_spacing_degree,response_width_pixel,response_spacing_pixel,next_5.keys,next_5.rt,key_resp_4.keys,key_resp_4.rt,text_3.started,text_4.started,key_resp_2.started,text_2.started,key_resp_2.keys,key_resp_2.rt,adjusting.started,next.keys,next.rt,text_control2.started,key_resp.started,key_resp.corr,text_bye.started,text_bye.stopped,participant,age,gender,resp_group,date,expName,psychopyVersion,frameRate,
,,,,,,,,,,,,,,,,,,,,,,,,,,,,,,,,,,,,,,,,,,,,,,,,,,,,,,,,,,,,,27.261715500004357,c,153.6187046999985,,,,,,,,,,,,,,,,,,,,,,,,,,,,916,22,male,up_down_width,2024-10-23_14h36.52.014,exp1,2023.1.0,60.02483827504432,
5,9,9.5,10,10.5,11,0.5,0.1,0.4,2.4,10,9,9,9,9,9,,,,,,,,,,,,,,,,,,,,,,,,,,0,0,0,5,,,,,,,,,,,,,,,,,,,,num_5,3.564691199979279,num_5,0.25,0.3,0.25,0.35,9.21624,12.90274,return,11.574947199987946,,,,,,,,,,,,,,,,,916,22,male,up_down_width,2024-10-23_14h36.52.014,exp1,2023.1.0,60.02483827504432,
5,8.2,9.1,10,10.9,11.8,0.9,0.35,0.55,4.15,10,9,9,9,9,9,,,,,,,,,,,,,,,,,,,,,,,,,,0,1,1,2,,,,,,,,,,,,,,,,,,,,num_6,3.152684100001352,num_6,0.45,1.2,0.55,1.1,20.27573,40.55146,return,7.964798400003929,,,,,,,,,,,,,,,,,916,22,male,up_down_width,2024-10-23_14h36.52.014,exp1,2023.1.0,60.02483827504432,
3,9.1,10,10.9,0,0,0.9,0.35,0.55,2.35,10,9,9,9,0,0,,,,,,,,,,,,,,,,,,,,,,,,,,0,2,2,3,,,,,,,,,,,,,,,,,,,,num_3,2.6157852000033017,num_3,0.3,0.5,0.39999999999999997,0.6,14.74598,22.11898,return,3.436463999998523,,,,,,,,,,,,,,,,,916,22,male,up_down_width,2024-10-23_14h36.52.014,exp1,2023.1.0,60.02483827504432,
4,9.25,9.75,10.25,10.75,0,0.5,0.25,0.25,1.75,10,9,9,9,9,0,,,,,,,,,,,,,,,,,,,,,,,,,,0,3,3,1,,,,,,,,,,,,,,,,,,,,num_7,3.613705099996878,num_7,0.45,1.1,0.10000000000000007,0.55,3.6865,20.27573,return,7.6999538999807555,,,,,,,,,,,,,,,,,916,22,male,up_down_width,2024-10-23_14h36.52.014,exp1,2023.1.0,60.02483827504432,
3,9.5,10,10.5,0,0,0.5,0.25,0.25,1.25,10,9,9,9,0,0,,,,,,,,,,,,,,,,,,,,,,,,,,0,4,4,0,,,,,,,,,,,,,,,,,,,,num_4,1.3578969000081997,num_4,0.55,0.9,0.15000000000000008,0.4,5.52974,14.74598,return,4.324221700022463,,,,,,,,,,,,,,,,,916,22,male,up_down_width,2024-10-23_14h36.52.014,exp1,2023.1.0,60.02483827504432,
4,9.25,9.75,10.25,10.75,0,0.5,0.1,0.4,1.9000000000000001,10,9,9,9,9,0,,,,,,,,,,,,,,,,,,,,,,,,,,0,5,5,4,,,,,,,,,,,,,,,,,,,,num_6,1.9173076000006404,num_6,0.5,1.3,0.10000000000000007,0.5,3.6865,18.43248,return,8.444304099975852,,,,,,,,,,,,,,,,,916,22,male,up_down_width,2024-10-23_14h36.52.014,exp1,2023.1.0,60.02483827504432,
,,,,,,,,,,,,,,,,,,,,,,,,,,,,,,,,,,,,,,,,,,,,,,,,,,,,,,,,,,,,,,,,,,,,,,,,,,,c,88.69991349999327,,,,,,,,,,,,,,,916,22,male,up_down_width,2024-10-23_14h36.52.014,exp1,2023.1.0,60.02483827504432,
,,,,,,,,,,,,,,,,4,9.25,9.75,10.25,10.75,0,0.5,0.25,0.25,1.75,10,initial,36.05,333,351,370,388,0,9,9,9,9,0,,,,,,,0,0,0,0,0,0,0,39,,,,,,,,,,,,num_4,0.9241079000057653,num_4,0.45,0.8,0.25000000000000006,0.7,9.21624,25.80547,return,4.770342799980426,,,,,,,,,,,,,,,,,916,22,male,up_down_width,2024-10-23_14h36.52.014,exp1,2023.1.0,60.02483827504432,
,,,,,,,,,,,,,,,,4,9.25,9.75,10.25,10.75,0,0.5,0.25,0.25,1.75,10,initial,36.05,333,351,370,388,0,9,9,9,9,0,,,,,,,0,0,0,0,0,1,1,41,,,,,,,,,,,,num_5,1.2242830999894068,num_5,0.2,0.9,0.2,0.9,7.37299,33.17846,return,1.4110781000053976,,,,,,,,,,,,,,,,,916,22,male,up_down_width,2024-10-23_14h36.52.014,exp1,2023.1.0,60.02483827504432,
,,,,,,,,,,,,,,,,3,9.5,10,10.5,0,0,0.5,0.25,0.25,1.25,10,initial,36.05,342,361,379,0,0,9,9,9,0,0,,,,,,,0,0,0,0,0,2,2,35,,,,,,,,,,,,num_3,1.296773200010648,num_3,0.3,0.6,0.3,0.55,11.05949,20.27573,return,3.511568999994779,,,,,,,,,,,,,,,,,916,22,male,up_down_width,2024-10-23_14h36.52.014,exp1,2023.1.0,60.02483827504432,
,,,,,,,,,,,,,,,,3,9.5,10,10.5,0,0,0.5,0.25,0.25,1.25,10,initial,36.05,342,361,379,0,0,9,9,9,0,0,,,,,,,0,0,0,0,0,3,3,30,,,,,,,,,,,,num_4,1.5448167999857105,num_4,0.35,1.0,0.35,0.8,12.90274,29.49197,return,2.661774299980607,,,,,,,,,,,,,,,,,916,22,male,up_down_width,2024-10-23_14h36.52.014,exp1,2023.1.0,60.02483827504432,
,,,,,,,,,,,,,,,,4,9.25,9.75,10.25,10.75,0,0.5,0.25,0.25,1.75,10,initial,36.05,333,351,370,388,0,9,9,9,9,0,,,,,,,0,0,0,0,0,4,4,10,,,,,,,,,,,,num_6,1.360134199989261,num_6,0.45,0.6,0.15000000000000008,0.4,5.52974,14.74598,return,3.4971355000161566,,,,,,,,,,,,,,,,,916,22,male,up_down_width,2024-10-23_14h36.52.014,exp1,2023.1.0,60.02483827504432,
,,,,,,,,,,,,,,,,3,9.5,10,10.5,0,0,0.5,0.25,0.25,1.25,10,initial,36.05,342,361,379,0,0,9,9,9,0,0,,,,,,,0,0,0,0,0,5,5,1,,,,,,,,,,,,num_4,0.9433773000200745,num_4,0.35,0.8,0.25,0.6,9.21624,22.11898,return,1.7480728999944404,,,,,,,,,,,,,,,,,916,22,male,up_down_width,2024-10-23_14h36.52.014,exp1,2023.1.0,60.02483827504432,
,,,,,,,,,,,,,,,,3,9.5,10,10.5,0,0,0.5,0.25,0.25,1.25,10,initial,36.05,342,361,379,0,0,9,9,9,0,0,,,,,,,0,0,0,0,0,6,6,31,,,,,,,,,,,,num_4,0.7725719999871217,num_4,0.5,0.9,0.25000000000000006,0.7,9.21624,25.80547,return,3.410565799975302,,,,,,,,,,,,,,,,,916,22,male,up_down_width,2024-10-23_14h36.52.014,exp1,2023.1.0,60.02483827504432,
,,,,,,,,,,,,,,,,5,9,9.5,10,10.5,11,0.5,0.25,0.25,2.25,10,initial,36.05,324,342,361,379,397,9,9,9,9,9,,,,,,,0,0,0,0,0,7,7,25,,,,,,,,,,,,num_7,1.3419850000063889,num_7,0.45,1.2,0.15000000000000008,0.65,5.52974,23.96222,return,4.340679299988551,,,,,,,,,,,,,,,,,916,22,male,up_down_width,2024-10-23_14h36.52.014,exp1,2023.1.0,60.02483827504432,
,,,,,,,,,,,,,,,,4,9.25,9.75,10.25,10.75,0,0.5,0.25,0.25,1.75,10,initial,36.05,333,351,370,388,0,9,9,9,9,0,,,,,,,0,0,0,0,0,8,8,37,,,,,,,,,,,,num_5,1.2220111999777146,num_5,0.3,1.3,0.35,1.1,12.90274,40.55146,return,2.6441227000032086,,,,,,,,,,,,,,,,,916,22,male,up_down_width,2024-10-23_14h36.52.014,exp1,2023.1.0,60.02483827504432,
,,,,,,,,,,,,,,,,5,9,9.5,10,10.5,11,0.5,0.25,0.25,2.25,10,initial,36.05,324,342,361,379,397,9,9,9,9,9,,,,,,,0,0,0,0,0,9,9,19,,,,,,,,,,,,num_6,1.5713130999938585,num_6,0.5,0.7,0.30000000000000004,0.6,11.05949,22.11898,return,5.603331699996488,,,,,,,,,,,,,,,,,916,22,male,up_down_width,2024-10-23_14h36.52.014,exp1,2023.1.0,60.02483827504432,
,,,,,,,,,,,,,,,,5,9,9.5,10,10.5,11,0.5,0.25,0.25,2.25,10,initial,36.05,324,342,361,379,397,9,9,9,9,9,,,,,,,0,0,0,0,0,10,10,48,,,,,,,,,,,,num_7,1.2326662999985274,num_7,0.35,0.7,0.3,0.65,11.05949,23.96222,return,2.313680999999633,,,,,,,,,,,,,,,,,916,22,male,up_down_width,2024-10-23_14h36.52.014,exp1,2023.1.0,60.02483827504432,
,,,,,,,,,,,,,,,,5,9,9.5,10,10.5,11,0.5,0.25,0.25,2.25,10,initial,36.05,324,342,361,379,397,9,9,9,9,9,,,,,,,0,0,0,0,0,11,11,45,,,,,,,,,,,,num_6,1.4089273999852594,num_6,0.5,0.8,0.20000000000000007,0.8,7.37299,29.49197,return,3.5226933999801986,,,,,,,,,,,,,,,,,916,22,male,up_down_width,2024-10-23_14h36.52.014,exp1,2023.1.0,60.02483827504432,
,,,,,,,,,,,,,,,,5,9,9.5,10,10.5,11,0.5,0.25,0.25,2.25,10,initial,36.05,324,342,361,379,397,9,9,9,9,9,,,,,,,0,0,0,0,0,12,12,53,,,,,,,,,,,,num_6,1.9955681999854278,num_6,0.25,0.3,0.2,0.5,7.37299,18.43248,return,5.735587200004375,,,,,,,,,,,,,,,,,916,22,male,up_down_width,2024-10-23_14h36.52.014,exp1,2023.1.0,60.02483827504432,
,,,,,,,,,,,,,,,,4,9.25,9.75,10.25,10.75,0,0.5,0.25,0.25,1.75,10,initial,36.05,333,351,370,388,0,9,9,9,9,0,,,,,,,0,0,0,0,0,13,13,9,,,,,,,,,,,,num_5,1.5154034000006504,num_5,0.2,0.8,0.25,0.7,9.21624,25.80547,return,1.9021764999779407,,,,,,,,,,,,,,,,,916,22,male,up_down_width,2024-10-23_14h36.52.014,exp1,2023.1.0,60.02483827504432,
,,,,,,,,,,,,,,,,4,9.25,9.75,10.25,10.75,0,0.5,0.25,0.25,1.75,10,initial,36.05,333,351,370,388,0,9,9,9,9,0,,,,,,,0,0,0,0,0,14,14,42,,,,,,,,,,,,num_5,1.0407254000019748,num_5,0.55,1.2,0.25000000000000006,0.9,9.21624,33.17846,return,3.875181599985808,,,,,,,,,,,,,,,,,916,22,male,up_down_width,2024-10-23_14h36.52.014,exp1,2023.1.0,60.02483827504432,
,,,,,,,,,,,,,,,,4,9.25,9.75,10.25,10.75,0,0.5,0.25,0.25,1.75,10,initial,36.05,333,351,370,388,0,9,9,9,9,0,,,,,,,0,0,0,0,0,15,15,16,,,,,,,,,,,,num_4,1.2996228999982122,num_4,0.25,0.8,0.2,0.7,7.37299,25.80547,return,5.545955900015542,,,,,,,,,,,,,,,,,916,22,male,up_down_width,2024-10-23_14h36.52.014,exp1,2023.1.0,60.02483827504432,
,,,,,,,,,,,,,,,,3,9.5,10,10.5,0,0,0.5,0.25,0.25,1.25,10,initial,36.05,342,361,379,0,0,9,9,9,0,0,,,,,,,0,0,0,0,0,16,16,32,,,,,,,,,,,,num_4,1.053322100022342,num_4,0.35,1.1,0.2,1.0,7.37299,36.86496,return,1.5976627999916673,,,,,,,,,,,,,,,,,916,22,male,up_down_width,2024-10-23_14h36.52.014,exp1,2023.1.0,60.02483827504432,
,,,,,,,,,,,,,,,,4,9.25,9.75,10.25,10.75,0,0.5,0.25,0.25,1.75,10,initial,36.05,333,351,370,388,0,9,9,9,9,0,,,,,,,0,0,0,0,0,17,17,43,,,,,,,,,,,,num_6,1.1243474000075366,num_6,0.55,0.9,0.25000000000000006,0.7,9.21624,25.80547,return,3.442910400015535,,,,,,,,,,,,,,,,,916,22,male,up_down_width,2024-10-23_14h36.52.014,exp1,2023.1.0,60.02483827504432,
,,,,,,,,,,,,,,,,3,9.5,10,10.5,0,0,0.5,0.25,0.25,1.25,10,initial,36.05,342,361,379,0,0,9,9,9,0,0,,,,,,,0,0,0,0,0,18,18,2,,,,,,,,,,,,num_4,0.8296761000237893,num_4,0.5,0.8,0.20000000000000007,0.7,7.37299,25.80547,return,2.870729799993569,,,,,,,,,,,,,,,,,916,22,male,up_down_width,2024-10-23_14h36.52.014,exp1,2023.1.0,60.02483827504432,
,,,,,,,,,,,,,,,,5,9,9.5,10,10.5,11,0.5,0.25,0.25,2.25,10,initial,36.05,324,342,361,379,397,9,9,9,9,9,,,,,,,0,0,0,0,0,19,19,22,,,,,,,,,,,,num_6,1.7140715999994427,num_6,0.25,0.7,0.15000000000000002,0.5,5.52974,18.43248,return,5.11266370001249,,,,,,,,,,,,,,,,,916,22,male,up_down_width,2024-10-23_14h36.52.014,exp1,2023.1.0,60.02483827504432,
,,,,,,,,,,,,,,,,3,9.5,10,10.5,0,0,0.5,0.25,0.25,1.25,10,initial,36.05,342,361,379,0,0,9,9,9,0,0,,,,,,,0,0,0,0,0,20,20,28,,,,,,,,,,,,num_5,1.0414544999948703,num_5,0.4,1.1,0.30000000000000004,0.9,11.05949,33.17846,return,3.1739674999844283,,,,,,,,,,,,,,,,,916,22,male,up_down_width,2024-10-23_14h36.52.014,exp1,2023.1.0,60.02483827504432,
,,,,,,,,,,,,,,,,4,9.25,9.75,10.25,10.75,0,0.5,0.25,0.25,1.75,10,initial,36.05,333,351,370,388,0,9,9,9,9,0,,,,,,,0,0,0,0,0,21,21,15,,,,,,,,,,,,num_6,1.2964367999811657,num_6,0.35,0.5,0.2,0.5,7.37299,18.43248,return,4.695945999992546,,,,,,,,,,,,,,,,,916,22,male,up_down_width,2024-10-23_14h36.52.014,exp1,2023.1.0,60.02483827504432,
,,,,,,,,,,,,,,,,3,9.5,10,10.5,0,0,0.5,0.25,0.25,1.25,10,initial,36.05,342,361,379,0,0,9,9,9,0,0,,,,,,,0,0,0,0,0,22,22,6,,,,,,,,,,,,num_5,0.7807480999908876,num_5,0.4,1.1,0.20000000000000007,1.0,7.37299,36.86496,return,1.4520672999788076,,,,,,,,,,,,,,,,,916,22,male,up_down_width,2024-10-23_14h36.52.014,exp1,2023.1.0,60.02483827504432,
,,,,,,,,,,,,,,,,3,9.5,10,10.5,0,0,0.5,0.25,0.25,1.25,10,initial,36.05,342,361,379,0,0,9,9,9,0,0,,,,,,,0,0,0,0,0,23,23,5,,,,,,,,,,,,num_4,0.7418839999882039,num_4,0.55,1.3,0.25000000000000006,1.0,9.21624,36.86496,return,5.87409009996918,,,,,,,,,,,,,,,,,916,22,male,up_down_width,2024-10-23_14h36.52.014,exp1,2023.1.0,60.02483827504432,
,,,,,,,,,,,,,,,,4,9.25,9.75,10.25,10.75,0,0.5,0.25,0.25,1.75,10,initial,36.05,333,351,370,388,0,9,9,9,9,0,,,,,,,0,0,0,0,0,24,24,12,,,,,,,,,,,,num_5,0.8638770999968983,num_5,0.55,0.7,0.20000000000000007,0.65,7.37299,23.96222,return,4.987541000009514,,,,,,,,,,,,,,,,,916,22,male,up_down_width,2024-10-23_14h36.52.014,exp1,2023.1.0,60.02483827504432,
,,,,,,,,,,,,,,,,3,9.5,10,10.5,0,0,0.5,0.25,0.25,1.25,10,initial,36.05,342,361,379,0,0,9,9,9,0,0,,,,,,,0,0,0,0,0,25,25,34,,,,,,,,,,,,num_4,0.849291099992115,num_4,0.25,1.1,0.2,0.9,7.37299,33.17846,return,1.8853995999961626,,,,,,,,,,,,,,,,,916,22,male,up_down_width,2024-10-23_14h36.52.014,exp1,2023.1.0,60.02483827504432,
,,,,,,,,,,,,,,,,3,9.5,10,10.5,0,0,0.5,0.25,0.25,1.25,10,initial,36.05,342,361,379,0,0,9,9,9,0,0,,,,,,,0,0,0,0,0,26,26,27,,,,,,,,,,,,num_4,1.1276079999806825,num_4,0.5,1.3,0.20000000000000007,0.9,7.37299,33.17846,return,2.8553454000211786,,,,,,,,,,,,,,,,,916,22,male,up_down_width,2024-10-23_14h36.52.014,exp1,2023.1.0,60.02483827504432,
,,,,,,,,,,,,,,,,5,9,9.5,10,10.5,11,0.5,0.25,0.25,2.25,10,initial,36.05,324,342,361,379,397,9,9,9,9,9,,,,,,,0,0,0,0,0,27,27,18,,,,,,,,,,,,num_6,0.9893944000068586,num_6,0.55,0.7,0.20000000000000007,0.5,7.37299,18.43248,return,3.1368437000201084,,,,,,,,,,,,,,,,,916,22,male,up_down_width,2024-10-23_14h36.52.014,exp1,2023.1.0,60.02483827504432,
,,,,,,,,,,,,,,,,5,9,9.5,10,10.5,11,0.5,0.25,0.25,2.25,10,initial,36.05,324,342,361,379,397,9,9,9,9,9,,,,,,,0,0,0,0,0,28,28,47,,,,,,,,,,,,num_7,2.4140174000058323,num_7,0.45,0.8,0.25000000000000006,0.6,9.21624,22.11898,return,1.9916890999884345,,,,,,,,,,,,,,,,,916,22,male,up_down_width,2024-10-23_14h36.52.014,exp1,2023.1.0,60.02483827504432,
,,,,,,,,,,,,,,,,5,9,9.5,10,10.5,11,0.5,0.25,0.25,2.25,10,initial,36.05,324,342,361,379,397,9,9,9,9,9,,,,,,,0,0,0,0,0,29,29,24,,,,,,,,,,,,num_6,1.2362553999992087,num_6,0.4,1.1,0.15000000000000008,0.7,5.52974,25.80547,return,4.3853195999981835,,,,,,,,,,,,,,,,,916,22,male,up_down_width,2024-10-23_14h36.52.014,exp1,2023.1.0,60.02483827504432,
,,,,,,,,,,,,,,,,4,9.25,9.75,10.25,10.75,0,0.5,0.25,0.25,1.75,10,initial,36.05,333,351,370,388,0,9,9,9,9,0,,,,,,,0,0,0,0,0,30,30,14,,,,,,,,,,,,num_5,1.0816545999841765,num_5,0.5,0.6,0.20000000000000007,0.5,7.37299,18.43248,return,2.069963199988706,,,,,,,,,,,,,,,,,916,22,male,up_down_width,2024-10-23_14h36.52.014,exp1,2023.1.0,60.02483827504432,
,,,,,,,,,,,,,,,,3,9.5,10,10.5,0,0,0.5,0.25,0.25,1.25,10,initial,36.05,342,361,379,0,0,9,9,9,0,0,,,,,,,0,0,0,0,0,31,31,8,,,,,,,,,,,,num_5,1.0162971999961883,num_5,0.35,0.7,0.25,0.6,9.21624,22.11898,return,1.4162078000081237,,,,,,,,,,,,,,,,,916,22,male,up_down_width,2024-10-23_14h36.52.014,exp1,2023.1.0,60.02483827504432,
,,,,,,,,,,,,,,,,5,9,9.5,10,10.5,11,0.5,0.25,0.25,2.25,10,initial,36.05,324,342,361,379,397,9,9,9,9,9,,,,,,,0,0,0,0,0,32,32,49,,,,,,,,,,,,num_6,1.1120604999887291,num_6,0.45,0.6,0.15000000000000008,0.4,5.52974,14.74598,return,3.847817599977134,,,,,,,,,,,,,,,,,916,22,male,up_down_width,2024-10-23_14h36.52.014,exp1,2023.1.0,60.02483827504432,
,,,,,,,,,,,,,,,,4,9.25,9.75,10.25,10.75,0,0.5,0.25,0.25,1.75,10,initial,36.05,333,351,370,388,0,9,9,9,9,0,,,,,,,0,0,0,0,0,33,33,17,,,,,,,,,,,,num_5,0.772844899998745,num_5,0.25,0.8,0.25,0.7,9.21624,25.80547,return,1.6309772999957204,,,,,,,,,,,,,,,,,916,22,male,up_down_width,2024-10-23_14h36.52.014,exp1,2023.1.0,60.02483827504432,
,,,,,,,,,,,,,,,,5,9,9.5,10,10.5,11,0.5,0.25,0.25,2.25,10,initial,36.05,324,342,361,379,397,9,9,9,9,9,,,,,,,0,0,0,0,0,34,34,21,,,,,,,,,,,,num_6,0.8121738999907393,num_6,0.25,0.7,0.3,0.7,11.05949,25.80547,return,3.077296000003116,,,,,,,,,,,,,,,,,916,22,male,up_down_width,2024-10-23_14h36.52.014,exp1,2023.1.0,60.02483827504432,
,,,,,,,,,,,,,,,,3,9.5,10,10.5,0,0,0.5,0.25,0.25,1.25,10,initial,36.05,342,361,379,0,0,9,9,9,0,0,,,,,,,0,0,0,0,0,35,35,4,,,,,,,,,,,,num_4,0.79345519997878,num_4,0.4,1.3,0.15000000000000008,0.8,5.52974,29.49197,return,3.700799799989909,,,,,,,,,,,,,,,,,916,22,male,up_down_width,2024-10-23_14h36.52.014,exp1,2023.1.0,60.02483827504432,
,,,,,,,,,,,,,,,,4,9.25,9.75,10.25,10.75,0,0.5,0.25,0.25,1.75,10,initial,36.05,333,351,370,388,0,9,9,9,9,0,,,,,,,0,0,0,0,0,36,36,44,,,,,,,,,,,,num_6,0.8110874999838416,num_6,0.45,1.2,0.15000000000000008,0.8,5.52974,29.49197,return,4.4221379999944475,,,,,,,,,,,,,,,,,916,22,male,up_down_width,2024-10-23_14h36.52.014,exp1,2023.1.0,60.02483827504432,
,,,,,,,,,,,,,,,,4,9.25,9.75,10.25,10.75,0,0.5,0.25,0.25,1.75,10,initial,36.05,333,351,370,388,0,9,9,9,9,0,,,,,,,0,0,0,0,0,37,37,13,,,,,,,,,,,,num_5,0.7798476000025403,num_5,0.4,1.3,0.25000000000000006,0.95,9.21624,35.02171,return,3.595188000006601,,,,,,,,,,,,,,,,,916,22,male,up_down_width,2024-10-23_14h36.52.014,exp1,2023.1.0,60.02483827504432,
,,,,,,,,,,,,,,,,3,9.5,10,10.5,0,0,0.5,0.25,0.25,1.25,10,initial,36.05,342,361,379,0,0,9,9,9,0,0,,,,,,,0,0,0,0,0,38,38,33,,,,,,,,,,,,num_3,0.9974542999989353,num_3,0.2,0.3,0.3,0.5,11.05949,18.43248,return,2.757805599976564,,,,,,,,,,,,,,,,,916,22,male,up_down_width,2024-10-23_14h36.52.014,exp1,2023.1.0,60.02483827504432,
,,,,,,,,,,,,,,,,4,9.25,9.75,10.25,10.75,0,0.5,0.25,0.25,1.75,10,initial,36.05,333,351,370,388,0,9,9,9,9,0,,,,,,,0,0,0,0,0,39,39,38,,,,,,,,,,,,num_6,1.360028199997032,num_6,0.2,1.3,0.25,0.7,9.21624,25.80547,return,3.701596199971391,,,,,,,,,,,,,,,,,916,22,male,up_down_width,2024-10-23_14h36.52.014,exp1,2023.1.0,60.02483827504432,
,,,,,,,,,,,,,,,,4,9.25,9.75,10.25,10.75,0,0.5,0.25,0.25,1.75,10,initial,36.05,333,351,370,388,0,9,9,9,9,0,,,,,,,0,0,0,0,0,40,40,36,,,,,,,,,,,,num_5,1.064985799981514,num_5,0.2,1.1,0.2,0.75,7.37299,27.64872,return,3.3839257000072394,,,,,,,,,,,,,,,,,916,22,male,up_down_width,2024-10-23_14h36.52.014,exp1,2023.1.0,60.02483827504432,
,,,,,,,,,,,,,,,,3,9.5,10,10.5,0,0,0.5,0.25,0.25,1.25,10,initial,36.05,342,361,379,0,0,9,9,9,0,0,,,,,,,0,0,0,0,0,41,41,29,,,,,,,,,,,,num_3,0.8432707999891136,num_3,0.45,0.5,0.25000000000000006,0.5,9.21624,18.43248,return,1.5607861999887973,,,,,,,,,,,,,,,,,916,22,male,up_down_width,2024-10-23_14h36.52.014,exp1,2023.1.0,60.02483827504432,
,,,,,,,,,,,,,,,,5,9,9.5,10,10.5,11,0.5,0.25,0.25,2.25,10,initial,36.05,324,342,361,379,397,9,9,9,9,9,,,,,,,0,0,0,0,0,42,42,26,,,,,,,,,,,,num_7,0.9037940999842249,num_7,0.3,0.8,0.3,0.7,11.05949,25.80547,return,1.0675563999975566,,,,,,,,,,,,,,,,,916,22,male,up_down_width,2024-10-23_14h36.52.014,exp1,2023.1.0,60.02483827504432,
,,,,,,,,,,,,,,,,5,9,9.5,10,10.5,11,0.5,0.25,0.25,2.25,10,initial,36.05,324,342,361,379,397,9,9,9,9,9,,,,,,,0,0,0,0,0,43,43,46,,,,,,,,,,,,num_6,0.8201097999990452,num_6,0.55,1.1,0.15000000000000008,0.8,5.52974,29.49197,return,2.834526399994502,,,,,,,,,,,,,,,,,916,22,male,up_down_width,2024-10-23_14h36.52.014,exp1,2023.1.0,60.02483827504432,
,,,,,,,,,,,,,,,,4,9.25,9.75,10.25,10.75,0,0.5,0.25,0.25,1.75,10,initial,36.05,333,351,370,388,0,9,9,9,9,0,,,,,,,0,0,0,0,0,44,44,40,,,,,,,,,,,,num_5,0.7388004999957047,num_5,0.45,0.8,0.25000000000000006,0.7,9.21624,25.80547,return,1.684112399991136,,,,,,,,,,,,,,,,,916,22,male,up_down_width,2024-10-23_14h36.52.014,exp1,2023.1.0,60.02483827504432,
,,,,,,,,,,,,,,,,5,9,9.5,10,10.5,11,0.5,0.25,0.25,2.25,10,initial,36.05,324,342,361,379,397,9,9,9,9,9,,,,,,,0,0,0,0,0,45,45,51,,,,,,,,,,,,num_6,0.9489231000188738,num_6,0.25,0.6,0.25,0.5,9.21624,18.43248,return,4.391642399976263,,,,,,,,,,,,,,,,,916,22,male,up_down_width,2024-10-23_14h36.52.014,exp1,2023.1.0,60.02483827504432,
,,,,,,,,,,,,,,,,5,9,9.5,10,10.5,11,0.5,0.25,0.25,2.25,10,initial,36.05,324,342,361,379,397,9,9,9,9,9,,,,,,,0,0,0,0,0,46,46,20,,,,,,,,,,,,num_5,0.7427970999851823,num_5,0.55,1.2,0.25000000000000006,0.75,9.21624,27.64872,return,3.552166400011629,,,,,,,,,,,,,,,,,916,22,male,up_down_width,2024-10-23_14h36.52.014,exp1,2023.1.0,60.02483827504432,
,,,,,,,,,,,,,,,,3,9.5,10,10.5,0,0,0.5,0.25,0.25,1.25,10,initial,36.05,342,361,379,0,0,9,9,9,0,0,,,,,,,0,0,0,0,0,47,47,7,,,,,,,,,,,,num_4,0.6890457000117749,num_4,0.3,0.3,0.10000000000000002,0.5,3.6865,18.43248,return,5.651180099986959,,,,,,,,,,,,,,,,,916,22,male,up_down_width,2024-10-23_14h36.52.014,exp1,2023.1.0,60.02483827504432,
,,,,,,,,,,,,,,,,3,9.5,10,10.5,0,0,0.5,0.25,0.25,1.25,10,initial,36.05,342,361,379,0,0,9,9,9,0,0,,,,,,,0,0,0,0,0,48,48,0,,,,,,,,,,,,num_3,0.9159771999984514,num_3,0.5,1,0.25000000000000006,0.7,9.21624,25.80547,return,3.784941299993079,,,,,,,,,,,,,,,,,916,22,male,up_down_width,2024-10-23_14h36.52.014,exp1,2023.1.0,60.02483827504432,
,,,,,,,,,,,,,,,,3,9.5,10,10.5,0,0,0.5,0.25,0.25,1.25,10,initial,36.05,342,361,379,0,0,9,9,9,0,0,,,,,,,0,0,0,0,0,49,49,3,,,,,,,,,,,,num_4,11.555822800000897,num_4,0.4,0.7,0.20000000000000007,0.5,7.37299,18.43248,return,2.8630530000082217,,,,,,,,,,,,,,,,,916,22,male,up_down_width,2024-10-23_14h36.52.014,exp1,2023.1.0,60.02483827504432,
,,,,,,,,,,,,,,,,4,9.25,9.75,10.25,10.75,0,0.5,0.25,0.25,1.75,10,initial,36.05,333,351,370,388,0,9,9,9,9,0,,,,,,,0,0,0,0,0,50,50,11,,,,,,,,,,,,num_6,0.979098099982366,num_6,0.3,0.6,0.15000000000000002,0.4,5.52974,14.74598,return,2.099834499997087,,,,,,,,,,,,,,,,,916,22,male,up_down_width,2024-10-23_14h36.52.014,exp1,2023.1.0,60.02483827504432,
,,,,,,,,,,,,,,,,5,9,9.5,10,10.5,11,0.5,0.25,0.25,2.25,10,initial,36.05,324,342,361,379,397,9,9,9,9,9,,,,,,,0,0,0,0,0,51,51,23,,,,,,,,,,,,num_6,0.8031173999770544,num_6,0.25,0.3,0.35,0.7,12.90274,25.80547,return,4.429438199993456,,,,,,,,,,,,,,,,,916,22,male,up_down_width,2024-10-23_14h36.52.014,exp1,2023.1.0,60.02483827504432,
,,,,,,,,,,,,,,,,5,9,9.5,10,10.5,11,0.5,0.25,0.25,2.25,10,initial,36.05,324,342,361,379,397,9,9,9,9,9,,,,,,,0,0,0,0,0,52,52,52,,,,,,,,,,,,num_6,0.7927003000222612,num_6,0.45,1.1,0.25000000000000006,0.9,9.21624,33.17846,return,2.4072996999893803,,,,,,,,,,,,,,,,,916,22,male,up_down_width,2024-10-23_14h36.52.014,exp1,2023.1.0,60.02483827504432,
,,,,,,,,,,,,,,,,5,9,9.5,10,10.5,11,0.5,0.25,0.25,2.25,10,initial,36.05,324,342,361,379,397,9,9,9,9,9,,,,,,,0,0,0,0,0,53,53,50,,,,,,,,,,,,num_6,0.9322329999995418,num_6,0.45,0.7,0.20000000000000007,0.5,7.37299,18.43248,return,2.4789586999977473,,,,,,,,,,,,,,,,,916,22,male,up_down_width,2024-10-23_14h36.52.014,exp1,2023.1.0,60.02483827504432,
,,,,,,,,,,,,,,,,,,,,,,,,,,,,,,,,,,,,,,,,,,,,,0,0,0,0,,,,,,,,,,,,,,,,,,,,,,,,,,,,,678.4385299999849,678.4385299999849,678.4385299999849,,,,,,,,,,,,916,22,male,up_down_width,2024-10-23_14h36.52.014,exp1,2023.1.0,60.02483827504432,
,,,,,,,,,,,,,,,,3,9.5,10,10.5,0,0,0.5,0.1,0.4,1.4000000000000001,10,initial,36.05,342,361,379,0,0,9,9,9,0,0,,,,,,,1,0,1,0,0,0,0,27,,,,,,,,,,,,num_3,0.8507831000024453,num_3,0.55,0.9,0.55,0.8,20.27573,29.49197,return,3.180260199995246,,,,,,,,,,,,,,,,,916,22,male,up_down_width,2024-10-23_14h36.52.014,exp1,2023.1.0,60.02483827504432,
,,,,,,,,,,,,,,,,4,9.25,9.75,10.25,10.75,0,0.5,0.1,0.4,1.9000000000000001,10,initial,36.05,333,351,370,388,0,9,9,9,9,0,,,,,,,1,0,1,0,0,1,1,11,,,,,,,,,,,,num_4,0.9060653000196908,num_4,0.55,0.6,0.45,0.8,16.58923,29.49197,return,2.7849398000107612,,,,,,,,,,,,,,,,,916,22,male,up_down_width,2024-10-23_14h36.52.014,exp1,2023.1.0,60.02483827504432,
,,,,,,,,,,,,,,,,3,9.5,10,10.5,0,0,0.5,0.1,0.4,1.4000000000000001,10,initial,36.05,342,361,379,0,0,9,9,9,0,0,,,,,,,1,0,1,0,0,2,2,1,,,,,,,,,,,,num_3,0.8700064999866299,num_3,0.4,1.2,0.55,1.05,20.27573,38.70821,return,2.4659078999829944,,,,,,,,,,,,,,,,,916,22,male,up_down_width,2024-10-23_14h36.52.014,exp1,2023.1.0,60.02483827504432,
,,,,,,,,,,,,,,,,3,9.5,10,10.5,0,0,0.5,0.1,0.4,1.4000000000000001,10,initial,36.05,342,361,379,0,0,9,9,9,0,0,,,,,,,1,0,1,0,0,3,3,3,,,,,,,,,,,,num_4,0.9410147000162397,num_4,0.5,0.6,0.5,0.6,18.43248,22.11898,return,1.0257542000035755,,,,,,,,,,,,,,,,,916,22,male,up_down_width,2024-10-23_14h36.52.014,exp1,2023.1.0,60.02483827504432,
,,,,,,,,,,,,,,,,4,9.25,9.75,10.25,10.75,0,0.5,0.1,0.4,1.9000000000000001,10,initial,36.05,333,351,370,388,0,9,9,9,9,0,,,,,,,1,0,1,0,0,4,4,38,,,,,,,,,,,,num_5,1.0946331000013743,num_5,0.5,0.9,0.45,0.7,16.58923,25.80547,return,4.16564570000628,,,,,,,,,,,,,,,,,916,22,male,up_down_width,2024-10-23_14h36.52.014,exp1,2023.1.0,60.02483827504432,
,,,,,,,,,,,,,,,,4,9.25,9.75,10.25,10.75,0,0.5,0.1,0.4,1.9000000000000001,10,initial,36.05,333,351,370,388,0,9,9,9,9,0,,,,,,,1,0,1,0,0,5,5,16,,,,,,,,,,,,num_4,0.8516267999948468,num_4,0.35,0.4,0.49999999999999994,0.7,18.43248,25.80547,return,4.3365661999851,,,,,,,,,,,,,,,,,916,22,male,up_down_width,2024-10-23_14h36.52.014,exp1,2023.1.0,60.02483827504432,
,,,,,,,,,,,,,,,,3,9.5,10,10.5,0,0,0.5,0.1,0.4,1.4000000000000001,10,initial,36.05,342,361,379,0,0,9,9,9,0,0,,,,,,,1,0,1,0,0,6,6,5,,,,,,,,,,,,num_4,0.8683694000064861,num_4,0.4,1.0,0.6500000000000001,0.8,23.96222,29.49197,return,2.108744299999671,,,,,,,,,,,,,,,,,916,22,male,up_down_width,2024-10-23_14h36.52.014,exp1,2023.1.0,60.02483827504432,
,,,,,,,,,,,,,,,,3,9.5,10,10.5,0,0,0.5,0.1,0.4,1.4000000000000001,10,initial,36.05,342,361,379,0,0,9,9,9,0,0,,,,,,,1,0,1,0,0,7,7,4,,,,,,,,,,,,num_3,0.7493148999928962,num_3,0.3,0.5,0.5499999999999999,0.75,20.27573,27.64872,return,2.8738961999770254,,,,,,,,,,,,,,,,,916,22,male,up_down_width,2024-10-23_14h36.52.014,exp1,2023.1.0,60.02483827504432,
,,,,,,,,,,,,,,,,3,9.5,10,10.5,0,0,0.5,0.1,0.4,1.4000000000000001,10,initial,36.05,342,361,379,0,0,9,9,9,0,0,,,,,,,1,0,1,0,0,8,8,6,,,,,,,,,,,,num_3,0.6930032000236679,num_3,0.4,0.6,0.6000000000000001,0.75,22.11898,27.64872,return,2.119580099999439,,,,,,,,,,,,,,,,,916,22,male,up_down_width,2024-10-23_14h36.52.014,exp1,2023.1.0,60.02483827504432,
,,,,,,,,,,,,,,,,3,9.5,10,10.5,0,0,0.5,0.1,0.4,1.4000000000000001,10,initial,36.05,342,361,379,0,0,9,9,9,0,0,,,,,,,1,0,1,0,0,9,9,0,,,,,,,,,,,,num_3,0.7406550000014249,num_3,0.35,0.9,0.49999999999999994,0.95,18.43248,35.02171,return,1.7894785999960732,,,,,,,,,,,,,,,,,916,22,male,up_down_width,2024-10-23_14h36.52.014,exp1,2023.1.0,60.02483827504432,
,,,,,,,,,,,,,,,,5,9,9.5,10,10.5,11,0.5,0.1,0.4,2.4,10,initial,36.05,324,342,361,379,397,9,9,9,9,9,,,,,,,1,0,1,0,0,10,10,50,,,,,,,,,,,,num_5,0.9495651999895927,num_5,0.5,0.9,0.6500000000000001,0.95,23.96222,35.02171,return,1.8363895999791566,,,,,,,,,,,,,,,,,916,22,male,up_down_width,2024-10-23_14h36.52.014,exp1,2023.1.0,60.02483827504432,
,,,,,,,,,,,,,,,,5,9,9.5,10,10.5,11,0.5,0.1,0.4,2.4,10,initial,36.05,324,342,361,379,397,9,9,9,9,9,,,,,,,1,0,1,0,0,11,11,23,,,,,,,,,,,,num_5,0.72802270000102,num_5,0.4,1.3,0.6500000000000001,1.15,23.96222,42.3947,return,3.3676111999957357,,,,,,,,,,,,,,,,,916,22,male,up_down_width,2024-10-23_14h36.52.014,exp1,2023.1.0,60.02483827504432,
,,,,,,,,,,,,,,,,3,9.5,10,10.5,0,0,0.5,0.1,0.4,1.4000000000000001,10,initial,36.05,342,361,379,0,0,9,9,9,0,0,,,,,,,1,0,1,0,0,12,12,2,,,,,,,,,,,,num_3,0.8012412000098266,num_3,0.3,0.9,0.6,0.95,22.11898,35.02171,return,2.2866899999789894,,,,,,,,,,,,,,,,,916,22,male,up_down_width,2024-10-23_14h36.52.014,exp1,2023.1.0,60.02483827504432,
,,,,,,,,,,,,,,,,4,9.25,9.75,10.25,10.75,0,0.5,0.1,0.4,1.9000000000000001,10,initial,36.05,333,351,370,388,0,9,9,9,9,0,,,,,,,1,0,1,0,0,13,13,39,,,,,,,,,,,,num_4,0.7684085000073537,num_4,0.55,0.9,0.6500000000000001,0.8,23.96222,29.49197,return,2.368096499994863,,,,,,,,,,,,,,,,,916,22,male,up_down_width,2024-10-23_14h36.52.014,exp1,2023.1.0,60.02483827504432,
,,,,,,,,,,,,,,,,5,9,9.5,10,10.5,11,0.5,0.1,0.4,2.4,10,initial,36.05,324,342,361,379,397,9,9,9,9,9,,,,,,,1,0,1,0,0,14,14,18,,,,,,,,,,,,num_5,0.6080309000099078,num_5,0.55,0.7,0.6000000000000001,0.75,22.11898,27.64872,return,1.5405921999772545,,,,,,,,,,,,,,,,,916,22,male,up_down_width,2024-10-23_14h36.52.014,exp1,2023.1.0,60.02483827504432,
,,,,,,,,,,,,,,,,5,9,9.5,10,10.5,11,0.5,0.1,0.4,2.4,10,initial,36.05,324,342,361,379,397,9,9,9,9,9,,,,,,,1,0,1,0,0,15,15,19,,,,,,,,,,,,num_5,0.6938182999729179,num_5,0.35,0.4,0.49999999999999994,0.7,18.43248,25.80547,return,3.040708300017286,,,,,,,,,,,,,,,,,916,22,male,up_down_width,2024-10-23_14h36.52.014,exp1,2023.1.0,60.02483827504432,
,,,,,,,,,,,,,,,,5,9,9.5,10,10.5,11,0.5,0.1,0.4,2.4,10,initial,36.05,324,342,361,379,397,9,9,9,9,9,,,,,,,1,0,1,0,0,16,16,25,,,,,,,,,,,,num_5,0.7444467000022996,num_5,0.35,0.6,0.5499999999999999,0.8,20.27573,29.49197,return,2.152364299981855,,,,,,,,,,,,,,,,,916,22,male,up_down_width,2024-10-23_14h36.52.014,exp1,2023.1.0,60.02483827504432,
,,,,,,,,,,,,,,,,4,9.25,9.75,10.25,10.75,0,0.5,0.1,0.4,1.9000000000000001,10,initial,36.05,333,351,370,388,0,9,9,9,9,0,,,,,,,1,0,1,0,0,17,17,42,,,,,,,,,,,,num_5,0.7680231000122149,num_5,0.3,1.2,0.65,1.05,23.96222,38.70821,return,13.739377699996112,,,,,,,,,,,,,,,,,916,22,male,up_down_width,2024-10-23_14h36.52.014,exp1,2023.1.0,60.02483827504432,
,,,,,,,,,,,,,,,,4,9.25,9.75,10.25,10.75,0,0.5,0.1,0.4,1.9000000000000001,10,initial,36.05,333,351,370,388,0,9,9,9,9,0,,,,,,,1,0,1,0,0,18,18,36,,,,,,,,,,,,num_4,0.6924566999950912,num_4,0.25,0.9,0.5499999999999999,0.8,20.27573,29.49197,return,2.6740750999888405,,,,,,,,,,,,,,,,,916,22,male,up_down_width,2024-10-23_14h36.52.014,exp1,2023.1.0,60.02483827504432,
,,,,,,,,,,,,,,,,4,9.25,9.75,10.25,10.75,0,0.5,0.1,0.4,1.9000000000000001,10,initial,36.05,333,351,370,388,0,9,9,9,9,0,,,,,,,1,0,1,0,0,19,19,41,,,,,,,,,,,,num_4,0.6974113999749534,num_4,0.5,0.6,0.55,0.9,20.27573,33.17846,return,1.8334035000007134,,,,,,,,,,,,,,,,,916,22,male,up_down_width,2024-10-23_14h36.52.014,exp1,2023.1.0,60.02483827504432,
,,,,,,,,,,,,,,,,5,9,9.5,10,10.5,11,0.5,0.1,0.4,2.4,10,initial,36.05,324,342,361,379,397,9,9,9,9,9,,,,,,,1,0,1,0,0,20,20,47,,,,,,,,,,,,num_5,0.682994900009362,num_5,0.5,1.2,0.6500000000000001,1.05,23.96222,38.70821,return,2.238213899981929,,,,,,,,,,,,,,,,,916,22,male,up_down_width,2024-10-23_14h36.52.014,exp1,2023.1.0,60.02483827504432,
,,,,,,,,,,,,,,,,5,9,9.5,10,10.5,11,0.5,0.1,0.4,2.4,10,initial,36.05,324,342,361,379,397,9,9,9,9,9,,,,,,,1,0,1,0,0,21,21,26,,,,,,,,,,,,num_6,0.904801700002281,num_6,0.25,1.0,0.5499999999999999,0.7,20.27573,25.80547,return,2.737773799977731,,,,,,,,,,,,,,,,,916,22,male,up_down_width,2024-10-23_14h36.52.014,exp1,2023.1.0,60.02483827504432,
,,,,,,,,,,,,,,,,3,9.5,10,10.5,0,0,0.5,0.1,0.4,1.4000000000000001,10,initial,36.05,342,361,379,0,0,9,9,9,0,0,,,,,,,1,0,1,0,0,22,22,8,,,,,,,,,,,,num_3,0.7447038999816868,num_3,0.25,0.5,0.39999999999999997,0.6,14.74598,22.11898,return,1.3322978999931365,,,,,,,,,,,,,,,,,916,22,male,up_down_width,2024-10-23_14h36.52.014,exp1,2023.1.0,60.02483827504432,
,,,,,,,,,,,,,,,,4,9.25,9.75,10.25,10.75,0,0.5,0.1,0.4,1.9000000000000001,10,initial,36.05,333,351,370,388,0,9,9,9,9,0,,,,,,,1,0,1,0,0,23,23,37,,,,,,,,,,,,num_5,0.9992695999972057,num_5,0.2,1.0,0.49999999999999994,0.85,18.43248,31.33522,return,2.9556016999995336,,,,,,,,,,,,,,,,,916,22,male,up_down_width,2024-10-23_14h36.52.014,exp1,2023.1.0,60.02483827504432,
,,,,,,,,,,,,,,,,4,9.25,9.75,10.25,10.75,0,0.5,0.1,0.4,1.9000000000000001,10,initial,36.05,333,351,370,388,0,9,9,9,9,0,,,,,,,1,0,1,0,0,24,24,43,,,,,,,,,,,,num_4,0.6872411999793258,num_4,0.3,0.8,0.5499999999999999,0.8,20.27573,29.49197,return,2.990725099982228,,,,,,,,,,,,,,,,,916,22,male,up_down_width,2024-10-23_14h36.52.014,exp1,2023.1.0,60.02483827504432,
,,,,,,,,,,,,,,,,3,9.5,10,10.5,0,0,0.5,0.1,0.4,1.4000000000000001,10,initial,36.05,342,361,379,0,0,9,9,9,0,0,,,,,,,1,0,1,0,0,25,25,35,,,,,,,,,,,,num_4,0.7482160000072327,num_4,0.55,0.9,0.6000000000000001,0.8,22.11898,29.49197,return,1.484824099985417,,,,,,,,,,,,,,,,,916,22,male,up_down_width,2024-10-23_14h36.52.014,exp1,2023.1.0,60.02483827504432,
,,,,,,,,,,,,,,,,4,9.25,9.75,10.25,10.75,0,0.5,0.1,0.4,1.9000000000000001,10,initial,36.05,333,351,370,388,0,9,9,9,9,0,,,,,,,1,0,1,0,0,26,26,44,,,,,,,,,,,,num_4,0.6914348999853246,num_4,0.35,0.8,0.49999999999999994,0.8,18.43248,29.49197,return,2.788270699995337,,,,,,,,,,,,,,,,,916,22,male,up_down_width,2024-10-23_14h36.52.014,exp1,2023.1.0,60.02483827504432,
,,,,,,,,,,,,,,,,4,9.25,9.75,10.25,10.75,0,0.5,0.1,0.4,1.9000000000000001,10,initial,36.05,333,351,370,388,0,9,9,9,9,0,,,,,,,1,0,1,0,0,27,27,40,,,,,,,,,,,,num_5,0.7355222000041977,num_5,0.4,0.9,0.55,0.8,20.27573,29.49197,return,2.1731634000025224,,,,,,,,,,,,,,,,,916,22,male,up_down_width,2024-10-23_14h36.52.014,exp1,2023.1.0,60.02483827504432,
,,,,,,,,,,,,,,,,3,9.5,10,10.5,0,0,0.5,0.1,0.4,1.4000000000000001,10,initial,36.05,342,361,379,0,0,9,9,9,0,0,,,,,,,1,0,1,0,0,28,28,7,,,,,,,,,,,,num_4,0.809991899994202,num_4,0.3,1.1,0.49999999999999994,0.9,18.43248,33.17846,return,2.0843497999885585,,,,,,,,,,,,,,,,,916,22,male,up_down_width,2024-10-23_14h36.52.014,exp1,2023.1.0,60.02483827504432,
,,,,,,,,,,,,,,,,5,9,9.5,10,10.5,11,0.5,0.1,0.4,2.4,10,initial,36.05,324,342,361,379,397,9,9,9,9,9,,,,,,,1,0,1,0,0,29,29,49,,,,,,,,,,,,num_5,1.2467145000118762,num_5,0.4,0.8,0.5,0.9,18.43248,33.17846,return,2.0597505000187084,,,,,,,,,,,,,,,,,916,22,male,up_down_width,2024-10-23_14h36.52.014,exp1,2023.1.0,60.02483827504432,
,,,,,,,,,,,,,,,,4,9.25,9.75,10.25,10.75,0,0.5,0.1,0.4,1.9000000000000001,10,initial,36.05,333,351,370,388,0,9,9,9,9,0,,,,,,,1,0,1,0,0,30,30,17,,,,,,,,,,,,num_5,0.6315560999792069,num_5,0.3,1.1,0.6,1.0,22.11898,36.86496,return,1.99329219997162,,,,,,,,,,,,,,,,,916,22,male,up_down_width,2024-10-23_14h36.52.014,exp1,2023.1.0,60.02483827504432,
,,,,,,,,,,,,,,,,4,9.25,9.75,10.25,10.75,0,0.5,0.1,0.4,1.9000000000000001,10,initial,36.05,333,351,370,388,0,9,9,9,9,0,,,,,,,1,0,1,0,0,31,31,12,,,,,,,,,,,,num_4,0.6560433999984525,num_4,0.5,0.6,0.45,0.8,16.58923,29.49197,return,2.5131380999810062,,,,,,,,,,,,,,,,,916,22,male,up_down_width,2024-10-23_14h36.52.014,exp1,2023.1.0,60.02483827504432,
,,,,,,,,,,,,,,,,5,9,9.5,10,10.5,11,0.5,0.1,0.4,2.4,10,initial,36.05,324,342,361,379,397,9,9,9,9,9,,,,,,,1,0,1,0,0,32,32,21,,,,,,,,,,,,num_5,0.8817026000178885,num_5,0.4,1.0,0.55,0.9,20.27573,33.17846,return,2.936534600012237,,,,,,,,,,,,,,,,,916,22,male,up_down_width,2024-10-23_14h36.52.014,exp1,2023.1.0,60.02483827504432,
,,,,,,,,,,,,,,,,3,9.5,10,10.5,0,0,0.5,0.1,0.4,1.4000000000000001,10,initial,36.05,342,361,379,0,0,9,9,9,0,0,,,,,,,1,0,1,0,0,33,33,28,,,,,,,,,,,,num_3,1.658733599993866,num_3,0.45,1,0.55,0.8,20.27573,29.49197,return,5.750809599994682,,,,,,,,,,,,,,,,,916,22,male,up_down_width,2024-10-23_14h36.52.014,exp1,2023.1.0,60.02483827504432,
,,,,,,,,,,,,,,,,4,9.25,9.75,10.25,10.75,0,0.5,0.1,0.4,1.9000000000000001,10,initial,36.05,333,351,370,388,0,9,9,9,9,0,,,,,,,1,0,1,0,0,34,34,9,,,,,,,,,,,,num_4,0.7829898000054527,num_4,0.4,1.3,0.6000000000000001,0.9,22.11898,33.17846,return,1.849241499992786,,,,,,,,,,,,,,,,,916,22,male,up_down_width,2024-10-23_14h36.52.014,exp1,2023.1.0,60.02483827504432,
,,,,,,,,,,,,,,,,5,9,9.5,10,10.5,11,0.5,0.1,0.4,2.4,10,initial,36.05,324,342,361,379,397,9,9,9,9,9,,,,,,,1,0,1,0,0,35,35,45,,,,,,,,,,,,num_5,0.9326925000059418,num_5,0.55,1.3,0.55,0.85,20.27573,31.33522,return,5.92959189999965,,,,,,,,,,,,,,,,,916,22,male,up_down_width,2024-10-23_14h36.52.014,exp1,2023.1.0,60.02483827504432,
,,,,,,,,,,,,,,,,4,9.25,9.75,10.25,10.75,0,0.5,0.1,0.4,1.9000000000000001,10,initial,36.05,333,351,370,388,0,9,9,9,9,0,,,,,,,1,0,1,0,0,36,36,15,,,,,,,,,,,,num_4,0.7315010999736842,num_4,0.45,0.8,0.5,0.8,18.43248,29.49197,return,2.6187577999953646,,,,,,,,,,,,,,,,,916,22,male,up_down_width,2024-10-23_14h36.52.014,exp1,2023.1.0,60.02483827504432,
,,,,,,,,,,,,,,,,5,9,9.5,10,10.5,11,0.5,0.1,0.4,2.4,10,initial,36.05,324,342,361,379,397,9,9,9,9,9,,,,,,,1,0,1,0,0,37,37,24,,,,,,,,,,,,num_5,0.7158850000123493,num_5,0.4,1.2,0.6000000000000001,0.95,22.11898,35.02171,return,2.956110900006024,,,,,,,,,,,,,,,,,916,22,male,up_down_width,2024-10-23_14h36.52.014,exp1,2023.1.0,60.02483827504432,
,,,,,,,,,,,,,,,,5,9,9.5,10,10.5,11,0.5,0.1,0.4,2.4,10,initial,36.05,324,342,361,379,397,9,9,9,9,9,,,,,,,1,0,1,0,0,38,38,46,,,,,,,,,,,,num_7,1.617377899994608,num_7,0.5,1.2,0.4,0.75,14.74598,27.64872,return,3.8531067999720108,,,,,,,,,,,,,,,,,916,22,male,up_down_width,2024-10-23_14h36.52.014,exp1,2023.1.0,60.02483827504432,
,,,,,,,,,,,,,,,,3,9.5,10,10.5,0,0,0.5,0.1,0.4,1.4000000000000001,10,initial,36.05,342,361,379,0,0,9,9,9,0,0,,,,,,,1,0,1,0,0,39,39,29,,,,,,,,,,,,num_3,0.9300555000081658,num_3,0.35,1.3,0.49999999999999994,0.95,18.43248,35.02171,return,3.932760399999097,,,,,,,,,,,,,,,,,916,22,male,up_down_width,2024-10-23_14h36.52.014,exp1,2023.1.0,60.02483827504432,
,,,,,,,,,,,,,,,,5,9,9.5,10,10.5,11,0.5,0.1,0.4,2.4,10,initial,36.05,324,342,361,379,397,9,9,9,9,9,,,,,,,1,0,1,0,0,40,40,51,,,,,,,,,,,,num_5,0.7361375999753363,num_5,0.55,0.9,0.55,0.9,20.27573,33.17846,return,1.5527213999885134,,,,,,,,,,,,,,,,,916,22,male,up_down_width,2024-10-23_14h36.52.014,exp1,2023.1.0,60.02483827504432,
,,,,,,,,,,,,,,,,5,9,9.5,10,10.5,11,0.5,0.1,0.4,2.4,10,initial,36.05,324,342,361,379,397,9,9,9,9,9,,,,,,,1,0,1,0,0,41,41,53,,,,,,,,,,,,num_6,1.068572399992263,num_6,0.3,0.4,0.3,0.4,11.05949,14.74598,return,1.0206766999908723,,,,,,,,,,,,,,,,,916,22,male,up_down_width,2024-10-23_14h36.52.014,exp1,2023.1.0,60.02483827504432,
,,,,,,,,,,,,,,,,3,9.5,10,10.5,0,0,0.5,0.1,0.4,1.4000000000000001,10,initial,36.05,342,361,379,0,0,9,9,9,0,0,,,,,,,1,0,1,0,0,42,42,30,,,,,,,,,,,,num_4,2.155599699995946,num_4,0.35,1.3,0.3,0.6,11.05949,22.11898,return,3.395601299998816,,,,,,,,,,,,,,,,,916,22,male,up_down_width,2024-10-23_14h36.52.014,exp1,2023.1.0,60.02483827504432,
,,,,,,,,,,,,,,,,5,9,9.5,10,10.5,11,0.5,0.1,0.4,2.4,10,initial,36.05,324,342,361,379,397,9,9,9,9,9,,,,,,,1,0,1,0,0,43,43,20,,,,,,,,,,,,num_5,0.7241445000108797,num_5,0.55,0.9,0.5,0.8,18.43248,29.49197,return,3.6371265999914613,,,,,,,,,,,,,,,,,916,22,male,up_down_width,2024-10-23_14h36.52.014,exp1,2023.1.0,60.02483827504432,
,,,,,,,,,,,,,,,,4,9.25,9.75,10.25,10.75,0,0.5,0.1,0.4,1.9000000000000001,10,initial,36.05,333,351,370,388,0,9,9,9,9,0,,,,,,,1,0,1,0,0,44,44,10,,,,,,,,,,,,num_5,0.8306930999970064,num_5,0.35,0.4,0.44999999999999996,0.7,16.58923,25.80547,return,3.4326526999939233,,,,,,,,,,,,,,,,,916,22,male,up_down_width,2024-10-23_14h36.52.014,exp1,2023.1.0,60.02483827504432,
,,,,,,,,,,,,,,,,3,9.5,10,10.5,0,0,0.5,0.1,0.4,1.4000000000000001,10,initial,36.05,342,361,379,0,0,9,9,9,0,0,,,,,,,1,0,1,0,0,45,45,32,,,,,,,,,,,,num_3,0.7517691999964882,num_3,0.45,1.1,0.45,0.85,16.58923,31.33522,return,1.8696804999781307,,,,,,,,,,,,,,,,,916,22,male,up_down_width,2024-10-23_14h36.52.014,exp1,2023.1.0,60.02483827504432,
,,,,,,,,,,,,,,,,3,9.5,10,10.5,0,0,0.5,0.1,0.4,1.4000000000000001,10,initial,36.05,342,361,379,0,0,9,9,9,0,0,,,,,,,1,0,1,0,0,46,46,33,,,,,,,,,,,,num_4,0.7392935999960173,num_4,0.25,1.2,0.49999999999999994,0.8,18.43248,29.49197,return,2.2095837999950163,,,,,,,,,,,,,,,,,916,22,male,up_down_width,2024-10-23_14h36.52.014,exp1,2023.1.0,60.02483827504432,
,,,,,,,,,,,,,,,,5,9,9.5,10,10.5,11,0.5,0.1,0.4,2.4,10,initial,36.05,324,342,361,379,397,9,9,9,9,9,,,,,,,1,0,1,0,0,47,47,22,,,,,,,,,,,,num_5,0.5976833999739029,num_5,0.2,0.4,0.39999999999999997,0.65,14.74598,23.96222,return,2.327533300005598,,,,,,,,,,,,,,,,,916,22,male,up_down_width,2024-10-23_14h36.52.014,exp1,2023.1.0,60.02483827504432,
,,,,,,,,,,,,,,,,3,9.5,10,10.5,0,0,0.5,0.1,0.4,1.4000000000000001,10,initial,36.05,342,361,379,0,0,9,9,9,0,0,,,,,,,1,0,1,0,0,48,48,34,,,,,,,,,,,,num_3,1.0159594000142533,num_3,0.2,1.3,0.44999999999999996,1.1,16.58923,40.55146,return,3.7848004999978,,,,,,,,,,,,,,,,,916,22,male,up_down_width,2024-10-23_14h36.52.014,exp1,2023.1.0,60.02483827504432,
,,,,,,,,,,,,,,,,5,9,9.5,10,10.5,11,0.5,0.1,0.4,2.4,10,initial,36.05,324,342,361,379,397,9,9,9,9,9,,,,,,,1,0,1,0,0,49,49,52,,,,,,,,,,,,num_6,0.8786673999857157,num_6,0.4,0.7,0.4,0.6,14.74598,22.11898,return,1.24017659999663,,,,,,,,,,,,,,,,,916,22,male,up_down_width,2024-10-23_14h36.52.014,exp1,2023.1.0,60.02483827504432,
,,,,,,,,,,,,,,,,4,9.25,9.75,10.25,10.75,0,0.5,0.1,0.4,1.9000000000000001,10,initial,36.05,333,351,370,388,0,9,9,9,9,0,,,,,,,1,0,1,0,0,50,50,13,,,,,,,,,,,,num_4,0.7201342000043951,num_4,0.4,0.7,0.45,0.8,16.58923,29.49197,return,0.827158000000054,,,,,,,,,,,,,,,,,916,22,male,up_down_width,2024-10-23_14h36.52.014,exp1,2023.1.0,60.02483827504432,
,,,,,,,,,,,,,,,,4,9.25,9.75,10.25,10.75,0,0.5,0.1,0.4,1.9000000000000001,10,initial,36.05,333,351,370,388,0,9,9,9,9,0,,,,,,,1,0,1,0,0,51,51,14,,,,,,,,,,,,num_4,0.6757014999748208,num_4,0.25,0.7,0.39999999999999997,0.6,14.74598,22.11898,return,1.782520899985684,,,,,,,,,,,,,,,,,916,22,male,up_down_width,2024-10-23_14h36.52.014,exp1,2023.1.0,60.02483827504432,
,,,,,,,,,,,,,,,,5,9,9.5,10,10.5,11,0.5,0.1,0.4,2.4,10,initial,36.05,324,342,361,379,397,9,9,9,9,9,,,,,,,1,0,1,0,0,52,52,48,,,,,,,,,,,,num_5,0.6482466000015847,num_5,0.25,1.3,0.44999999999999996,0.85,16.58923,31.33522,return,3.1482086000032723,,,,,,,,,,,,,,,,,916,22,male,up_down_width,2024-10-23_14h36.52.014,exp1,2023.1.0,60.02483827504432,
,,,,,,,,,,,,,,,,3,9.5,10,10.5,0,0,0.5,0.1,0.4,1.4000000000000001,10,initial,36.05,342,361,379,0,0,9,9,9,0,0,,,,,,,1,0,1,0,0,53,53,31,,,,,,,,,,,,num_4,0.8988341999938712,num_4,0.45,0.6,0.4,0.8,14.74598,29.49197,return,1.8320113999943715,,,,,,,,,,,,,,,,,916,22,male,up_down_width,2024-10-23_14h36.52.014,exp1,2023.1.0,60.02483827504432,
,,,,,,,,,,,,,,,,,,,,,,,,,,,,,,,,,,,,,,,,,,,,,1,0,1,0,,,,,,,,,,,,,,,,,,,,,,,,,,,,,972.6027121999941,972.6027121999941,972.6027121999941,,,,,,,,,,,,916,22,male,up_down_width,2024-10-23_14h36.52.014,exp1,2023.1.0,60.02483827504432,
,,,,,,,,,,,,,,,,4,8.65,9.55,10.45,11.35,0,0.9,0.35,0.55,3.25,10,initial,36.05,312,344,377,409,0,9,9,9,9,0,,,,,,,2,0,2,0,0,0,0,16,,,,,,,,,,,,num_4,0.7897685999923851,num_4,0.2,0.6,0.39999999999999997,0.9,14.74598,33.17846,return,3.157111899985466,,,,,,,,,,,,,,,,,916,22,male,up_down_width,2024-10-23_14h36.52.014,exp1,2023.1.0,60.02483827504432,
,,,,,,,,,,,,,,,,3,9.1,10,10.9,0,0,0.9,0.35,0.55,2.35,10,initial,36.05,328,361,393,0,0,9,9,9,0,0,,,,,,,2,0,2,0,0,1,1,32,,,,,,,,,,,,num_3,0.8319018999754917,num_3,0.25,1.1,0.5499999999999999,1.25,20.27573,46.0812,return,2.220968699984951,,,,,,,,,,,,,,,,,916,22,male,up_down_width,2024-10-23_14h36.52.014,exp1,2023.1.0,60.02483827504432,
,,,,,,,,,,,,,,,,4,8.65,9.55,10.45,11.35,0,0.9,0.35,0.55,3.25,10,initial,36.05,312,344,377,409,0,9,9,9,9,0,,,,,,,2,0,2,0,0,2,2,13,,,,,,,,,,,,num_4,0.725773800018942,num_4,0.55,1.2,0.6000000000000001,1.4,22.11898,51.61094,return,1.0131745999970008,,,,,,,,,,,,,,,,,916,22,male,up_down_width,2024-10-23_14h36.52.014,exp1,2023.1.0,60.02483827504432,
,,,,,,,,,,,,,,,,3,9.1,10,10.9,0,0,0.9,0.35,0.55,2.35,10,initial,36.05,328,361,393,0,0,9,9,9,0,0,,,,,,,2,0,2,0,0,3,3,8,,,,,,,,,,,,num_3,0.6809728999796789,num_3,0.5,1,0.5,1.05,18.43248,38.70821,return,2.1397446999908425,,,,,,,,,,,,,,,,,916,22,male,up_down_width,2024-10-23_14h36.52.014,exp1,2023.1.0,60.02483827504432,
,,,,,,,,,,,,,,,,3,9.1,10,10.9,0,0,0.9,0.35,0.55,2.35,10,initial,36.05,328,361,393,0,0,9,9,9,0,0,,,,,,,2,0,2,0,0,4,4,1,,,,,,,,,,,,num_3,0.6440013999817893,num_3,0.45,1,0.45,1.1,16.58923,40.55146,return,1.9295756999927107,,,,,,,,,,,,,,,,,916,22,male,up_down_width,2024-10-23_14h36.52.014,exp1,2023.1.0,60.02483827504432,
,,,,,,,,,,,,,,,,4,8.65,9.55,10.45,11.35,0,0.9,0.35,0.55,3.25,10,initial,36.05,312,344,377,409,0,9,9,9,9,0,,,,,,,2,0,2,0,0,5,5,10,,,,,,,,,,,,num_4,0.7343602000037208,num_4,0.5,0.9,0.5,1.0,18.43248,36.86496,return,2.1210149999824353,,,,,,,,,,,,,,,,,916,22,male,up_down_width,2024-10-23_14h36.52.014,exp1,2023.1.0,60.02483827504432,
,,,,,,,,,,,,,,,,5,8.2,9.1,10,10.9,11.8,0.9,0.35,0.55,4.15,10,initial,36.05,296,328,361,393,425,9,9,9,9,9,,,,,,,2,0,2,0,0,6,6,51,,,,,,,,,,,,num_5,1.1495674999896437,num_5,0.4,0.6,0.55,0.9,20.27573,33.17846,return,2.2979455000022426,,,,,,,,,,,,,,,,,916,22,male,up_down_width,2024-10-23_14h36.52.014,exp1,2023.1.0,60.02483827504432,
,,,,,,,,,,,,,,,,5,8.2,9.1,10,10.9,11.8,0.9,0.35,0.55,4.15,10,initial,36.05,296,328,361,393,425,9,9,9,9,9,,,,,,,2,0,2,0,0,7,7,20,,,,,,,,,,,,num_5,0.7956490000069607,num_5,0.4,0.5,0.45,1.0,16.58923,36.86496,return,5.193272499978775,,,,,,,,,,,,,,,,,916,22,male,up_down_width,2024-10-23_14h36.52.014,exp1,2023.1.0,60.02483827504432,
,,,,,,,,,,,,,,,,5,8.2,9.1,10,10.9,11.8,0.9,0.35,0.55,4.15,10,initial,36.05,296,328,361,393,425,9,9,9,9,9,,,,,,,2,0,2,0,0,8,8,50,,,,,,,,,,,,num_6,0.8982346999982838,num_6,0.25,0.5,0.6,1.1,22.11898,40.55146,return,4.4906764999905135,,,,,,,,,,,,,,,,,916,22,male,up_down_width,2024-10-23_14h36.52.014,exp1,2023.1.0,60.02483827504432,
,,,,,,,,,,,,,,,,5,8.2,9.1,10,10.9,11.8,0.9,0.35,0.55,4.15,10,initial,36.05,296,328,361,393,425,9,9,9,9,9,,,,,,,2,0,2,0,0,9,9,46,,,,,,,,,,,,num_5,0.7483844999806024,num_5,0.25,1.0,0.5499999999999999,1.0,20.27573,36.86496,return,2.0702321999997366,,,,,,,,,,,,,,,,,916,22,male,up_down_width,2024-10-23_14h36.52.014,exp1,2023.1.0,60.02483827504432,
,,,,,,,,,,,,,,,,3,9.1,10,10.9,0,0,0.9,0.35,0.55,2.35,10,initial,36.05,328,361,393,0,0,9,9,9,0,0,,,,,,,2,0,2,0,0,10,10,35,,,,,,,,,,,,num_3,0.6601139999984298,num_3,0.45,1,0.55,1.1,20.27573,40.55146,return,1.3365575000061654,,,,,,,,,,,,,,,,,916,22,male,up_down_width,2024-10-23_14h36.52.014,exp1,2023.1.0,60.02483827504432,
,,,,,,,,,,,,,,,,5,8.2,9.1,10,10.9,11.8,0.9,0.35,0.55,4.15,10,initial,36.05,296,328,361,393,425,9,9,9,9,9,,,,,,,2,0,2,0,0,11,11,53,,,,,,,,,,,,num_5,0.6829593000002205,num_5,0.35,1.1,0.49999999999999994,1.1,18.43248,40.55146,return,2.189549900009297,,,,,,,,,,,,,,,,,916,22,male,up_down_width,2024-10-23_14h36.52.014,exp1,2023.1.0,60.02483827504432,
,,,,,,,,,,,,,,,,3,9.1,10,10.9,0,0,0.9,0.35,0.55,2.35,10,initial,36.05,328,361,393,0,0,9,9,9,0,0,,,,,,,2,0,2,0,0,12,12,4,,,,,,,,,,,,num_3,0.7776637999922968,num_3,0.4,1.1,0.6000000000000001,1.15,22.11898,42.3947,return,1.5085354000038933,,,,,,,,,,,,,,,,,916,22,male,up_down_width,2024-10-23_14h36.52.014,exp1,2023.1.0,60.02483827504432,
,,,,,,,,,,,,,,,,4,8.65,9.55,10.45,11.35,0,0.9,0.35,0.55,3.25,10,initial,36.05,312,344,377,409,0,9,9,9,9,0,,,,,,,2,0,2,0,0,13,13,36,,,,,,,,,,,,num_4,0.6447268000047188,num_4,0.5,0.7,0.6000000000000001,1.1,22.11898,40.55146,return,1.6732370000099763,,,,,,,,,,,,,,,,,916,22,male,up_down_width,2024-10-23_14h36.52.014,exp1,2023.1.0,60.02483827504432,
,,,,,,,,,,,,,,,,3,9.1,10,10.9,0,0,0.9,0.35,0.55,2.35,10,initial,36.05,328,361,393,0,0,9,9,9,0,0,,,,,,,2,0,2,0,0,14,14,3,,,,,,,,,,,,num_3,0.6693108000035863,num_3,0.35,0.9,0.49999999999999994,0.95,18.43248,35.02171,return,1.6329621999757364,,,,,,,,,,,,,,,,,916,22,male,up_down_width,2024-10-23_14h36.52.014,exp1,2023.1.0,60.02483827504432,
,,,,,,,,,,,,,,,,3,9.1,10,10.9,0,0,0.9,0.35,0.55,2.35,10,initial,36.05,328,361,393,0,0,9,9,9,0,0,,,,,,,2,0,2,0,0,15,15,28,,,,,,,,,,,,num_3,0.669654500001343,num_3,0.45,1,0.55,1.05,20.27573,38.70821,return,1.6595592999947257,,,,,,,,,,,,,,,,,916,22,male,up_down_width,2024-10-23_14h36.52.014,exp1,2023.1.0,60.02483827504432,
,,,,,,,,,,,,,,,,4,8.65,9.55,10.45,11.35,0,0.9,0.35,0.55,3.25,10,initial,36.05,312,344,377,409,0,9,9,9,9,0,,,,,,,2,0,2,0,0,16,16,14,,,,,,,,,,,,num_4,0.6648871999932453,num_4,0.2,0.6,0.39999999999999997,1.0,14.74598,36.86496,return,1.5636082999990322,,,,,,,,,,,,,,,,,916,22,male,up_down_width,2024-10-23_14h36.52.014,exp1,2023.1.0,60.02483827504432,
,,,,,,,,,,,,,,,,3,9.1,10,10.9,0,0,0.9,0.35,0.55,2.35,10,initial,36.05,328,361,393,0,0,9,9,9,0,0,,,,,,,2,0,2,0,0,17,17,7,,,,,,,,,,,,num_3,0.6510633999714628,num_3,0.4,0.9,0.6500000000000001,1.15,23.96222,42.3947,return,1.9354380000149831,,,,,,,,,,,,,,,,,916,22,male,up_down_width,2024-10-23_14h36.52.014,exp1,2023.1.0,60.02483827504432,
,,,,,,,,,,,,,,,,3,9.1,10,10.9,0,0,0.9,0.35,0.55,2.35,10,initial,36.05,328,361,393,0,0,9,9,9,0,0,,,,,,,2,0,2,0,0,18,18,27,,,,,,,,,,,,num_3,0.5798194999806583,num_3,0.3,0.9,0.65,1.1,23.96222,40.55146,return,2.118222399993101,,,,,,,,,,,,,,,,,916,22,male,up_down_width,2024-10-23_14h36.52.014,exp1,2023.1.0,60.02483827504432,
,,,,,,,,,,,,,,,,5,8.2,9.1,10,10.9,11.8,0.9,0.35,0.55,4.15,10,initial,36.05,296,328,361,393,425,9,9,9,9,9,,,,,,,2,0,2,0,0,19,19,25,,,,,,,,,,,,num_5,0.6226895999861881,num_5,0.55,0.6,0.55,1.0,20.27573,36.86496,return,2.9463063000002876,,,,,,,,,,,,,,,,,916,22,male,up_down_width,2024-10-23_14h36.52.014,exp1,2023.1.0,60.02483827504432,
,,,,,,,,,,,,,,,,5,8.2,9.1,10,10.9,11.8,0.9,0.35,0.55,4.15,10,initial,36.05,296,328,361,393,425,9,9,9,9,9,,,,,,,2,0,2,0,0,20,20,23,,,,,,,,,,,,num_6,0.7796795999747701,num_6,0.3,0.9,0.65,1.3,23.96222,47.92445,return,2.264591200015275,,,,,,,,,,,,,,,,,916,22,male,up_down_width,2024-10-23_14h36.52.014,exp1,2023.1.0,60.02483827504432,
,,,,,,,,,,,,,,,,5,8.2,9.1,10,10.9,11.8,0.9,0.35,0.55,4.15,10,initial,36.05,296,328,361,393,425,9,9,9,9,9,,,,,,,2,0,2,0,0,21,21,21,,,,,,,,,,,,num_6,0.7068272000178695,num_6,0.35,1.3,0.65,1.5,23.96222,55.29744,return,2.5639818999916315,,,,,,,,,,,,,,,,,916,22,male,up_down_width,2024-10-23_14h36.52.014,exp1,2023.1.0,60.02483827504432,
,,,,,,,,,,,,,,,,5,8.2,9.1,10,10.9,11.8,0.9,0.35,0.55,4.15,10,initial,36.05,296,328,361,393,425,9,9,9,9,9,,,,,,,2,0,2,0,0,22,22,49,,,,,,,,,,,,num_6,0.817881099996157,num_6,0.4,1.1,0.6500000000000001,1.0,23.96222,36.86496,return,3.310809499991592,,,,,,,,,,,,,,,,,916,22,male,up_down_width,2024-10-23_14h36.52.014,exp1,2023.1.0,60.02483827504432,
,,,,,,,,,,,,,,,,3,9.1,10,10.9,0,0,0.9,0.35,0.55,2.35,10,initial,36.05,328,361,393,0,0,9,9,9,0,0,,,,,,,2,0,2,0,0,23,23,30,,,,,,,,,,,,num_3,0.6907002000079956,num_3,0.55,0.6,0.55,1.05,20.27573,38.70821,return,2.786192999978084,,,,,,,,,,,,,,,,,916,22,male,up_down_width,2024-10-23_14h36.52.014,exp1,2023.1.0,60.02483827504432,
,,,,,,,,,,,,,,,,3,9.1,10,10.9,0,0,0.9,0.35,0.55,2.35,10,initial,36.05,328,361,393,0,0,9,9,9,0,0,,,,,,,2,0,2,0,0,24,24,5,,,,,,,,,,,,num_3,0.5749926999851596,num_3,0.2,0.8,0.49999999999999994,0.85,18.43248,31.33522,return,2.0075338000024203,,,,,,,,,,,,,,,,,916,22,male,up_down_width,2024-10-23_14h36.52.014,exp1,2023.1.0,60.02483827504432,
,,,,,,,,,,,,,,,,3,9.1,10,10.9,0,0,0.9,0.35,0.55,2.35,10,initial,36.05,328,361,393,0,0,9,9,9,0,0,,,,,,,2,0,2,0,0,25,25,31,,,,,,,,,,,,num_3,0.6015591999748722,num_3,0.2,0.7,0.44999999999999996,0.75,16.58923,27.64872,return,1.5992965000041295,,,,,,,,,,,,,,,,,916,22,male,up_down_width,2024-10-23_14h36.52.014,exp1,2023.1.0,60.02483827504432,
,,,,,,,,,,,,,,,,3,9.1,10,10.9,0,0,0.9,0.35,0.55,2.35,10,initial,36.05,328,361,393,0,0,9,9,9,0,0,,,,,,,2,0,2,0,0,26,26,34,,,,,,,,,,,,num_3,0.6261616999981925,num_3,0.35,0.6,0.44999999999999996,0.75,16.58923,27.64872,return,1.0326256999978796,,,,,,,,,,,,,,,,,916,22,male,up_down_width,2024-10-23_14h36.52.014,exp1,2023.1.0,60.02483827504432,
,,,,,,,,,,,,,,,,5,8.2,9.1,10,10.9,11.8,0.9,0.35,0.55,4.15,10,initial,36.05,296,328,361,393,425,9,9,9,9,9,,,,,,,2,0,2,0,0,27,27,18,,,,,,,,,,,,num_5,1.5540286999894306,num_5,0.5,0.9,0.5,0.9,18.43248,33.17846,return,2.779832100000931,,,,,,,,,,,,,,,,,916,22,male,up_down_width,2024-10-23_14h36.52.014,exp1,2023.1.0,60.02483827504432,
,,,,,,,,,,,,,,,,4,8.65,9.55,10.45,11.35,0,0.9,0.35,0.55,3.25,10,initial,36.05,312,344,377,409,0,9,9,9,9,0,,,,,,,2,0,2,0,0,28,28,11,,,,,,,,,,,,num_5,0.6767728999839164,num_5,0.5,0.6,0.45,0.85,16.58923,31.33522,return,1.603180300007807,,,,,,,,,,,,,,,,,916,22,male,up_down_width,2024-10-23_14h36.52.014,exp1,2023.1.0,60.02483827504432,
,,,,,,,,,,,,,,,,4,8.65,9.55,10.45,11.35,0,0.9,0.35,0.55,3.25,10,initial,36.05,312,344,377,409,0,9,9,9,9,0,,,,,,,2,0,2,0,0,29,29,17,,,,,,,,,,,,num_4,0.648924100009026,num_4,0.25,0.3,0.44999999999999996,0.7,16.58923,25.80547,return,1.9014933000144083,,,,,,,,,,,,,,,,,916,22,male,up_down_width,2024-10-23_14h36.52.014,exp1,2023.1.0,60.02483827504432,
,,,,,,,,,,,,,,,,5,8.2,9.1,10,10.9,11.8,0.9,0.35,0.55,4.15,10,initial,36.05,296,328,361,393,425,9,9,9,9,9,,,,,,,2,0,2,0,0,30,30,22,,,,,,,,,,,,num_5,0.6516262000077404,num_5,0.4,1.1,0.45,1.2,16.58923,44.23795,return,1.0398644999950193,,,,,,,,,,,,,,,,,916,22,male,up_down_width,2024-10-23_14h36.52.014,exp1,2023.1.0,60.02483827504432,
,,,,,,,,,,,,,,,,5,8.2,9.1,10,10.9,11.8,0.9,0.35,0.55,4.15,10,initial,36.05,296,328,361,393,425,9,9,9,9,9,,,,,,,2,0,2,0,0,31,31,26,,,,,,,,,,,,num_5,0.6479114999820013,num_5,0.55,1.0,0.55,1.0,20.27573,36.86496,return,0.5563653999997769,,,,,,,,,,,,,,,,,916,22,male,up_down_width,2024-10-23_14h36.52.014,exp1,2023.1.0,60.02483827504432,
,,,,,,,,,,,,,,,,3,9.1,10,10.9,0,0,0.9,0.35,0.55,2.35,10,initial,36.05,328,361,393,0,0,9,9,9,0,0,,,,,,,2,0,2,0,0,32,32,33,,,,,,,,,,,,num_3,0.5800756999815349,num_3,0.3,1,0.5499999999999999,1.05,20.27573,38.70821,return,1.4615676999965217,,,,,,,,,,,,,,,,,916,22,male,up_down_width,2024-10-23_14h36.52.014,exp1,2023.1.0,60.02483827504432,
,,,,,,,,,,,,,,,,5,8.2,9.1,10,10.9,11.8,0.9,0.35,0.55,4.15,10,initial,36.05,296,328,361,393,425,9,9,9,9,9,,,,,,,2,0,2,0,0,33,33,52,,,,,,,,,,,,num_6,1.0162119999877177,num_6,0.25,0.9,0.5499999999999999,1.0,20.27573,36.86496,return,3.6444875999877695,,,,,,,,,,,,,,,,,916,22,male,up_down_width,2024-10-23_14h36.52.014,exp1,2023.1.0,60.02483827504432,
,,,,,,,,,,,,,,,,4,8.65,9.55,10.45,11.35,0,0.9,0.35,0.55,3.25,10,initial,36.05,312,344,377,409,0,9,9,9,9,0,,,,,,,2,0,2,0,0,34,34,44,,,,,,,,,,,,num_4,0.6603215000068303,num_4,0.4,0.6,0.55,1.1,20.27573,40.55146,return,3.197368099994492,,,,,,,,,,,,,,,,,916,22,male,up_down_width,2024-10-23_14h36.52.014,exp1,2023.1.0,60.02483827504432,
,,,,,,,,,,,,,,,,5,8.2,9.1,10,10.9,11.8,0.9,0.35,0.55,4.15,10,initial,36.05,296,328,361,393,425,9,9,9,9,9,,,,,,,2,0,2,0,0,35,35,47,,,,,,,,,,,,num_5,0.5924710000108462,num_5,0.55,0.6,0.6000000000000001,1.0,22.11898,36.86496,return,3.5554684000089765,,,,,,,,,,,,,,,,,916,22,male,up_down_width,2024-10-23_14h36.52.014,exp1,2023.1.0,60.02483827504432,
,,,,,,,,,,,,,,,,4,8.65,9.55,10.45,11.35,0,0.9,0.35,0.55,3.25,10,initial,36.05,312,344,377,409,0,9,9,9,9,0,,,,,,,2,0,2,0,0,36,36,12,,,,,,,,,,,,num_5,0.6395754999830388,num_5,0.5,0.6,0.6000000000000001,0.9,22.11898,33.17846,return,2.7722428999841213,,,,,,,,,,,,,,,,,916,22,male,up_down_width,2024-10-23_14h36.52.014,exp1,2023.1.0,60.02483827504432,
,,,,,,,,,,,,,,,,4,8.65,9.55,10.45,11.35,0,0.9,0.35,0.55,3.25,10,initial,36.05,312,344,377,409,0,9,9,9,9,0,,,,,,,2,0,2,0,0,37,37,41,,,,,,,,,,,,num_5,0.6915097000019159,num_5,0.4,0.9,0.6000000000000001,0.95,22.11898,35.02171,return,2.4963479000143707,,,,,,,,,,,,,,,,,916,22,male,up_down_width,2024-10-23_14h36.52.014,exp1,2023.1.0,60.02483827504432,
,,,,,,,,,,,,,,,,4,8.65,9.55,10.45,11.35,0,0.9,0.35,0.55,3.25,10,initial,36.05,312,344,377,409,0,9,9,9,9,0,,,,,,,2,0,2,0,0,38,38,9,,,,,,,,,,,,num_5,0.5797556999896187,num_5,0.3,0.4,0.5499999999999999,0.75,20.27573,27.64872,return,3.624062699993374,,,,,,,,,,,,,,,,,916,22,male,up_down_width,2024-10-23_14h36.52.014,exp1,2023.1.0,60.02483827504432,
,,,,,,,,,,,,,,,,4,8.65,9.55,10.45,11.35,0,0.9,0.35,0.55,3.25,10,initial,36.05,312,344,377,409,0,9,9,9,9,0,,,,,,,2,0,2,0,0,39,39,43,,,,,,,,,,,,num_5,0.660083199996734,num_5,0.5,0.9,0.6000000000000001,0.95,22.11898,35.02171,return,1.732480900012888,,,,,,,,,,,,,,,,,916,22,male,up_down_width,2024-10-23_14h36.52.014,exp1,2023.1.0,60.02483827504432,
,,,,,,,,,,,,,,,,3,9.1,10,10.9,0,0,0.9,0.35,0.55,2.35,10,initial,36.05,328,361,393,0,0,9,9,9,0,0,,,,,,,2,0,2,0,0,40,40,6,,,,,,,,,,,,num_3,0.5395204999949783,num_3,0.2,1,0.5499999999999999,1.05,20.27573,38.70821,return,2.044720399979269,,,,,,,,,,,,,,,,,916,22,male,up_down_width,2024-10-23_14h36.52.014,exp1,2023.1.0,60.02483827504432,
,,,,,,,,,,,,,,,,4,8.65,9.55,10.45,11.35,0,0.9,0.35,0.55,3.25,10,initial,36.05,312,344,377,409,0,9,9,9,9,0,,,,,,,2,0,2,0,0,41,41,42,,,,,,,,,,,,num_4,0.6793115999898873,num_4,0.45,0.7,0.55,1.1,20.27573,40.55146,return,1.6695657999953255,,,,,,,,,,,,,,,,,916,22,male,up_down_width,2024-10-23_14h36.52.014,exp1,2023.1.0,60.02483827504432,
,,,,,,,,,,,,,,,,3,9.1,10,10.9,0,0,0.9,0.35,0.55,2.35,10,initial,36.05,328,361,393,0,0,9,9,9,0,0,,,,,,,2,0,2,0,0,42,42,0,,,,,,,,,,,,num_3,0.7207426999812014,num_3,0.35,0.6,0.49999999999999994,0.8,18.43248,29.49197,return,2.512704399996437,,,,,,,,,,,,,,,,,916,22,male,up_down_width,2024-10-23_14h36.52.014,exp1,2023.1.0,60.02483827504432,
,,,,,,,,,,,,,,,,5,8.2,9.1,10,10.9,11.8,0.9,0.35,0.55,4.15,10,initial,36.05,296,328,361,393,425,9,9,9,9,9,,,,,,,2,0,2,0,0,43,43,45,,,,,,,,,,,,num_4,0.6623976999835577,num_4,0.3,1.1,0.5499999999999999,1.2,20.27573,44.23795,return,1.641349799989257,,,,,,,,,,,,,,,,,916,22,male,up_down_width,2024-10-23_14h36.52.014,exp1,2023.1.0,60.02483827504432,
,,,,,,,,,,,,,,,,3,9.1,10,10.9,0,0,0.9,0.35,0.55,2.35,10,initial,36.05,328,361,393,0,0,9,9,9,0,0,,,,,,,2,0,2,0,0,44,44,2,,,,,,,,,,,,num_3,0.6179290999716613,num_3,0.3,0.5,0.5499999999999999,1.0,20.27573,36.86496,return,2.7826364999928046,,,,,,,,,,,,,,,,,916,22,male,up_down_width,2024-10-23_14h36.52.014,exp1,2023.1.0,60.02483827504432,
,,,,,,,,,,,,,,,,4,8.65,9.55,10.45,11.35,0,0.9,0.35,0.55,3.25,10,initial,36.05,312,344,377,409,0,9,9,9,9,0,,,,,,,2,0,2,0,0,45,45,37,,,,,,,,,,,,num_4,0.5621244999929331,num_4,0.35,1.1,0.65,1.3,23.96222,47.92445,return,2.4251114999933634,,,,,,,,,,,,,,,,,916,22,male,up_down_width,2024-10-23_14h36.52.014,exp1,2023.1.0,60.02483827504432,
,,,,,,,,,,,,,,,,5,8.2,9.1,10,10.9,11.8,0.9,0.35,0.55,4.15,10,initial,36.05,296,328,361,393,425,9,9,9,9,9,,,,,,,2,0,2,0,0,46,46,19,,,,,,,,,,,,num_5,0.7539267000101972,num_5,0.45,1.2,0.55,1.15,20.27573,42.3947,return,2.114014999999199,,,,,,,,,,,,,,,,,916,22,male,up_down_width,2024-10-23_14h36.52.014,exp1,2023.1.0,60.02483827504432,
,,,,,,,,,,,,,,,,5,8.2,9.1,10,10.9,11.8,0.9,0.35,0.55,4.15,10,initial,36.05,296,328,361,393,425,9,9,9,9,9,,,,,,,2,0,2,0,0,47,47,48,,,,,,,,,,,,num_5,0.5827447999909054,num_5,0.55,1.1,0.6500000000000001,1.2,23.96222,44.23795,return,2.03265010000905,,,,,,,,,,,,,,,,,916,22,male,up_down_width,2024-10-23_14h36.52.014,exp1,2023.1.0,60.02483827504432,
,,,,,,,,,,,,,,,,4,8.65,9.55,10.45,11.35,0,0.9,0.35,0.55,3.25,10,initial,36.05,312,344,377,409,0,9,9,9,9,0,,,,,,,2,0,2,0,0,48,48,15,,,,,,,,,,,,num_4,0.7065529999963474,num_4,0.4,1.3,0.55,1.3,20.27573,47.92445,return,2.771223200019449,,,,,,,,,,,,,,,,,916,22,male,up_down_width,2024-10-23_14h36.52.014,exp1,2023.1.0,60.02483827504432,
,,,,,,,,,,,,,,,,3,9.1,10,10.9,0,0,0.9,0.35,0.55,2.35,10,initial,36.05,328,361,393,0,0,9,9,9,0,0,,,,,,,2,0,2,0,0,49,49,29,,,,,,,,,,,,num_3,0.8727552000200376,num_3,0.3,1.1,0.5499999999999999,1.15,20.27573,42.3947,return,1.6620266000099946,,,,,,,,,,,,,,,,,916,22,male,up_down_width,2024-10-23_14h36.52.014,exp1,2023.1.0,60.02483827504432,
,,,,,,,,,,,,,,,,5,8.2,9.1,10,10.9,11.8,0.9,0.35,0.55,4.15,10,initial,36.05,296,328,361,393,425,9,9,9,9,9,,,,,,,2,0,2,0,0,50,50,24,,,,,,,,,,,,num_5,0.6662214000243694,num_5,0.3,0.7,0.49999999999999994,0.9,18.43248,33.17846,return,2.318901699996786,,,,,,,,,,,,,,,,,916,22,male,up_down_width,2024-10-23_14h36.52.014,exp1,2023.1.0,60.02483827504432,
,,,,,,,,,,,,,,,,4,8.65,9.55,10.45,11.35,0,0.9,0.35,0.55,3.25,10,initial,36.05,312,344,377,409,0,9,9,9,9,0,,,,,,,2,0,2,0,0,51,51,40,,,,,,,,,,,,num_4,0.6923012999759521,num_4,0.4,0.8,0.55,1.0,20.27573,36.86496,return,1.3930470999912359,,,,,,,,,,,,,,,,,916,22,male,up_down_width,2024-10-23_14h36.52.014,exp1,2023.1.0,60.02483827504432,
,,,,,,,,,,,,,,,,4,8.65,9.55,10.45,11.35,0,0.9,0.35,0.55,3.25,10,initial,36.05,312,344,377,409,0,9,9,9,9,0,,,,,,,2,0,2,0,0,52,52,38,,,,,,,,,,,,num_4,0.7054589999897871,num_4,0.2,0.9,0.49999999999999994,1.1,18.43248,40.55146,return,2.0826116999960504,,,,,,,,,,,,,,,,,916,22,male,up_down_width,2024-10-23_14h36.52.014,exp1,2023.1.0,60.02483827504432,
,,,,,,,,,,,,,,,,4,8.65,9.55,10.45,11.35,0,0.9,0.35,0.55,3.25,10,initial,36.05,312,344,377,409,0,9,9,9,9,0,,,,,,,2,0,2,0,0,53,53,39,,,,,,,,,,,,num_5,0.660316800000146,num_5,0.25,1.2,0.6,1.3,22.11898,47.92445,return,2.338282299984712,,,,,,,,,,,,,,,,,916,22,male,up_down_width,2024-10-23_14h36.52.014,exp1,2023.1.0,60.02483827504432,
,,,,,,,,,,,,,,,,,,,,,,,,,,,,,,,,,,,,,,,,,,,,,2,0,2,0,,,,,,,,,,,,,,,,,,,,,,,,,,,,,1225.2521724999824,1225.2521724999824,1225.2521724999824,,,,,,,,,,,,916,22,male,up_down_width,2024-10-23_14h36.52.014,exp1,2023.1.0,60.02483827504432,
,,,,,,,,,,,,,,,,4,9.25,9.75,10.25,10.75,0,0.5,0.1,0.4,1.9000000000000001,10,initial,36.05,333,351,370,388,0,9,9,9,9,0,,,,,,,3,0,3,0,0,0,0,39,,,,,,,,,,,,num_4,0.9279485999722965,num_4,0.3,1.0,0.49999999999999994,0.6,18.43248,22.11898,return,2.2661424000107218,,,,,,,,,,,,,,,,,916,22,male,up_down_width,2024-10-23_14h36.52.014,exp1,2023.1.0,60.02483827504432,
,,,,,,,,,,,,,,,,5,9,9.5,10,10.5,11,0.5,0.1,0.4,2.4,10,initial,36.05,324,342,361,379,397,9,9,9,9,9,,,,,,,3,0,3,0,0,1,1,50,,,,,,,,,,,,num_5,0.7712520000059158,num_5,0.25,1.3,0.39999999999999997,0.55,14.74598,20.27573,return,6.370036100008292,,,,,,,,,,,,,,,,,916,22,male,up_down_width,2024-10-23_14h36.52.014,exp1,2023.1.0,60.02483827504432,
,,,,,,,,,,,,,,,,3,9.5,10,10.5,0,0,0.5,0.1,0.4,1.4000000000000001,10,initial,36.05,342,361,379,0,0,9,9,9,0,0,,,,,,,3,0,3,0,0,2,2,28,,,,,,,,,,,,num_4,0.7159830000018701,num_4,0.3,0.8,0.35,0.5,12.90274,18.43248,return,2.7350348999898415,,,,,,,,,,,,,,,,,916,22,male,up_down_width,2024-10-23_14h36.52.014,exp1,2023.1.0,60.02483827504432,
,,,,,,,,,,,,,,,,5,9,9.5,10,10.5,11,0.5,0.1,0.4,2.4,10,initial,36.05,324,342,361,379,397,9,9,9,9,9,,,,,,,3,0,3,0,0,3,3,24,,,,,,,,,,,,num_5,0.6660463999724016,num_5,0.55,1.3,0.6000000000000001,0.8,22.11898,29.49197,return,2.3137980999890715,,,,,,,,,,,,,,,,,916,22,male,up_down_width,2024-10-23_14h36.52.014,exp1,2023.1.0,60.02483827504432,
,,,,,,,,,,,,,,,,5,9,9.5,10,10.5,11,0.5,0.1,0.4,2.4,10,initial,36.05,324,342,361,379,397,9,9,9,9,9,,,,,,,3,0,3,0,0,4,4,26,,,,,,,,,,,,num_6,0.7876908000034746,num_6,0.55,0.8,0.4,0.5,14.74598,18.43248,return,3.2343615000136197,,,,,,,,,,,,,,,,,916,22,male,up_down_width,2024-10-23_14h36.52.014,exp1,2023.1.0,60.02483827504432,
,,,,,,,,,,,,,,,,4,9.25,9.75,10.25,10.75,0,0.5,0.1,0.4,1.9000000000000001,10,initial,36.05,333,351,370,388,0,9,9,9,9,0,,,,,,,3,0,3,0,0,5,5,10,,,,,,,,,,,,num_5,0.6962659999844618,num_5,0.55,0.6,0.4,0.65,14.74598,23.96222,return,2.4866830999962986,,,,,,,,,,,,,,,,,916,22,male,up_down_width,2024-10-23_14h36.52.014,exp1,2023.1.0,60.02483827504432,
,,,,,,,,,,,,,,,,5,9,9.5,10,10.5,11,0.5,0.1,0.4,2.4,10,initial,36.05,324,342,361,379,397,9,9,9,9,9,,,,,,,3,0,3,0,0,6,6,23,,,,,,,,,,,,num_6,0.7537836999981664,num_6,0.3,1.0,0.44999999999999996,0.5,16.58923,18.43248,return,2.019350599992322,,,,,,,,,,,,,,,,,916,22,male,up_down_width,2024-10-23_14h36.52.014,exp1,2023.1.0,60.02483827504432,
,,,,,,,,,,,,,,,,3,9.5,10,10.5,0,0,0.5,0.1,0.4,1.4000000000000001,10,initial,36.05,342,361,379,0,0,9,9,9,0,0,,,,,,,3,0,3,0,0,7,7,4,,,,,,,,,,,,num_3,0.766200200014282,num_3,0.45,0.6,0.35000000000000003,0.55,12.90274,20.27573,return,1.9761506000068039,,,,,,,,,,,,,,,,,916,22,male,up_down_width,2024-10-23_14h36.52.014,exp1,2023.1.0,60.02483827504432,
,,,,,,,,,,,,,,,,3,9.5,10,10.5,0,0,0.5,0.1,0.4,1.4000000000000001,10,initial,36.05,342,361,379,0,0,9,9,9,0,0,,,,,,,3,0,3,0,0,8,8,27,,,,,,,,,,,,num_4,0.6257267999753822,num_4,0.2,0.8,0.44999999999999996,0.6,16.58923,22.11898,return,3.8774988999939524,,,,,,,,,,,,,,,,,916,22,male,up_down_width,2024-10-23_14h36.52.014,exp1,2023.1.0,60.02483827504432,
,,,,,,,,,,,,,,,,4,9.25,9.75,10.25,10.75,0,0.5,0.1,0.4,1.9000000000000001,10,initial,36.05,333,351,370,388,0,9,9,9,9,0,,,,,,,3,0,3,0,0,9,9,44,,,,,,,,,,,,num_4,0.623751099978108,num_4,0.35,0.4,0.35,0.5,12.90274,18.43248,return,1.615853999974206,,,,,,,,,,,,,,,,,916,22,male,up_down_width,2024-10-23_14h36.52.014,exp1,2023.1.0,60.02483827504432,
,,,,,,,,,,,,,,,,5,9,9.5,10,10.5,11,0.5,0.1,0.4,2.4,10,initial,36.05,324,342,361,379,397,9,9,9,9,9,,,,,,,3,0,3,0,0,10,10,18,,,,,,,,,,,,num_5,0.7155652999936137,num_5,0.3,0.9,0.39999999999999997,0.6,14.74598,22.11898,return,3.77367399999639,,,,,,,,,,,,,,,,,916,22,male,up_down_width,2024-10-23_14h36.52.014,exp1,2023.1.0,60.02483827504432,
,,,,,,,,,,,,,,,,5,9,9.5,10,10.5,11,0.5,0.1,0.4,2.4,10,initial,36.05,324,342,361,379,397,9,9,9,9,9,,,,,,,3,0,3,0,0,11,11,45,,,,,,,,,,,,num_6,0.8159969999978784,num_6,0.55,1.2,0.4,0.6,14.74598,22.11898,return,2.8959291000210214,,,,,,,,,,,,,,,,,916,22,male,up_down_width,2024-10-23_14h36.52.014,exp1,2023.1.0,60.02483827504432,
,,,,,,,,,,,,,,,,4,9.25,9.75,10.25,10.75,0,0.5,0.1,0.4,1.9000000000000001,10,initial,36.05,333,351,370,388,0,9,9,9,9,0,,,,,,,3,0,3,0,0,12,12,40,,,,,,,,,,,,num_4,0.8194575000088662,num_4,0.3,1.1,0.39999999999999997,0.6,14.74598,22.11898,return,2.2237590000149794,,,,,,,,,,,,,,,,,916,22,male,up_down_width,2024-10-23_14h36.52.014,exp1,2023.1.0,60.02483827504432,
,,,,,,,,,,,,,,,,4,9.25,9.75,10.25,10.75,0,0.5,0.1,0.4,1.9000000000000001,10,initial,36.05,333,351,370,388,0,9,9,9,9,0,,,,,,,3,0,3,0,0,13,13,38,,,,,,,,,,,,num_4,0.6140484999923501,num_4,0.25,0.3,0.39999999999999997,0.5,14.74598,18.43248,return,3.61063490001834,,,,,,,,,,,,,,,,,916,22,male,up_down_width,2024-10-23_14h36.52.014,exp1,2023.1.0,60.02483827504432,
,,,,,,,,,,,,,,,,5,9,9.5,10,10.5,11,0.5,0.1,0.4,2.4,10,initial,36.05,324,342,361,379,397,9,9,9,9,9,,,,,,,3,0,3,0,0,14,14,48,,,,,,,,,,,,num_5,0.7937241999898106,num_5,0.5,1.3,0.45,0.7,16.58923,25.80547,return,4.760774700000184,,,,,,,,,,,,,,,,,916,22,male,up_down_width,2024-10-23_14h36.52.014,exp1,2023.1.0,60.02483827504432,
,,,,,,,,,,,,,,,,3,9.5,10,10.5,0,0,0.5,0.1,0.4,1.4000000000000001,10,initial,36.05,342,361,379,0,0,9,9,9,0,0,,,,,,,3,0,3,0,0,15,15,34,,,,,,,,,,,,num_4,0.7632228000147734,num_4,0.45,1.1,0.45,0.6,16.58923,22.11898,return,2.203795999987051,,,,,,,,,,,,,,,,,916,22,male,up_down_width,2024-10-23_14h36.52.014,exp1,2023.1.0,60.02483827504432,
,,,,,,,,,,,,,,,,4,9.25,9.75,10.25,10.75,0,0.5,0.1,0.4,1.9000000000000001,10,initial,36.05,333,351,370,388,0,9,9,9,9,0,,,,,,,3,0,3,0,0,16,16,11,,,,,,,,,,,,num_4,0.6673175999894738,num_4,0.3,1.2,0.49999999999999994,0.6,18.43248,22.11898,return,3.7713555000082124,,,,,,,,,,,,,,,,,916,22,male,up_down_width,2024-10-23_14h36.52.014,exp1,2023.1.0,60.02483827504432,
,,,,,,,,,,,,,,,,5,9,9.5,10,10.5,11,0.5,0.1,0.4,2.4,10,initial,36.05,324,342,361,379,397,9,9,9,9,9,,,,,,,3,0,3,0,0,17,17,51,,,,,,,,,,,,num_5,0.7133512999862432,num_5,0.55,0.7,0.45,0.6,16.58923,22.11898,return,3.1616904999827966,,,,,,,,,,,,,,,,,916,22,male,up_down_width,2024-10-23_14h36.52.014,exp1,2023.1.0,60.02483827504432,
,,,,,,,,,,,,,,,,3,9.5,10,10.5,0,0,0.5,0.1,0.4,1.4000000000000001,10,initial,36.05,342,361,379,0,0,9,9,9,0,0,,,,,,,3,0,3,0,0,18,18,5,,,,,,,,,,,,num_3,1.0862933000025805,num_3,0.2,0.6,0.39999999999999997,0.55,14.74598,20.27573,return,3.6280948000203352,,,,,,,,,,,,,,,,,916,22,male,up_down_width,2024-10-23_14h36.52.014,exp1,2023.1.0,60.02483827504432,
,,,,,,,,,,,,,,,,3,9.5,10,10.5,0,0,0.5,0.1,0.4,1.4000000000000001,10,initial,36.05,342,361,379,0,0,9,9,9,0,0,,,,,,,3,0,3,0,0,19,19,30,,,,,,,,,,,,num_3,0.7061888999887742,num_3,0.55,1.3,0.45,0.7,16.58923,25.80547,return,2.8135577000211924,,,,,,,,,,,,,,,,,916,22,male,up_down_width,2024-10-23_14h36.52.014,exp1,2023.1.0,60.02483827504432,
,,,,,,,,,,,,,,,,4,9.25,9.75,10.25,10.75,0,0.5,0.1,0.4,1.9000000000000001,10,initial,36.05,333,351,370,388,0,9,9,9,9,0,,,,,,,3,0,3,0,0,20,20,41,,,,,,,,,,,,num_4,0.8530432999832556,num_4,0.5,0.7,0.45,0.6,16.58923,22.11898,return,3.933806999993976,,,,,,,,,,,,,,,,,916,22,male,up_down_width,2024-10-23_14h36.52.014,exp1,2023.1.0,60.02483827504432,
,,,,,,,,,,,,,,,,3,9.5,10,10.5,0,0,0.5,0.1,0.4,1.4000000000000001,10,initial,36.05,342,361,379,0,0,9,9,9,0,0,,,,,,,3,0,3,0,0,21,21,32,,,,,,,,,,,,num_3,0.7111240999947768,num_3,0.3,1.3,0.49999999999999994,0.85,18.43248,31.33522,return,4.057305900001666,,,,,,,,,,,,,,,,,916,22,male,up_down_width,2024-10-23_14h36.52.014,exp1,2023.1.0,60.02483827504432,
,,,,,,,,,,,,,,,,3,9.5,10,10.5,0,0,0.5,0.1,0.4,1.4000000000000001,10,initial,36.05,342,361,379,0,0,9,9,9,0,0,,,,,,,3,0,3,0,0,22,22,29,,,,,,,,,,,,num_3,0.7767525000090245,num_3,0.45,0.7,0.4,0.65,14.74598,23.96222,return,1.4602006000059191,,,,,,,,,,,,,,,,,916,22,male,up_down_width,2024-10-23_14h36.52.014,exp1,2023.1.0,60.02483827504432,
,,,,,,,,,,,,,,,,5,9,9.5,10,10.5,11,0.5,0.1,0.4,2.4,10,initial,36.05,324,342,361,379,397,9,9,9,9,9,,,,,,,3,0,3,0,0,23,23,53,,,,,,,,,,,,num_5,0.8488582999852952,num_5,0.5,1.1,0.4,0.55,14.74598,20.27573,return,2.84340909999446,,,,,,,,,,,,,,,,,916,22,male,up_down_width,2024-10-23_14h36.52.014,exp1,2023.1.0,60.02483827504432,
,,,,,,,,,,,,,,,,4,9.25,9.75,10.25,10.75,0,0.5,0.1,0.4,1.9000000000000001,10,initial,36.05,333,351,370,388,0,9,9,9,9,0,,,,,,,3,0,3,0,0,24,24,42,,,,,,,,,,,,num_6,0.7413726999948267,num_6,0.55,1.0,0.35000000000000003,0.5,12.90274,18.43248,return,4.260236899979645,,,,,,,,,,,,,,,,,916,22,male,up_down_width,2024-10-23_14h36.52.014,exp1,2023.1.0,60.02483827504432,
,,,,,,,,,,,,,,,,5,9,9.5,10,10.5,11,0.5,0.1,0.4,2.4,10,initial,36.05,324,342,361,379,397,9,9,9,9,9,,,,,,,3,0,3,0,0,25,25,19,,,,,,,,,,,,num_4,0.8319364999770187,num_4,0.5,1.2,0.4,0.6,14.74598,22.11898,return,4.2686684000073,,,,,,,,,,,,,,,,,916,22,male,up_down_width,2024-10-23_14h36.52.014,exp1,2023.1.0,60.02483827504432,
,,,,,,,,,,,,,,,,4,9.25,9.75,10.25,10.75,0,0.5,0.1,0.4,1.9000000000000001,10,initial,36.05,333,351,370,388,0,9,9,9,9,0,,,,,,,3,0,3,0,0,26,26,13,,,,,,,,,,,,num_4,0.5326673999952618,num_4,0.25,0.9,0.44999999999999996,0.6,16.58923,22.11898,return,4.8589738000009675,,,,,,,,,,,,,,,,,916,22,male,up_down_width,2024-10-23_14h36.52.014,exp1,2023.1.0,60.02483827504432,
,,,,,,,,,,,,,,,,5,9,9.5,10,10.5,11,0.5,0.1,0.4,2.4,10,initial,36.05,324,342,361,379,397,9,9,9,9,9,,,,,,,3,0,3,0,0,27,27,22,,,,,,,,,,,,num_5,0.6716363999876194,num_5,0.5,0.6,0.5,0.7,18.43248,25.80547,return,2.32311130000744,,,,,,,,,,,,,,,,,916,22,male,up_down_width,2024-10-23_14h36.52.014,exp1,2023.1.0,60.02483827504432,
,,,,,,,,,,,,,,,,5,9,9.5,10,10.5,11,0.5,0.1,0.4,2.4,10,initial,36.05,324,342,361,379,397,9,9,9,9,9,,,,,,,3,0,3,0,0,28,28,46,,,,,,,,,,,,num_6,1.342971599980956,num_6,0.45,0.6,0.45,0.6,16.58923,22.11898,return,3.541738100000657,,,,,,,,,,,,,,,,,916,22,male,up_down_width,2024-10-23_14h36.52.014,exp1,2023.1.0,60.02483827504432,
,,,,,,,,,,,,,,,,3,9.5,10,10.5,0,0,0.5,0.1,0.4,1.4000000000000001,10,initial,36.05,342,361,379,0,0,9,9,9,0,0,,,,,,,3,0,3,0,0,29,29,33,,,,,,,,,,,,num_3,0.8593796999775805,num_3,0.2,1.1,0.49999999999999994,0.7,18.43248,25.80547,return,4.3279324999894015,,,,,,,,,,,,,,,,,916,22,male,up_down_width,2024-10-23_14h36.52.014,exp1,2023.1.0,60.02483827504432,
,,,,,,,,,,,,,,,,5,9,9.5,10,10.5,11,0.5,0.1,0.4,2.4,10,initial,36.05,324,342,361,379,397,9,9,9,9,9,,,,,,,3,0,3,0,0,30,30,47,,,,,,,,,,,,num_6,0.7405059000011533,num_6,0.55,0.7,0.30000000000000004,0.5,11.05949,18.43248,return,2.5332764000049792,,,,,,,,,,,,,,,,,916,22,male,up_down_width,2024-10-23_14h36.52.014,exp1,2023.1.0,60.02483827504432,
,,,,,,,,,,,,,,,,3,9.5,10,10.5,0,0,0.5,0.1,0.4,1.4000000000000001,10,initial,36.05,342,361,379,0,0,9,9,9,0,0,,,,,,,3,0,3,0,0,31,31,8,,,,,,,,,,,,num_3,1.1708417999907397,num_3,0.45,0.6,0.4,0.6,14.74598,22.11898,return,1.741855600004783,,,,,,,,,,,,,,,,,916,22,male,up_down_width,2024-10-23_14h36.52.014,exp1,2023.1.0,60.02483827504432,
,,,,,,,,,,,,,,,,3,9.5,10,10.5,0,0,0.5,0.1,0.4,1.4000000000000001,10,initial,36.05,342,361,379,0,0,9,9,9,0,0,,,,,,,3,0,3,0,0,32,32,7,,,,,,,,,,,,num_4,0.6866851999948267,num_4,0.2,0.7,0.39999999999999997,0.5,14.74598,18.43248,return,1.9382121000089683,,,,,,,,,,,,,,,,,916,22,male,up_down_width,2024-10-23_14h36.52.014,exp1,2023.1.0,60.02483827504432,
,,,,,,,,,,,,,,,,3,9.5,10,10.5,0,0,0.5,0.1,0.4,1.4000000000000001,10,initial,36.05,342,361,379,0,0,9,9,9,0,0,,,,,,,3,0,3,0,0,33,33,31,,,,,,,,,,,,num_4,0.6300498000055086,num_4,0.4,0.9,0.45,0.7,16.58923,25.80547,return,2.5638352000096347,,,,,,,,,,,,,,,,,916,22,male,up_down_width,2024-10-23_14h36.52.014,exp1,2023.1.0,60.02483827504432,
,,,,,,,,,,,,,,,,5,9,9.5,10,10.5,11,0.5,0.1,0.4,2.4,10,initial,36.05,324,342,361,379,397,9,9,9,9,9,,,,,,,3,0,3,0,0,34,34,52,,,,,,,,,,,,num_6,0.6935490999894682,num_6,0.3,0.6,0.44999999999999996,0.6,16.58923,22.11898,return,1.9867805000103544,,,,,,,,,,,,,,,,,916,22,male,up_down_width,2024-10-23_14h36.52.014,exp1,2023.1.0,60.02483827504432,
,,,,,,,,,,,,,,,,5,9,9.5,10,10.5,11,0.5,0.1,0.4,2.4,10,initial,36.05,324,342,361,379,397,9,9,9,9,9,,,,,,,3,0,3,0,0,35,35,49,,,,,,,,,,,,num_6,0.658919599984074,num_6,0.4,0.6,0.45,0.6,16.58923,22.11898,return,2.710737399989739,,,,,,,,,,,,,,,,,916,22,male,up_down_width,2024-10-23_14h36.52.014,exp1,2023.1.0,60.02483827504432,
,,,,,,,,,,,,,,,,5,9,9.5,10,10.5,11,0.5,0.1,0.4,2.4,10,initial,36.05,324,342,361,379,397,9,9,9,9,9,,,,,,,3,0,3,0,0,36,36,21,,,,,,,,,,,,num_5,3.3622247999883257,num_5,0.5,1.0,0.55,0.75,20.27573,27.64872,return,2.299384400015697,,,,,,,,,,,,,,,,,916,22,male,up_down_width,2024-10-23_14h36.52.014,exp1,2023.1.0,60.02483827504432,
,,,,,,,,,,,,,,,,4,9.25,9.75,10.25,10.75,0,0.5,0.1,0.4,1.9000000000000001,10,initial,36.05,333,351,370,388,0,9,9,9,9,0,,,,,,,3,0,3,0,0,37,37,9,,,,,,,,,,,,num_4,1.969635899993591,num_4,0.25,0.7,0.49999999999999994,0.7,18.43248,25.80547,return,2.7661683000042103,,,,,,,,,,,,,,,,,916,22,male,up_down_width,2024-10-23_14h36.52.014,exp1,2023.1.0,60.02483827504432,
,,,,,,,,,,,,,,,,3,9.5,10,10.5,0,0,0.5,0.1,0.4,1.4000000000000001,10,initial,36.05,342,361,379,0,0,9,9,9,0,0,,,,,,,3,0,3,0,0,38,38,1,,,,,,,,,,,,num_3,0.7134029999724589,num_3,0.55,0.8,0.5,0.65,18.43248,23.96222,return,2.8714443999924697,,,,,,,,,,,,,,,,,916,22,male,up_down_width,2024-10-23_14h36.52.014,exp1,2023.1.0,60.02483827504432,
,,,,,,,,,,,,,,,,4,9.25,9.75,10.25,10.75,0,0.5,0.1,0.4,1.9000000000000001,10,initial,36.05,333,351,370,388,0,9,9,9,9,0,,,,,,,3,0,3,0,0,39,39,17,,,,,,,,,,,,num_4,0.6160006999853067,num_4,0.2,1.0,0.39999999999999997,0.6,14.74598,22.11898,return,2.4574457999842707,,,,,,,,,,,,,,,,,916,22,male,up_down_width,2024-10-23_14h36.52.014,exp1,2023.1.0,60.02483827504432,
,,,,,,,,,,,,,,,,4,9.25,9.75,10.25,10.75,0,0.5,0.1,0.4,1.9000000000000001,10,initial,36.05,333,351,370,388,0,9,9,9,9,0,,,,,,,3,0,3,0,0,40,40,37,,,,,,,,,,,,num_5,0.8281305999844335,num_5,0.3,0.6,0.39999999999999997,0.45,14.74598,16.58923,return,2.617751899990253,,,,,,,,,,,,,,,,,916,22,male,up_down_width,2024-10-23_14h36.52.014,exp1,2023.1.0,60.02483827504432,
,,,,,,,,,,,,,,,,4,9.25,9.75,10.25,10.75,0,0.5,0.1,0.4,1.9000000000000001,10,initial,36.05,333,351,370,388,0,9,9,9,9,0,,,,,,,3,0,3,0,0,41,41,16,,,,,,,,,,,,num_4,0.6330848999787122,num_4,0.25,0.9,0.44999999999999996,0.6,16.58923,22.11898,return,6.696464999986347,,,,,,,,,,,,,,,,,916,22,male,up_down_width,2024-10-23_14h36.52.014,exp1,2023.1.0,60.02483827504432,
,,,,,,,,,,,,,,,,3,9.5,10,10.5,0,0,0.5,0.1,0.4,1.4000000000000001,10,initial,36.05,342,361,379,0,0,9,9,9,0,0,,,,,,,3,0,3,0,0,42,42,3,,,,,,,,,,,,num_3,0.6495402000145987,num_3,0.45,1,0.5,0.7,18.43248,25.80547,return,2.4326510000100825,,,,,,,,,,,,,,,,,916,22,male,up_down_width,2024-10-23_14h36.52.014,exp1,2023.1.0,60.02483827504432,
,,,,,,,,,,,,,,,,3,9.5,10,10.5,0,0,0.5,0.1,0.4,1.4000000000000001,10,initial,36.05,342,361,379,0,0,9,9,9,0,0,,,,,,,3,0,3,0,0,43,43,35,,,,,,,,,,,,num_4,0.7636703999887686,num_4,0.45,1.1,0.45,0.7,16.58923,25.80547,return,2.968827800010331,,,,,,,,,,,,,,,,,916,22,male,up_down_width,2024-10-23_14h36.52.014,exp1,2023.1.0,60.02483827504432,
,,,,,,,,,,,,,,,,3,9.5,10,10.5,0,0,0.5,0.1,0.4,1.4000000000000001,10,initial,36.05,342,361,379,0,0,9,9,9,0,0,,,,,,,3,0,3,0,0,44,44,2,,,,,,,,,,,,num_3,0.6680048999842256,num_3,0.25,0.3,0.39999999999999997,0.65,14.74598,23.96222,return,2.907465399999637,,,,,,,,,,,,,,,,,916,22,male,up_down_width,2024-10-23_14h36.52.014,exp1,2023.1.0,60.02483827504432,
,,,,,,,,,,,,,,,,4,9.25,9.75,10.25,10.75,0,0.5,0.1,0.4,1.9000000000000001,10,initial,36.05,333,351,370,388,0,9,9,9,9,0,,,,,,,3,0,3,0,0,45,45,12,,,,,,,,,,,,num_5,0.6659174999804236,num_5,0.2,0.6,0.44999999999999996,0.65,16.58923,23.96222,return,3.3860441999859177,,,,,,,,,,,,,,,,,916,22,male,up_down_width,2024-10-23_14h36.52.014,exp1,2023.1.0,60.02483827504432,
,,,,,,,,,,,,,,,,3,9.5,10,10.5,0,0,0.5,0.1,0.4,1.4000000000000001,10,initial,36.05,342,361,379,0,0,9,9,9,0,0,,,,,,,3,0,3,0,0,46,46,6,,,,,,,,,,,,num_3,0.7708952999964822,num_3,0.35,1.1,0.44999999999999996,0.8,16.58923,29.49197,return,2.989937900012592,,,,,,,,,,,,,,,,,916,22,male,up_down_width,2024-10-23_14h36.52.014,exp1,2023.1.0,60.02483827504432,
,,,,,,,,,,,,,,,,5,9,9.5,10,10.5,11,0.5,0.1,0.4,2.4,10,initial,36.05,324,342,361,379,397,9,9,9,9,9,,,,,,,3,0,3,0,0,47,47,20,,,,,,,,,,,,num_5,0.5969355000124779,num_5,0.3,1.3,0.44999999999999996,0.8,16.58923,29.49197,return,4.037226099986583,,,,,,,,,,,,,,,,,916,22,male,up_down_width,2024-10-23_14h36.52.014,exp1,2023.1.0,60.02483827504432,
,,,,,,,,,,,,,,,,5,9,9.5,10,10.5,11,0.5,0.1,0.4,2.4,10,initial,36.05,324,342,361,379,397,9,9,9,9,9,,,,,,,3,0,3,0,0,48,48,25,,,,,,,,,,,,num_5,0.6682271999889053,num_5,0.4,1.1,0.45,0.75,16.58923,27.64872,return,2.2402378999977373,,,,,,,,,,,,,,,,,916,22,male,up_down_width,2024-10-23_14h36.52.014,exp1,2023.1.0,60.02483827504432,
,,,,,,,,,,,,,,,,4,9.25,9.75,10.25,10.75,0,0.5,0.1,0.4,1.9000000000000001,10,initial,36.05,333,351,370,388,0,9,9,9,9,0,,,,,,,3,0,3,0,0,49,49,15,,,,,,,,,,,,num_5,0.7683165000053123,num_5,0.35,1.1,0.44999999999999996,0.75,16.58923,27.64872,return,2.5912312000000384,,,,,,,,,,,,,,,,,916,22,male,up_down_width,2024-10-23_14h36.52.014,exp1,2023.1.0,60.02483827504432,
,,,,,,,,,,,,,,,,4,9.25,9.75,10.25,10.75,0,0.5,0.1,0.4,1.9000000000000001,10,initial,36.05,333,351,370,388,0,9,9,9,9,0,,,,,,,3,0,3,0,0,50,50,43,,,,,,,,,,,,num_5,0.9227885999716818,num_5,0.2,1.1,0.39999999999999997,0.85,14.74598,31.33522,return,2.4999775999749545,,,,,,,,,,,,,,,,,916,22,male,up_down_width,2024-10-23_14h36.52.014,exp1,2023.1.0,60.02483827504432,
,,,,,,,,,,,,,,,,4,9.25,9.75,10.25,10.75,0,0.5,0.1,0.4,1.9000000000000001,10,initial,36.05,333,351,370,388,0,9,9,9,9,0,,,,,,,3,0,3,0,0,51,51,36,,,,,,,,,,,,num_5,0.8596371000166982,num_5,0.45,0.8,0.5,0.7,18.43248,25.80547,return,1.607140799984336,,,,,,,,,,,,,,,,,916,22,male,up_down_width,2024-10-23_14h36.52.014,exp1,2023.1.0,60.02483827504432,
,,,,,,,,,,,,,,,,4,9.25,9.75,10.25,10.75,0,0.5,0.1,0.4,1.9000000000000001,10,initial,36.05,333,351,370,388,0,9,9,9,9,0,,,,,,,3,0,3,0,0,52,52,14,,,,,,,,,,,,num_5,0.6599615000013728,num_5,0.2,1.3,0.49999999999999994,0.8,18.43248,29.49197,return,3.3351263999938965,,,,,,,,,,,,,,,,,916,22,male,up_down_width,2024-10-23_14h36.52.014,exp1,2023.1.0,60.02483827504432,
,,,,,,,,,,,,,,,,3,9.5,10,10.5,0,0,0.5,0.1,0.4,1.4000000000000001,10,initial,36.05,342,361,379,0,0,9,9,9,0,0,,,,,,,3,0,3,0,0,53,53,0,,,,,,,,,,,,num_5,0.66213839998818,num_5,0.55,1.1,0.55,0.8,20.27573,29.49197,return,5.078696199983824,,,,,,,,,,,,,,,,,916,22,male,up_down_width,2024-10-23_14h36.52.014,exp1,2023.1.0,60.02483827504432,
,,,,,,,,,,,,,,,,,,,,,,,,,,,,,,,,,,,,,,,,,,,,,3,0,3,0,,,,,,,,,,,,,,,,,,,,,,,,,,,,,1588.701486999984,1588.701486999984,1588.701486999984,,,,,,,,,,,,916,22,male,up_down_width,2024-10-23_14h36.52.014,exp1,2023.1.0,60.02483827504432,
,,,,,,,,,,,,,,,,3,9.5,10,10.5,0,0,0.5,0.25,0.25,1.25,10,initial,36.05,342,361,379,0,0,9,9,9,0,0,,,,,,,4,0,4,0,0,0,0,27,,,,,,,,,,,,num_3,0.6269499000045471,num_3,0.35,0.7,0.25,0.65,9.21624,23.96222,return,1.3951454999914858,,,,,,,,,,,,,,,,,916,22,male,up_down_width,2024-10-23_14h36.52.014,exp1,2023.1.0,60.02483827504432,
,,,,,,,,,,,,,,,,3,9.5,10,10.5,0,0,0.5,0.25,0.25,1.25,10,initial,36.05,342,361,379,0,0,9,9,9,0,0,,,,,,,4,0,4,0,0,1,1,31,,,,,,,,,,,,num_3,0.6181460999941919,num_3,0.3,0.4,0.3,0.5,11.05949,18.43248,return,1.7764679999963846,,,,,,,,,,,,,,,,,916,22,male,up_down_width,2024-10-23_14h36.52.014,exp1,2023.1.0,60.02483827504432,
,,,,,,,,,,,,,,,,4,9.25,9.75,10.25,10.75,0,0.5,0.25,0.25,1.75,10,initial,36.05,333,351,370,388,0,9,9,9,9,0,,,,,,,4,0,4,0,0,2,2,10,,,,,,,,,,,,num_4,0.6996199999994133,num_4,0.25,0.6,0.25,0.6,9.21624,22.11898,return,0.827069399994798,,,,,,,,,,,,,,,,,916,22,male,up_down_width,2024-10-23_14h36.52.014,exp1,2023.1.0,60.02483827504432,
,,,,,,,,,,,,,,,,3,9.5,10,10.5,0,0,0.5,0.25,0.25,1.25,10,initial,36.05,342,361,379,0,0,9,9,9,0,0,,,,,,,4,0,4,0,0,3,3,28,,,,,,,,,,,,num_3,0.5237750000087544,num_3,0.35,0.9,0.3,0.65,11.05949,23.96222,return,2.2562490999989677,,,,,,,,,,,,,,,,,916,22,male,up_down_width,2024-10-23_14h36.52.014,exp1,2023.1.0,60.02483827504432,
,,,,,,,,,,,,,,,,3,9.5,10,10.5,0,0,0.5,0.25,0.25,1.25,10,initial,36.05,342,361,379,0,0,9,9,9,0,0,,,,,,,4,0,4,0,0,4,4,1,,,,,,,,,,,,num_3,0.6926167999918107,num_3,0.55,0.7,0.25000000000000006,0.55,9.21624,20.27573,return,3.219161500019254,,,,,,,,,,,,,,,,,916,22,male,up_down_width,2024-10-23_14h36.52.014,exp1,2023.1.0,60.02483827504432,
,,,,,,,,,,,,,,,,3,9.5,10,10.5,0,0,0.5,0.25,0.25,1.25,10,initial,36.05,342,361,379,0,0,9,9,9,0,0,,,,,,,4,0,4,0,0,5,5,30,,,,,,,,,,,,num_3,0.6060515999852214,num_3,0.25,0.7,0.25,0.65,9.21624,23.96222,return,1.791350199986482,,,,,,,,,,,,,,,,,916,22,male,up_down_width,2024-10-23_14h36.52.014,exp1,2023.1.0,60.02483827504432,
,,,,,,,,,,,,,,,,5,9,9.5,10,10.5,11,0.5,0.25,0.25,2.25,10,initial,36.05,324,342,361,379,397,9,9,9,9,9,,,,,,,4,0,4,0,0,6,6,49,,,,,,,,,,,,num_4,0.7195777000160888,num_4,0.5,0.6,0.25000000000000006,0.5,9.21624,18.43248,return,2.8158368000003975,,,,,,,,,,,,,,,,,916,22,male,up_down_width,2024-10-23_14h36.52.014,exp1,2023.1.0,60.02483827504432,
,,,,,,,,,,,,,,,,4,9.25,9.75,10.25,10.75,0,0.5,0.25,0.25,1.75,10,initial,36.05,333,351,370,388,0,9,9,9,9,0,,,,,,,4,0,4,0,0,7,7,13,,,,,,,,,,,,num_5,0.6662206999899354,num_5,0.2,0.7,0.25,0.55,9.21624,20.27573,return,2.6491491999768186,,,,,,,,,,,,,,,,,916,22,male,up_down_width,2024-10-23_14h36.52.014,exp1,2023.1.0,60.02483827504432,
,,,,,,,,,,,,,,,,4,9.25,9.75,10.25,10.75,0,0.5,0.25,0.25,1.75,10,initial,36.05,333,351,370,388,0,9,9,9,9,0,,,,,,,4,0,4,0,0,8,8,41,,,,,,,,,,,,num_5,0.7322253000165801,num_5,0.35,1.3,0.3,0.75,11.05949,27.64872,return,3.2139303000003565,,,,,,,,,,,,,,,,,916,22,male,up_down_width,2024-10-23_14h36.52.014,exp1,2023.1.0,60.02483827504432,
,,,,,,,,,,,,,,,,5,9,9.5,10,10.5,11,0.5,0.25,0.25,2.25,10,initial,36.05,324,342,361,379,397,9,9,9,9,9,,,,,,,4,0,4,0,0,9,9,23,,,,,,,,,,,,num_5,0.6550661999790464,num_5,0.25,0.6,0.3,0.65,11.05949,23.96222,return,1.8250108999782242,,,,,,,,,,,,,,,,,916,22,male,up_down_width,2024-10-23_14h36.52.014,exp1,2023.1.0,60.02483827504432,
,,,,,,,,,,,,,,,,4,9.25,9.75,10.25,10.75,0,0.5,0.25,0.25,1.75,10,initial,36.05,333,351,370,388,0,9,9,9,9,0,,,,,,,4,0,4,0,0,10,10,36,,,,,,,,,,,,num_5,0.5923671999771614,num_5,0.55,0.6,0.25000000000000006,0.65,9.21624,23.96222,return,2.808277599979192,,,,,,,,,,,,,,,,,916,22,male,up_down_width,2024-10-23_14h36.52.014,exp1,2023.1.0,60.02483827504432,
,,,,,,,,,,,,,,,,5,9,9.5,10,10.5,11,0.5,0.25,0.25,2.25,10,initial,36.05,324,342,361,379,397,9,9,9,9,9,,,,,,,4,0,4,0,0,11,11,24,,,,,,,,,,,,num_6,0.644893199991202,num_6,0.4,1.0,0.20000000000000007,0.7,7.37299,25.80547,return,3.3471073000109755,,,,,,,,,,,,,,,,,916,22,male,up_down_width,2024-10-23_14h36.52.014,exp1,2023.1.0,60.02483827504432,
,,,,,,,,,,,,,,,,5,9,9.5,10,10.5,11,0.5,0.25,0.25,2.25,10,initial,36.05,324,342,361,379,397,9,9,9,9,9,,,,,,,4,0,4,0,0,12,12,51,,,,,,,,,,,,num_6,0.637490599998273,num_6,0.3,0.5,0.25,0.6,9.21624,22.11898,return,1.9864777000038885,,,,,,,,,,,,,,,,,916,22,male,up_down_width,2024-10-23_14h36.52.014,exp1,2023.1.0,60.02483827504432,
,,,,,,,,,,,,,,,,4,9.25,9.75,10.25,10.75,0,0.5,0.25,0.25,1.75,10,initial,36.05,333,351,370,388,0,9,9,9,9,0,,,,,,,4,0,4,0,0,13,13,12,,,,,,,,,,,,num_6,0.6159667000174522,num_6,0.25,0.4,0.3,0.5,11.05949,18.43248,return,2.5730285000172444,,,,,,,,,,,,,,,,,916,22,male,up_down_width,2024-10-23_14h36.52.014,exp1,2023.1.0,60.02483827504432,
,,,,,,,,,,,,,,,,3,9.5,10,10.5,0,0,0.5,0.25,0.25,1.25,10,initial,36.05,342,361,379,0,0,9,9,9,0,0,,,,,,,4,0,4,0,0,14,14,7,,,,,,,,,,,,num_3,0.6721258999896236,num_3,0.2,0.6,0.3,0.6,11.05949,22.11898,return,2.082949000003282,,,,,,,,,,,,,,,,,916,22,male,up_down_width,2024-10-23_14h36.52.014,exp1,2023.1.0,60.02483827504432,
,,,,,,,,,,,,,,,,4,9.25,9.75,10.25,10.75,0,0.5,0.25,0.25,1.75,10,initial,36.05,333,351,370,388,0,9,9,9,9,0,,,,,,,4,0,4,0,0,15,15,14,,,,,,,,,,,,num_4,0.6601618999848142,num_4,0.35,0.5,0.25,0.6,9.21624,22.11898,return,2.9974941999826115,,,,,,,,,,,,,,,,,916,22,male,up_down_width,2024-10-23_14h36.52.014,exp1,2023.1.0,60.02483827504432,
,,,,,,,,,,,,,,,,4,9.25,9.75,10.25,10.75,0,0.5,0.25,0.25,1.75,10,initial,36.05,333,351,370,388,0,9,9,9,9,0,,,,,,,4,0,4,0,0,16,16,39,,,,,,,,,,,,num_5,0.6957148000074085,num_5,0.2,0.5,0.3,0.55,11.05949,20.27573,return,1.8739936999918427,,,,,,,,,,,,,,,,,916,22,male,up_down_width,2024-10-23_14h36.52.014,exp1,2023.1.0,60.02483827504432,
,,,,,,,,,,,,,,,,5,9,9.5,10,10.5,11,0.5,0.25,0.25,2.25,10,initial,36.05,324,342,361,379,397,9,9,9,9,9,,,,,,,4,0,4,0,0,17,17,45,,,,,,,,,,,,num_6,0.7130785000044852,num_6,0.5,0.7,0.30000000000000004,0.6,11.05949,22.11898,return,2.427631200000178,,,,,,,,,,,,,,,,,916,22,male,up_down_width,2024-10-23_14h36.52.014,exp1,2023.1.0,60.02483827504432,
,,,,,,,,,,,,,,,,3,9.5,10,10.5,0,0,0.5,0.25,0.25,1.25,10,initial,36.05,342,361,379,0,0,9,9,9,0,0,,,,,,,4,0,4,0,0,18,18,0,,,,,,,,,,,,num_3,0.8781733000068925,num_3,0.4,0.6,0.4,0.75,14.74598,27.64872,return,1.7380121999885887,,,,,,,,,,,,,,,,,916,22,male,up_down_width,2024-10-23_14h36.52.014,exp1,2023.1.0,60.02483827504432,
,,,,,,,,,,,,,,,,3,9.5,10,10.5,0,0,0.5,0.25,0.25,1.25,10,initial,36.05,342,361,379,0,0,9,9,9,0,0,,,,,,,4,0,4,0,0,19,19,32,,,,,,,,,,,,num_4,1.293738000007579,num_4,0.5,1.3,0.35000000000000003,0.6,12.90274,22.11898,return,2.9613461999979336,,,,,,,,,,,,,,,,,916,22,male,up_down_width,2024-10-23_14h36.52.014,exp1,2023.1.0,60.02483827504432,
,,,,,,,,,,,,,,,,3,9.5,10,10.5,0,0,0.5,0.25,0.25,1.25,10,initial,36.05,342,361,379,0,0,9,9,9,0,0,,,,,,,4,0,4,0,0,20,20,2,,,,,,,,,,,,num_4,0.6028814000019338,num_4,0.35,0.5,0.3,0.6,11.05949,22.11898,return,1.676693499990506,,,,,,,,,,,,,,,,,916,22,male,up_down_width,2024-10-23_14h36.52.014,exp1,2023.1.0,60.02483827504432,
,,,,,,,,,,,,,,,,3,9.5,10,10.5,0,0,0.5,0.25,0.25,1.25,10,initial,36.05,342,361,379,0,0,9,9,9,0,0,,,,,,,4,0,4,0,0,21,21,35,,,,,,,,,,,,num_3,0.8688254999869969,num_3,0.35,1.3,0.3,0.85,11.05949,31.33522,return,2.890893200004939,,,,,,,,,,,,,,,,,916,22,male,up_down_width,2024-10-23_14h36.52.014,exp1,2023.1.0,60.02483827504432,
,,,,,,,,,,,,,,,,5,9,9.5,10,10.5,11,0.5,0.25,0.25,2.25,10,initial,36.05,324,342,361,379,397,9,9,9,9,9,,,,,,,4,0,4,0,0,22,22,50,,,,,,,,,,,,num_5,0.71567179998965,num_5,0.2,0.6,0.35,0.65,12.90274,23.96222,return,1.896486299985554,,,,,,,,,,,,,,,,,916,22,male,up_down_width,2024-10-23_14h36.52.014,exp1,2023.1.0,60.02483827504432,
,,,,,,,,,,,,,,,,4,9.25,9.75,10.25,10.75,0,0.5,0.25,0.25,1.75,10,initial,36.05,333,351,370,388,0,9,9,9,9,0,,,,,,,4,0,4,0,0,23,23,38,,,,,,,,,,,,num_4,0.7401040999975521,num_4,0.45,1.1,0.35000000000000003,0.8,12.90274,29.49197,return,3.213299700000789,,,,,,,,,,,,,,,,,916,22,male,up_down_width,2024-10-23_14h36.52.014,exp1,2023.1.0,60.02483827504432,
,,,,,,,,,,,,,,,,4,9.25,9.75,10.25,10.75,0,0.5,0.25,0.25,1.75,10,initial,36.05,333,351,370,388,0,9,9,9,9,0,,,,,,,4,0,4,0,0,24,24,42,,,,,,,,,,,,num_5,0.6788097999815363,num_5,0.45,0.8,0.30000000000000004,0.75,11.05949,27.64872,return,3.0017883999971673,,,,,,,,,,,,,,,,,916,22,male,up_down_width,2024-10-23_14h36.52.014,exp1,2023.1.0,60.02483827504432,
,,,,,,,,,,,,,,,,5,9,9.5,10,10.5,11,0.5,0.25,0.25,2.25,10,initial,36.05,324,342,361,379,397,9,9,9,9,9,,,,,,,4,0,4,0,0,25,25,53,,,,,,,,,,,,num_6,0.8963336999877356,num_6,0.3,1.2,0.2,0.7,7.37299,25.80547,return,2.981675700022606,,,,,,,,,,,,,,,,,916,22,male,up_down_width,2024-10-23_14h36.52.014,exp1,2023.1.0,60.02483827504432,
,,,,,,,,,,,,,,,,4,9.25,9.75,10.25,10.75,0,0.5,0.25,0.25,1.75,10,initial,36.05,333,351,370,388,0,9,9,9,9,0,,,,,,,4,0,4,0,0,26,26,44,,,,,,,,,,,,num_5,0.653531899995869,num_5,0.3,0.9,0.25,0.8,9.21624,29.49197,return,3.313870699988911,,,,,,,,,,,,,,,,,916,22,male,up_down_width,2024-10-23_14h36.52.014,exp1,2023.1.0,60.02483827504432,
,,,,,,,,,,,,,,,,5,9,9.5,10,10.5,11,0.5,0.25,0.25,2.25,10,initial,36.05,324,342,361,379,397,9,9,9,9,9,,,,,,,4,0,4,0,0,27,27,46,,,,,,,,,,,,num_6,0.6464973999827635,num_6,0.25,1.2,0.25,0.7,9.21624,25.80547,return,2.1236430999997538,,,,,,,,,,,,,,,,,916,22,male,up_down_width,2024-10-23_14h36.52.014,exp1,2023.1.0,60.02483827504432,
,,,,,,,,,,,,,,,,5,9,9.5,10,10.5,11,0.5,0.25,0.25,2.25,10,initial,36.05,324,342,361,379,397,9,9,9,9,9,,,,,,,4,0,4,0,0,28,28,25,,,,,,,,,,,,num_6,0.7768512000038754,num_6,0.25,0.4,0.3,0.5,11.05949,18.43248,return,3.129904000001261,,,,,,,,,,,,,,,,,916,22,male,up_down_width,2024-10-23_14h36.52.014,exp1,2023.1.0,60.02483827504432,
,,,,,,,,,,,,,,,,5,9,9.5,10,10.5,11,0.5,0.25,0.25,2.25,10,initial,36.05,324,342,361,379,397,9,9,9,9,9,,,,,,,4,0,4,0,0,29,29,22,,,,,,,,,,,,num_5,0.7295824999746401,num_5,0.2,0.9,0.35,0.75,12.90274,27.64872,return,2.14602789998753,,,,,,,,,,,,,,,,,916,22,male,up_down_width,2024-10-23_14h36.52.014,exp1,2023.1.0,60.02483827504432,
,,,,,,,,,,,,,,,,3,9.5,10,10.5,0,0,0.5,0.25,0.25,1.25,10,initial,36.05,342,361,379,0,0,9,9,9,0,0,,,,,,,4,0,4,0,0,30,30,29,,,,,,,,,,,,num_3,0.6266090999706648,num_3,0.45,0.8,0.30000000000000004,0.6,11.05949,22.11898,return,1.8454961999959778,,,,,,,,,,,,,,,,,916,22,male,up_down_width,2024-10-23_14h36.52.014,exp1,2023.1.0,60.02483827504432,
,,,,,,,,,,,,,,,,3,9.5,10,10.5,0,0,0.5,0.25,0.25,1.25,10,initial,36.05,342,361,379,0,0,9,9,9,0,0,,,,,,,4,0,4,0,0,31,31,34,,,,,,,,,,,,num_4,0.6893319000082556,num_4,0.5,0.9,0.4,0.5,14.74598,18.43248,return,2.226531899999827,,,,,,,,,,,,,,,,,916,22,male,up_down_width,2024-10-23_14h36.52.014,exp1,2023.1.0,60.02483827504432,
,,,,,,,,,,,,,,,,5,9,9.5,10,10.5,11,0.5,0.25,0.25,2.25,10,initial,36.05,324,342,361,379,397,9,9,9,9,9,,,,,,,4,0,4,0,0,32,32,21,,,,,,,,,,,,num_5,0.569197599979816,num_5,0.35,0.6,0.25,0.5,9.21624,18.43248,return,2.1068817999912426,,,,,,,,,,,,,,,,,916,22,male,up_down_width,2024-10-23_14h36.52.014,exp1,2023.1.0,60.02483827504432,
,,,,,,,,,,,,,,,,5,9,9.5,10,10.5,11,0.5,0.25,0.25,2.25,10,initial,36.05,324,342,361,379,397,9,9,9,9,9,,,,,,,4,0,4,0,0,33,33,47,,,,,,,,,,,,num_6,0.5756637999729719,num_6,0.35,1.1,0.25,0.6,9.21624,22.11898,return,1.8806384999770671,,,,,,,,,,,,,,,,,916,22,male,up_down_width,2024-10-23_14h36.52.014,exp1,2023.1.0,60.02483827504432,
,,,,,,,,,,,,,,,,4,9.25,9.75,10.25,10.75,0,0.5,0.25,0.25,1.75,10,initial,36.05,333,351,370,388,0,9,9,9,9,0,,,,,,,4,0,4,0,0,34,34,9,,,,,,,,,,,,num_5,1.3983577000035439,num_5,0.35,0.5,0.2,0.4,7.37299,14.74598,return,1.5437584999890532,,,,,,,,,,,,,,,,,916,22,male,up_down_width,2024-10-23_14h36.52.014,exp1,2023.1.0,60.02483827504432,
,,,,,,,,,,,,,,,,5,9,9.5,10,10.5,11,0.5,0.25,0.25,2.25,10,initial,36.05,324,342,361,379,397,9,9,9,9,9,,,,,,,4,0,4,0,0,35,35,48,,,,,,,,,,,,num_5,0.896325399982743,num_5,0.2,0.7,0.3,0.6,11.05949,22.11898,return,2.184771300002467,,,,,,,,,,,,,,,,,916,22,male,up_down_width,2024-10-23_14h36.52.014,exp1,2023.1.0,60.02483827504432,
,,,,,,,,,,,,,,,,4,9.25,9.75,10.25,10.75,0,0.5,0.25,0.25,1.75,10,initial,36.05,333,351,370,388,0,9,9,9,9,0,,,,,,,4,0,4,0,0,36,36,17,,,,,,,,,,,,num_5,0.6367168000142556,num_5,0.55,1.2,0.4,0.85,14.74598,31.33522,return,2.2752533000020776,,,,,,,,,,,,,,,,,916,22,male,up_down_width,2024-10-23_14h36.52.014,exp1,2023.1.0,60.02483827504432,
,,,,,,,,,,,,,,,,3,9.5,10,10.5,0,0,0.5,0.25,0.25,1.25,10,initial,36.05,342,361,379,0,0,9,9,9,0,0,,,,,,,4,0,4,0,0,37,37,5,,,,,,,,,,,,num_3,0.763109199993778,num_3,0.2,0.4,0.35,0.55,12.90274,20.27573,return,2.6348389000049792,,,,,,,,,,,,,,,,,916,22,male,up_down_width,2024-10-23_14h36.52.014,exp1,2023.1.0,60.02483827504432,
,,,,,,,,,,,,,,,,4,9.25,9.75,10.25,10.75,0,0.5,0.25,0.25,1.75,10,initial,36.05,333,351,370,388,0,9,9,9,9,0,,,,,,,4,0,4,0,0,38,38,43,,,,,,,,,,,,num_3,0.64427550000255,num_3,0.2,1,0.39999999999999997,0.85,14.74598,31.33522,return,2.777483999991091,,,,,,,,,,,,,,,,,916,22,male,up_down_width,2024-10-23_14h36.52.014,exp1,2023.1.0,60.02483827504432,
,,,,,,,,,,,,,,,,3,9.5,10,10.5,0,0,0.5,0.25,0.25,1.25,10,initial,36.05,342,361,379,0,0,9,9,9,0,0,,,,,,,4,0,4,0,0,39,39,6,,,,,,,,,,,,num_3,1.032510099990759,num_3,0.25,0.6,0.44999999999999996,0.75,16.58923,27.64872,return,1.8831912000023294,,,,,,,,,,,,,,,,,916,22,male,up_down_width,2024-10-23_14h36.52.014,exp1,2023.1.0,60.02483827504432,
,,,,,,,,,,,,,,,,4,9.25,9.75,10.25,10.75,0,0.5,0.25,0.25,1.75,10,initial,36.05,333,351,370,388,0,9,9,9,9,0,,,,,,,4,0,4,0,0,40,40,15,,,,,,,,,,,,num_5,0.7145956000022124,num_5,0.2,0.6,0.3,0.55,11.05949,20.27573,return,1.7061866000003647,,,,,,,,,,,,,,,,,916,22,male,up_down_width,2024-10-23_14h36.52.014,exp1,2023.1.0,60.02483827504432,
,,,,,,,,,,,,,,,,5,9,9.5,10,10.5,11,0.5,0.25,0.25,2.25,10,initial,36.05,324,342,361,379,397,9,9,9,9,9,,,,,,,4,0,4,0,0,41,41,18,,,,,,,,,,,,num_6,0.7220741999917664,num_6,0.5,0.6,0.30000000000000004,0.5,11.05949,18.43248,return,2.3043781999731436,,,,,,,,,,,,,,,,,916,22,male,up_down_width,2024-10-23_14h36.52.014,exp1,2023.1.0,60.02483827504432,
,,,,,,,,,,,,,,,,5,9,9.5,10,10.5,11,0.5,0.25,0.25,2.25,10,initial,36.05,324,342,361,379,397,9,9,9,9,9,,,,,,,4,0,4,0,0,42,42,19,,,,,,,,,,,,num_6,0.6811391999945045,num_6,0.3,0.8,0.39999999999999997,0.7,14.74598,25.80547,return,1.884469499986153,,,,,,,,,,,,,,,,,916,22,male,up_down_width,2024-10-23_14h36.52.014,exp1,2023.1.0,60.02483827504432,
,,,,,,,,,,,,,,,,4,9.25,9.75,10.25,10.75,0,0.5,0.25,0.25,1.75,10,initial,36.05,333,351,370,388,0,9,9,9,9,0,,,,,,,4,0,4,0,0,43,43,40,,,,,,,,,,,,num_6,0.5862539999943692,num_6,0.55,0.6,0.30000000000000004,0.5,11.05949,18.43248,return,4.112881599983666,,,,,,,,,,,,,,,,,916,22,male,up_down_width,2024-10-23_14h36.52.014,exp1,2023.1.0,60.02483827504432,
,,,,,,,,,,,,,,,,4,9.25,9.75,10.25,10.75,0,0.5,0.25,0.25,1.75,10,initial,36.05,333,351,370,388,0,9,9,9,9,0,,,,,,,4,0,4,0,0,44,44,16,,,,,,,,,,,,num_6,0.6789898999850266,num_6,0.35,0.4,0.35,0.6,12.90274,22.11898,return,3.4179827000189107,,,,,,,,,,,,,,,,,916,22,male,up_down_width,2024-10-23_14h36.52.014,exp1,2023.1.0,60.02483827504432,
,,,,,,,,,,,,,,,,3,9.5,10,10.5,0,0,0.5,0.25,0.25,1.25,10,initial,36.05,342,361,379,0,0,9,9,9,0,0,,,,,,,4,0,4,0,0,45,45,33,,,,,,,,,,,,num_3,0.6024646000005305,num_3,0.55,0.8,0.35000000000000003,0.7,12.90274,25.80547,return,2.3065386999805924,,,,,,,,,,,,,,,,,916,22,male,up_down_width,2024-10-23_14h36.52.014,exp1,2023.1.0,60.02483827504432,
,,,,,,,,,,,,,,,,4,9.25,9.75,10.25,10.75,0,0.5,0.25,0.25,1.75,10,initial,36.05,333,351,370,388,0,9,9,9,9,0,,,,,,,4,0,4,0,0,46,46,11,,,,,,,,,,,,num_4,0.6903058000025339,num_4,0.5,0.6,0.30000000000000004,0.5,11.05949,18.43248,return,1.5096223000145983,,,,,,,,,,,,,,,,,916,22,male,up_down_width,2024-10-23_14h36.52.014,exp1,2023.1.0,60.02483827504432,
,,,,,,,,,,,,,,,,5,9,9.5,10,10.5,11,0.5,0.25,0.25,2.25,10,initial,36.05,324,342,361,379,397,9,9,9,9,9,,,,,,,4,0,4,0,0,47,47,52,,,,,,,,,,,,num_7,0.640725500008557,num_7,0.4,0.5,0.20000000000000007,0.45,7.37299,16.58923,return,2.0664861999975983,,,,,,,,,,,,,,,,,916,22,male,up_down_width,2024-10-23_14h36.52.014,exp1,2023.1.0,60.02483827504432,
,,,,,,,,,,,,,,,,4,9.25,9.75,10.25,10.75,0,0.5,0.25,0.25,1.75,10,initial,36.05,333,351,370,388,0,9,9,9,9,0,,,,,,,4,0,4,0,0,48,48,37,,,,,,,,,,,,num_5,0.6825986999901943,num_5,0.4,0.7,0.30000000000000004,0.6,11.05949,22.11898,return,1.357268899999326,,,,,,,,,,,,,,,,,916,22,male,up_down_width,2024-10-23_14h36.52.014,exp1,2023.1.0,60.02483827504432,
,,,,,,,,,,,,,,,,5,9,9.5,10,10.5,11,0.5,0.25,0.25,2.25,10,initial,36.05,324,342,361,379,397,9,9,9,9,9,,,,,,,4,0,4,0,0,49,49,20,,,,,,,,,,,,num_4,0.911746999976458,num_4,0.45,1.3,0.30000000000000004,0.7,11.05949,25.80547,return,2.74035019997973,,,,,,,,,,,,,,,,,916,22,male,up_down_width,2024-10-23_14h36.52.014,exp1,2023.1.0,60.02483827504432,
,,,,,,,,,,,,,,,,3,9.5,10,10.5,0,0,0.5,0.25,0.25,1.25,10,initial,36.05,342,361,379,0,0,9,9,9,0,0,,,,,,,4,0,4,0,0,50,50,3,,,,,,,,,,,,num_3,1.363023299985798,num_3,0.45,1.2,0.4,0.95,14.74598,35.02171,return,3.0991615999955684,,,,,,,,,,,,,,,,,916,22,male,up_down_width,2024-10-23_14h36.52.014,exp1,2023.1.0,60.02483827504432,
,,,,,,,,,,,,,,,,3,9.5,10,10.5,0,0,0.5,0.25,0.25,1.25,10,initial,36.05,342,361,379,0,0,9,9,9,0,0,,,,,,,4,0,4,0,0,51,51,4,,,,,,,,,,,,num_3,0.7613850999914575,num_3,0.4,0.5,0.35000000000000003,0.6,12.90274,22.11898,return,1.334606199990958,,,,,,,,,,,,,,,,,916,22,male,up_down_width,2024-10-23_14h36.52.014,exp1,2023.1.0,60.02483827504432,
,,,,,,,,,,,,,,,,3,9.5,10,10.5,0,0,0.5,0.25,0.25,1.25,10,initial,36.05,342,361,379,0,0,9,9,9,0,0,,,,,,,4,0,4,0,0,52,52,8,,,,,,,,,,,,num_4,0.6935112999926787,num_4,0.45,0.8,0.30000000000000004,0.6,11.05949,22.11898,return,4.184281800000463,,,,,,,,,,,,,,,,,916,22,male,up_down_width,2024-10-23_14h36.52.014,exp1,2023.1.0,60.02483827504432,
,,,,,,,,,,,,,,,,5,9,9.5,10,10.5,11,0.5,0.25,0.25,2.25,10,initial,36.05,324,342,361,379,397,9,9,9,9,9,,,,,,,4,0,4,0,0,53,53,26,,,,,,,,,,,,num_5,0.7066202000132762,num_5,0.25,0.4,0.3,0.55,11.05949,20.27573,return,3.0274234999960754,,,,,,,,,,,,,,,,,916,22,male,up_down_width,2024-10-23_14h36.52.014,exp1,2023.1.0,60.02483827504432,
,,,,,,,,,,,,,,,,,,,,,,,,,,,,,,,,,,,,,,,,,,,,,4,0,4,0,,,,,,,,,,,,,,,,,,,,,,,,,,,,,1870.0174269999843,1870.0174269999843,1870.0174269999843,,,,,,,,,,,,916,22,male,up_down_width,2024-10-23_14h36.52.014,exp1,2023.1.0,60.02483827504432,
,,,,,,,,,,,,,,,,4,8.65,9.55,10.45,11.35,0,0.9,0.35,0.55,3.25,10,initial,36.05,312,344,377,409,0,9,9,9,9,0,,,,,,,5,0,5,0,0,0,0,41,,,,,,,,,,,,num_5,1.0471177999861538,num_5,0.25,1.1,0.44999999999999996,0.95,16.58923,35.02171,return,2.7647949999955017,,,,,,,,,,,,,,,,,916,22,male,up_down_width,2024-10-23_14h36.52.014,exp1,2023.1.0,60.02483827504432,
,,,,,,,,,,,,,,,,4,8.65,9.55,10.45,11.35,0,0.9,0.35,0.55,3.25,10,initial,36.05,312,344,377,409,0,9,9,9,9,0,,,,,,,5,0,5,0,0,1,1,13,,,,,,,,,,,,num_5,0.7349022999987938,num_5,0.45,1.3,0.55,1.05,20.27573,38.70821,return,2.0938183999969624,,,,,,,,,,,,,,,,,916,22,male,up_down_width,2024-10-23_14h36.52.014,exp1,2023.1.0,60.02483827504432,
,,,,,,,,,,,,,,,,5,8.2,9.1,10,10.9,11.8,0.9,0.35,0.55,4.15,10,initial,36.05,296,328,361,393,425,9,9,9,9,9,,,,,,,5,0,5,0,0,2,2,51,,,,,,,,,,,,num_5,0.8797250000061467,num_5,0.25,1.3,0.5499999999999999,1.15,20.27573,42.3947,return,1.9443783000169788,,,,,,,,,,,,,,,,,916,22,male,up_down_width,2024-10-23_14h36.52.014,exp1,2023.1.0,60.02483827504432,
,,,,,,,,,,,,,,,,3,9.1,10,10.9,0,0,0.9,0.35,0.55,2.35,10,initial,36.05,328,361,393,0,0,9,9,9,0,0,,,,,,,5,0,5,0,0,3,3,4,,,,,,,,,,,,num_3,0.686170899978606,num_3,0.35,0.4,0.5499999999999999,0.85,20.27573,31.33522,return,4.3628902999917045,,,,,,,,,,,,,,,,,916,22,male,up_down_width,2024-10-23_14h36.52.014,exp1,2023.1.0,60.02483827504432,
,,,,,,,,,,,,,,,,4,8.65,9.55,10.45,11.35,0,0.9,0.35,0.55,3.25,10,initial,36.05,312,344,377,409,0,9,9,9,9,0,,,,,,,5,0,5,0,0,4,4,14,,,,,,,,,,,,num_4,0.7147836999793071,num_4,0.2,1.0,0.5499999999999999,1.0,20.27573,36.86496,return,2.7784657000156585,,,,,,,,,,,,,,,,,916,22,male,up_down_width,2024-10-23_14h36.52.014,exp1,2023.1.0,60.02483827504432,
,,,,,,,,,,,,,,,,4,8.65,9.55,10.45,11.35,0,0.9,0.35,0.55,3.25,10,initial,36.05,312,344,377,409,0,9,9,9,9,0,,,,,,,5,0,5,0,0,5,5,36,,,,,,,,,,,,num_4,0.6707819000002928,num_4,0.2,0.5,0.5499999999999999,0.8,20.27573,29.49197,return,2.894963300001109,,,,,,,,,,,,,,,,,916,22,male,up_down_width,2024-10-23_14h36.52.014,exp1,2023.1.0,60.02483827504432,
,,,,,,,,,,,,,,,,5,8.2,9.1,10,10.9,11.8,0.9,0.35,0.55,4.15,10,initial,36.05,296,328,361,393,425,9,9,9,9,9,,,,,,,5,0,5,0,0,6,6,20,,,,,,,,,,,,num_5,0.6727594999829307,num_5,0.4,1.3,0.6000000000000001,1.2,22.11898,44.23795,return,1.9555526000040118,,,,,,,,,,,,,,,,,916,22,male,up_down_width,2024-10-23_14h36.52.014,exp1,2023.1.0,60.02483827504432,
,,,,,,,,,,,,,,,,5,8.2,9.1,10,10.9,11.8,0.9,0.35,0.55,4.15,10,initial,36.05,296,328,361,393,425,9,9,9,9,9,,,,,,,5,0,5,0,0,7,7,26,,,,,,,,,,,,num_5,0.8151095999928657,num_5,0.25,0.5,0.49999999999999994,0.65,18.43248,23.96222,return,4.060946199984755,,,,,,,,,,,,,,,,,916,22,male,up_down_width,2024-10-23_14h36.52.014,exp1,2023.1.0,60.02483827504432,
,,,,,,,,,,,,,,,,4,8.65,9.55,10.45,11.35,0,0.9,0.35,0.55,3.25,10,initial,36.05,312,344,377,409,0,9,9,9,9,0,,,,,,,5,0,5,0,0,8,8,44,,,,,,,,,,,,num_4,0.6769787000084762,num_4,0.35,1.0,0.6,1.0,22.11898,36.86496,return,2.4075430000084452,,,,,,,,,,,,,,,,,916,22,male,up_down_width,2024-10-23_14h36.52.014,exp1,2023.1.0,60.02483827504432,
,,,,,,,,,,,,,,,,5,8.2,9.1,10,10.9,11.8,0.9,0.35,0.55,4.15,10,initial,36.05,296,328,361,393,425,9,9,9,9,9,,,,,,,5,0,5,0,0,9,9,24,,,,,,,,,,,,num_5,0.61367320001591,num_5,0.5,0.9,0.6500000000000001,1.05,23.96222,38.70821,return,3.1804742000240367,,,,,,,,,,,,,,,,,916,22,male,up_down_width,2024-10-23_14h36.52.014,exp1,2023.1.0,60.02483827504432,
,,,,,,,,,,,,,,,,4,8.65,9.55,10.45,11.35,0,0.9,0.35,0.55,3.25,10,initial,36.05,312,344,377,409,0,9,9,9,9,0,,,,,,,5,0,5,0,0,10,10,11,,,,,,,,,,,,num_5,0.6488749999844003,num_5,0.2,0.5,0.44999999999999996,0.7,16.58923,25.80547,return,2.6712956000119448,,,,,,,,,,,,,,,,,916,22,male,up_down_width,2024-10-23_14h36.52.014,exp1,2023.1.0,60.02483827504432,
,,,,,,,,,,,,,,,,5,8.2,9.1,10,10.9,11.8,0.9,0.35,0.55,4.15,10,initial,36.05,296,328,361,393,425,9,9,9,9,9,,,,,,,5,0,5,0,0,11,11,45,,,,,,,,,,,,num_5,0.7266180999868084,num_5,0.2,1.0,0.5499999999999999,0.9,20.27573,33.17846,return,4.297601999976905,,,,,,,,,,,,,,,,,916,22,male,up_down_width,2024-10-23_14h36.52.014,exp1,2023.1.0,60.02483827504432,
