amount_p,posx1_p,posx2_p,posx3_p,posx4_p,posx5_p,center_to_center_p,edge_to_edge_p,w_p,stim_length_p,eccentricity_p,line1_p,line2_p,line3_p,line4_p,line5_p,amount,posx1,posx2,posx3,posx4,posx5,center_to_center,edge_to_edge,w,stim_length,eccentricity,trial_type,deg_to_pix_index,posx1_in_pix,posx2_in_pix,posx3_in_pix,posx4_in_pix,posx5_in_pix,line1,line2,line3,line4,line5,posx,setsize_cobdi,trials.thisRepN,trials.thisTrialN,trials.thisN,trials.thisIndex,blocks.thisRepN,blocks.thisTrialN,blocks.thisN,blocks.thisIndex,loop.thisRepN,loop.thisTrialN,loop.thisN,loop.thisIndex,first.thisRepN,first.thisTrialN,first.thisN,first.thisIndex,second.thisRepN,second.thisTrialN,second.thisN,second.thisIndex,key_resp_3.started,key_resp_3.keys,key_resp_3.rt,key_resp.keys,key_resp.rt,response,starting_width_deg,starting_space_deg,response_width_degree,response_spacing_degree,response_width_pixel,response_spacing_pixel,next_5.keys,next_5.rt,key_resp_4.keys,key_resp_4.rt,text_3.started,text_4.started,key_resp_2.started,text_2.started,key_resp_2.keys,key_resp_2.rt,adjusting.started,next.keys,next.rt,text_control2.started,key_resp.started,key_resp.corr,text_bye.started,text_bye.stopped,participant,age,gender,resp_group,date,expName,psychopyVersion,frameRate,
,,,,,,,,,,,,,,,,,,,,,,,,,,,,,,,,,,,,,,,,,,,,,,,,,,,,,,,,,,,,,37.25915930001065,c,126.86026630003471,,,,,,,,,,,,,,,,,,,,,,,,,,,,717,19,female,left_right_width,2024-10-24_15h50.43.242,exp1,2023.1.0,60.000420013123176,
5,9,9.5,10,10.5,11,0.5,0.1,0.4,2.4,10,9,9,9,9,9,,,,,,,,,,,,,,,,,,,,,,,,,,0,0,0,5,,,,,,,,,,,,,,,,,,,,num_3,6.075311599997804,num_3,0.35,1.3,0.25,0.65,9.21624,23.96222,return,18.93580390000716,,,,,,,,,,,,,,,,,717,19,female,left_right_width,2024-10-24_15h50.43.242,exp1,2023.1.0,60.000420013123176,
3,9.5,10,10.5,0,0,0.5,0.25,0.25,1.25,10,9,9,9,0,0,,,,,,,,,,,,,,,,,,,,,,,,,,0,1,1,0,,,,,,,,,,,,,,,,,,,,num_3,4.332446400017943,num_3,0.55,1.2,0.20000000000000007,0.95,7.37299,35.02171,return,22.014475999982096,,,,,,,,,,,,,,,,,717,19,female,left_right_width,2024-10-24_15h50.43.242,exp1,2023.1.0,60.000420013123176,
3,9.1,10,10.9,0,0,0.9,0.35,0.55,2.35,10,9,9,9,0,0,,,,,,,,,,,,,,,,,,,,,,,,,,0,2,2,3,,,,,,,,,,,,,,,,,,,,num_3,3.254731699998956,num_3,0.2,0.4,0.35,1.2,12.90274,44.23795,return,8.243335999955889,,,,,,,,,,,,,,,,,717,19,female,left_right_width,2024-10-24_15h50.43.242,exp1,2023.1.0,60.000420013123176,
4,9.25,9.75,10.25,10.75,0,0.5,0.1,0.4,1.9000000000000001,10,9,9,9,9,0,,,,,,,,,,,,,,,,,,,,,,,,,,0,3,3,4,,,,,,,,,,,,,,,,,,,,num_3,4.784088500018697,num_3,0.45,1.3,0.4,0.8,14.74598,29.49197,return,36.735874000005424,,,,,,,,,,,,,,,,,717,19,female,left_right_width,2024-10-24_15h50.43.242,exp1,2023.1.0,60.000420013123176,
5,8.2,9.1,10,10.9,11.8,0.9,0.35,0.55,4.15,10,9,9,9,9,9,,,,,,,,,,,,,,,,,,,,,,,,,,0,4,4,2,,,,,,,,,,,,,,,,,,,,num_4,1.8678129999898374,num_4,0.4,1.0,0.4,1.0,14.74598,36.86496,return,4.0477392000029795,,,,,,,,,,,,,,,,,717,19,female,left_right_width,2024-10-24_15h50.43.242,exp1,2023.1.0,60.000420013123176,
4,9.25,9.75,10.25,10.75,0,0.5,0.25,0.25,1.75,10,9,9,9,9,0,,,,,,,,,,,,,,,,,,,,,,,,,,0,5,5,1,,,,,,,,,,,,,,,,,,,,num_3,2.1017696000053547,num_3,0.3,0.9,0.3,0.9,11.05949,33.17846,return,5.023268699995242,,,,,,,,,,,,,,,,,717,19,female,left_right_width,2024-10-24_15h50.43.242,exp1,2023.1.0,60.000420013123176,
,,,,,,,,,,,,,,,,,,,,,,,,,,,,,,,,,,,,,,,,,,,,,,,,,,,,,,,,,,,,,,,,,,,,,,,,,,,c,121.86130140000023,,,,,,,,,,,,,,,717,19,female,left_right_width,2024-10-24_15h50.43.242,exp1,2023.1.0,60.000420013123176,
,,,,,,,,,,,,,,,,4,8.65,9.55,10.45,11.35,0,0.9,0.35,0.55,3.25,10,initial,36.05,312,344,377,409,0,9,9,9,9,0,,,,,,,0,0,0,0,0,0,0,43,,,,,,,,,,,,num_4,2.33546730002854,num_4,0.35,1.0,0.49999999999999994,1.2,18.43248,44.23795,return,4.560635100002401,,,,,,,,,,,,,,,,,717,19,female,left_right_width,2024-10-24_15h50.43.242,exp1,2023.1.0,60.000420013123176,
,,,,,,,,,,,,,,,,5,8.2,9.1,10,10.9,11.8,0.9,0.35,0.55,4.15,10,initial,36.05,296,328,361,393,425,9,9,9,9,9,,,,,,,0,0,0,0,0,1,1,47,,,,,,,,,,,,num_5,1.399742299981881,num_5,0.3,0.4,0.35,1.0,12.90274,36.86496,return,4.9052106000017375,,,,,,,,,,,,,,,,,717,19,female,left_right_width,2024-10-24_15h50.43.242,exp1,2023.1.0,60.000420013123176,
,,,,,,,,,,,,,,,,4,8.65,9.55,10.45,11.35,0,0.9,0.35,0.55,3.25,10,initial,36.05,312,344,377,409,0,9,9,9,9,0,,,,,,,0,0,0,0,0,2,2,10,,,,,,,,,,,,num_4,1.2880848000058904,num_4,0.4,0.7,0.4,0.7,14.74598,25.80547,return,1.827252099988982,,,,,,,,,,,,,,,,,717,19,female,left_right_width,2024-10-24_15h50.43.242,exp1,2023.1.0,60.000420013123176,
,,,,,,,,,,,,,,,,5,8.2,9.1,10,10.9,11.8,0.9,0.35,0.55,4.15,10,initial,36.05,296,328,361,393,425,9,9,9,9,9,,,,,,,0,0,0,0,0,3,3,26,,,,,,,,,,,,num_5,1.278073499968741,num_5,0.25,0.4,0.39999999999999997,1.2,14.74598,44.23795,return,8.618201300036162,,,,,,,,,,,,,,,,,717,19,female,left_right_width,2024-10-24_15h50.43.242,exp1,2023.1.0,60.000420013123176,
,,,,,,,,,,,,,,,,3,9.1,10,10.9,0,0,0.9,0.35,0.55,2.35,10,initial,36.05,328,361,393,0,0,9,9,9,0,0,,,,,,,0,0,0,0,0,4,4,31,,,,,,,,,,,,num_3,1.8061597000341862,num_3,0.4,1,0.5,1,18.43248,36.86496,return,2.591787600016687,,,,,,,,,,,,,,,,,717,19,female,left_right_width,2024-10-24_15h50.43.242,exp1,2023.1.0,60.000420013123176,
,,,,,,,,,,,,,,,,5,8.2,9.1,10,10.9,11.8,0.9,0.35,0.55,4.15,10,initial,36.05,296,328,361,393,425,9,9,9,9,9,,,,,,,0,0,0,0,0,5,5,23,,,,,,,,,,,,num_6,1.6482880000257865,num_6,0.2,0.8,0.39999999999999997,1.0,14.74598,36.86496,return,6.921853900013957,,,,,,,,,,,,,,,,,717,19,female,left_right_width,2024-10-24_15h50.43.242,exp1,2023.1.0,60.000420013123176,
,,,,,,,,,,,,,,,,5,8.2,9.1,10,10.9,11.8,0.9,0.35,0.55,4.15,10,initial,36.05,296,328,361,393,425,9,9,9,9,9,,,,,,,0,0,0,0,0,6,6,20,,,,,,,,,,,,num_5,1.3852209000033326,num_5,0.55,1.0,0.35000000000000003,1.0,12.90274,36.86496,return,3.9495538999908604,,,,,,,,,,,,,,,,,717,19,female,left_right_width,2024-10-24_15h50.43.242,exp1,2023.1.0,60.000420013123176,
,,,,,,,,,,,,,,,,3,9.1,10,10.9,0,0,0.9,0.35,0.55,2.35,10,initial,36.05,328,361,393,0,0,9,9,9,0,0,,,,,,,0,0,0,0,0,7,7,29,,,,,,,,,,,,num_3,1.8352328999899328,num_3,0.4,1.2,0.5,1.2,18.43248,44.23795,return,2.0295754999970086,,,,,,,,,,,,,,,,,717,19,female,left_right_width,2024-10-24_15h50.43.242,exp1,2023.1.0,60.000420013123176,
,,,,,,,,,,,,,,,,3,9.1,10,10.9,0,0,0.9,0.35,0.55,2.35,10,initial,36.05,328,361,393,0,0,9,9,9,0,0,,,,,,,0,0,0,0,0,8,8,4,,,,,,,,,,,,num_3,1.4024707000353374,num_3,0.4,1.3,0.4,1.4,14.74598,51.61094,return,8.112151800014544,,,,,,,,,,,,,,,,,717,19,female,left_right_width,2024-10-24_15h50.43.242,exp1,2023.1.0,60.000420013123176,
,,,,,,,,,,,,,,,,4,8.65,9.55,10.45,11.35,0,0.9,0.35,0.55,3.25,10,initial,36.05,312,344,377,409,0,9,9,9,9,0,,,,,,,0,0,0,0,0,9,9,13,,,,,,,,,,,,num_4,1.3652857999550179,num_4,0.25,0.9,0.39999999999999997,1.1,14.74598,40.55146,return,3.5977665999671444,,,,,,,,,,,,,,,,,717,19,female,left_right_width,2024-10-24_15h50.43.242,exp1,2023.1.0,60.000420013123176,
,,,,,,,,,,,,,,,,5,8.2,9.1,10,10.9,11.8,0.9,0.35,0.55,4.15,10,initial,36.05,296,328,361,393,425,9,9,9,9,9,,,,,,,0,0,0,0,0,10,10,51,,,,,,,,,,,,num_5,1.3006740999990143,num_5,0.55,1.1,0.4,1.1,14.74598,40.55146,return,2.349479699973017,,,,,,,,,,,,,,,,,717,19,female,left_right_width,2024-10-24_15h50.43.242,exp1,2023.1.0,60.000420013123176,
,,,,,,,,,,,,,,,,5,8.2,9.1,10,10.9,11.8,0.9,0.35,0.55,4.15,10,initial,36.05,296,328,361,393,425,9,9,9,9,9,,,,,,,0,0,0,0,0,11,11,48,,,,,,,,,,,,num_6,1.4227351000299677,num_6,0.2,1.3,0.49999999999999994,1.4,18.43248,51.61094,return,6.43411010003183,,,,,,,,,,,,,,,,,717,19,female,left_right_width,2024-10-24_15h50.43.242,exp1,2023.1.0,60.000420013123176,
,,,,,,,,,,,,,,,,3,9.1,10,10.9,0,0,0.9,0.35,0.55,2.35,10,initial,36.05,328,361,393,0,0,9,9,9,0,0,,,,,,,0,0,0,0,0,12,12,3,,,,,,,,,,,,num_3,1.7884719999856316,num_3,0.3,1.1,0.49999999999999994,1.2,18.43248,44.23795,return,4.2240694999927655,,,,,,,,,,,,,,,,,717,19,female,left_right_width,2024-10-24_15h50.43.242,exp1,2023.1.0,60.000420013123176,
,,,,,,,,,,,,,,,,4,8.65,9.55,10.45,11.35,0,0.9,0.35,0.55,3.25,10,initial,36.05,312,344,377,409,0,9,9,9,9,0,,,,,,,0,0,0,0,0,13,13,36,,,,,,,,,,,,num_4,1.1852817999897525,num_4,0.35,1.0,0.5499999999999999,1.3,20.27573,47.92445,return,3.660306399979163,,,,,,,,,,,,,,,,,717,19,female,left_right_width,2024-10-24_15h50.43.242,exp1,2023.1.0,60.000420013123176,
,,,,,,,,,,,,,,,,5,8.2,9.1,10,10.9,11.8,0.9,0.35,0.55,4.15,10,initial,36.05,296,328,361,393,425,9,9,9,9,9,,,,,,,0,0,0,0,0,14,14,53,,,,,,,,,,,,num_6,1.4424665999831632,num_6,0.25,0.5,0.49999999999999994,1.3,18.43248,47.92445,return,8.63241849996848,,,,,,,,,,,,,,,,,717,19,female,left_right_width,2024-10-24_15h50.43.242,exp1,2023.1.0,60.000420013123176,
,,,,,,,,,,,,,,,,3,9.1,10,10.9,0,0,0.9,0.35,0.55,2.35,10,initial,36.05,328,361,393,0,0,9,9,9,0,0,,,,,,,0,0,0,0,0,15,15,27,,,,,,,,,,,,num_3,1.3326274999999441,num_3,0.3,0.4,0.49999999999999994,1.3,18.43248,47.92445,return,5.662133400037419,,,,,,,,,,,,,,,,,717,19,female,left_right_width,2024-10-24_15h50.43.242,exp1,2023.1.0,60.000420013123176,
,,,,,,,,,,,,,,,,3,9.1,10,10.9,0,0,0.9,0.35,0.55,2.35,10,initial,36.05,328,361,393,0,0,9,9,9,0,0,,,,,,,0,0,0,0,0,16,16,33,,,,,,,,,,,,num_3,1.1983056999742985,num_3,0.55,1.3,0.45,1.45,16.58923,53.45419,return,10.761779799999204,,,,,,,,,,,,,,,,,717,19,female,left_right_width,2024-10-24_15h50.43.242,exp1,2023.1.0,60.000420013123176,
,,,,,,,,,,,,,,,,4,8.65,9.55,10.45,11.35,0,0.9,0.35,0.55,3.25,10,initial,36.05,312,344,377,409,0,9,9,9,9,0,,,,,,,0,0,0,0,0,17,17,16,,,,,,,,,,,,num_4,1.8395015999558382,num_4,0.55,1.0,0.35000000000000003,1.0,12.90274,36.86496,return,2.9974711999529973,,,,,,,,,,,,,,,,,717,19,female,left_right_width,2024-10-24_15h50.43.242,exp1,2023.1.0,60.000420013123176,
,,,,,,,,,,,,,,,,5,8.2,9.1,10,10.9,11.8,0.9,0.35,0.55,4.15,10,initial,36.05,296,328,361,393,425,9,9,9,9,9,,,,,,,0,0,0,0,0,18,18,50,,,,,,,,,,,,num_6,1.3454651000211015,num_6,0.25,0.5,0.44999999999999996,1.0,16.58923,36.86496,return,6.822673499991652,,,,,,,,,,,,,,,,,717,19,female,left_right_width,2024-10-24_15h50.43.242,exp1,2023.1.0,60.000420013123176,
,,,,,,,,,,,,,,,,3,9.1,10,10.9,0,0,0.9,0.35,0.55,2.35,10,initial,36.05,328,361,393,0,0,9,9,9,0,0,,,,,,,0,0,0,0,0,19,19,32,,,,,,,,,,,,num_3,1.3342157999868505,num_3,0.5,1.3,0.5,1.3,18.43248,47.92445,return,1.5993072999990545,,,,,,,,,,,,,,,,,717,19,female,left_right_width,2024-10-24_15h50.43.242,exp1,2023.1.0,60.000420013123176,
,,,,,,,,,,,,,,,,4,8.65,9.55,10.45,11.35,0,0.9,0.35,0.55,3.25,10,initial,36.05,312,344,377,409,0,9,9,9,9,0,,,,,,,0,0,0,0,0,20,20,42,,,,,,,,,,,,num_4,1.014884899952449,num_4,0.25,0.6,0.35,1.0,12.90274,36.86496,return,3.450512900017202,,,,,,,,,,,,,,,,,717,19,female,left_right_width,2024-10-24_15h50.43.242,exp1,2023.1.0,60.000420013123176,
,,,,,,,,,,,,,,,,4,8.65,9.55,10.45,11.35,0,0.9,0.35,0.55,3.25,10,initial,36.05,312,344,377,409,0,9,9,9,9,0,,,,,,,0,0,0,0,0,21,21,38,,,,,,,,,,,,num_4,0.9507444999762811,num_4,0.35,1.1,0.5499999999999999,1.1,20.27573,40.55146,return,3.003571400011424,,,,,,,,,,,,,,,,,717,19,female,left_right_width,2024-10-24_15h50.43.242,exp1,2023.1.0,60.000420013123176,
,,,,,,,,,,,,,,,,3,9.1,10,10.9,0,0,0.9,0.35,0.55,2.35,10,initial,36.05,328,361,393,0,0,9,9,9,0,0,,,,,,,0,0,0,0,0,22,22,8,,,,,,,,,,,,num_3,1.3643398000276648,num_3,0.5,1.2,0.6000000000000001,1.3,22.11898,47.92445,return,3.3373696000198834,,,,,,,,,,,,,,,,,717,19,female,left_right_width,2024-10-24_15h50.43.242,exp1,2023.1.0,60.000420013123176,
,,,,,,,,,,,,,,,,3,9.1,10,10.9,0,0,0.9,0.35,0.55,2.35,10,initial,36.05,328,361,393,0,0,9,9,9,0,0,,,,,,,0,0,0,0,0,23,23,6,,,,,,,,,,,,num_3,1.3328214999637567,num_3,0.25,0.7,0.44999999999999996,1.05,16.58923,38.70821,return,5.117113799962681,,,,,,,,,,,,,,,,,717,19,female,left_right_width,2024-10-24_15h50.43.242,exp1,2023.1.0,60.000420013123176,
,,,,,,,,,,,,,,,,4,8.65,9.55,10.45,11.35,0,0.9,0.35,0.55,3.25,10,initial,36.05,312,344,377,409,0,9,9,9,9,0,,,,,,,0,0,0,0,0,24,24,41,,,,,,,,,,,,num_4,1.1707914000144228,num_4,0.25,0.9,0.5499999999999999,1.1,20.27573,40.55146,return,4.174913200025912,,,,,,,,,,,,,,,,,717,19,female,left_right_width,2024-10-24_15h50.43.242,exp1,2023.1.0,60.000420013123176,
,,,,,,,,,,,,,,,,4,8.65,9.55,10.45,11.35,0,0.9,0.35,0.55,3.25,10,initial,36.05,312,344,377,409,0,9,9,9,9,0,,,,,,,0,0,0,0,0,25,25,12,,,,,,,,,,,,num_4,1.3474016999825835,num_4,0.55,0.7,0.4,1.2,14.74598,44.23795,return,4.360163800010923,,,,,,,,,,,,,,,,,717,19,female,left_right_width,2024-10-24_15h50.43.242,exp1,2023.1.0,60.000420013123176,
,,,,,,,,,,,,,,,,3,9.1,10,10.9,0,0,0.9,0.35,0.55,2.35,10,initial,36.05,328,361,393,0,0,9,9,9,0,0,,,,,,,0,0,0,0,0,26,26,34,,,,,,,,,,,,num_3,1.0513592999777757,num_3,0.25,0.8,0.44999999999999996,1.0,16.58923,36.86496,return,4.880539200035855,,,,,,,,,,,,,,,,,717,19,female,left_right_width,2024-10-24_15h50.43.242,exp1,2023.1.0,60.000420013123176,
,,,,,,,,,,,,,,,,5,8.2,9.1,10,10.9,11.8,0.9,0.35,0.55,4.15,10,initial,36.05,296,328,361,393,425,9,9,9,9,9,,,,,,,0,0,0,0,0,27,27,46,,,,,,,,,,,,num_5,1.1080178000265732,num_5,0.3,1.1,0.5499999999999999,1.2,20.27573,44.23795,return,3.695201200025622,,,,,,,,,,,,,,,,,717,19,female,left_right_width,2024-10-24_15h50.43.242,exp1,2023.1.0,60.000420013123176,
,,,,,,,,,,,,,,,,5,8.2,9.1,10,10.9,11.8,0.9,0.35,0.55,4.15,10,initial,36.05,296,328,361,393,425,9,9,9,9,9,,,,,,,0,0,0,0,0,28,28,49,,,,,,,,,,,,num_6,1.1293453000253066,num_6,0.45,0.7,0.45,0.7,16.58923,25.80547,return,2.248159200011287,,,,,,,,,,,,,,,,,717,19,female,left_right_width,2024-10-24_15h50.43.242,exp1,2023.1.0,60.000420013123176,
,,,,,,,,,,,,,,,,5,8.2,9.1,10,10.9,11.8,0.9,0.35,0.55,4.15,10,initial,36.05,296,328,361,393,425,9,9,9,9,9,,,,,,,0,0,0,0,0,29,29,22,,,,,,,,,,,,num_6,4.5207513000350446,num_6,0.2,1.1,0.44999999999999996,1.1,16.58923,40.55146,return,2.9279830000014044,,,,,,,,,,,,,,,,,717,19,female,left_right_width,2024-10-24_15h50.43.242,exp1,2023.1.0,60.000420013123176,
,,,,,,,,,,,,,,,,4,8.65,9.55,10.45,11.35,0,0.9,0.35,0.55,3.25,10,initial,36.05,312,344,377,409,0,9,9,9,9,0,,,,,,,0,0,0,0,0,30,30,17,,,,,,,,,,,,num_4,2.415893900033552,num_4,0.35,0.5,0.35,1.1,12.90274,40.55146,return,3.8349362000008114,,,,,,,,,,,,,,,,,717,19,female,left_right_width,2024-10-24_15h50.43.242,exp1,2023.1.0,60.000420013123176,
,,,,,,,,,,,,,,,,4,8.65,9.55,10.45,11.35,0,0.9,0.35,0.55,3.25,10,initial,36.05,312,344,377,409,0,9,9,9,9,0,,,,,,,0,0,0,0,0,31,31,39,,,,,,,,,,,,num_3,1.4098301999620162,num_3,0.45,1,0.55,1.25,20.27573,46.0812,return,6.164068399986718,,,,,,,,,,,,,,,,,717,19,female,left_right_width,2024-10-24_15h50.43.242,exp1,2023.1.0,60.000420013123176,
,,,,,,,,,,,,,,,,4,8.65,9.55,10.45,11.35,0,0.9,0.35,0.55,3.25,10,initial,36.05,312,344,377,409,0,9,9,9,9,0,,,,,,,0,0,0,0,0,32,32,14,,,,,,,,,,,,num_4,1.228749500005506,num_4,0.25,0.4,0.44999999999999996,0.9,16.58923,33.17846,return,3.526515899982769,,,,,,,,,,,,,,,,,717,19,female,left_right_width,2024-10-24_15h50.43.242,exp1,2023.1.0,60.000420013123176,
,,,,,,,,,,,,,,,,5,8.2,9.1,10,10.9,11.8,0.9,0.35,0.55,4.15,10,initial,36.05,296,328,361,393,425,9,9,9,9,9,,,,,,,0,0,0,0,0,33,33,18,,,,,,,,,,,,num_5,1.082972499949392,num_5,0.2,0.9,0.44999999999999996,1.0,16.58923,36.86496,return,5.641197499993723,,,,,,,,,,,,,,,,,717,19,female,left_right_width,2024-10-24_15h50.43.242,exp1,2023.1.0,60.000420013123176,
,,,,,,,,,,,,,,,,5,8.2,9.1,10,10.9,11.8,0.9,0.35,0.55,4.15,10,initial,36.05,296,328,361,393,425,9,9,9,9,9,,,,,,,0,0,0,0,0,34,34,45,,,,,,,,,,,,num_5,1.2418096999754198,num_5,0.4,1.3,0.5,1.3,18.43248,47.92445,return,2.017807799973525,,,,,,,,,,,,,,,,,717,19,female,left_right_width,2024-10-24_15h50.43.242,exp1,2023.1.0,60.000420013123176,
,,,,,,,,,,,,,,,,5,8.2,9.1,10,10.9,11.8,0.9,0.35,0.55,4.15,10,initial,36.05,296,328,361,393,425,9,9,9,9,9,,,,,,,0,0,0,0,0,35,35,24,,,,,,,,,,,,num_5,0.9524423999828286,num_5,0.35,0.4,0.35,0.95,12.90274,35.02171,return,3.8726611000020057,,,,,,,,,,,,,,,,,717,19,female,left_right_width,2024-10-24_15h50.43.242,exp1,2023.1.0,60.000420013123176,
,,,,,,,,,,,,,,,,3,9.1,10,10.9,0,0,0.9,0.35,0.55,2.35,10,initial,36.05,328,361,393,0,0,9,9,9,0,0,,,,,,,0,0,0,0,0,36,36,0,,,,,,,,,,,,num_3,1.299566200003028,num_3,0.55,1.3,0.55,1.3,20.27573,47.92445,return,1.307276199979242,,,,,,,,,,,,,,,,,717,19,female,left_right_width,2024-10-24_15h50.43.242,exp1,2023.1.0,60.000420013123176,
,,,,,,,,,,,,,,,,3,9.1,10,10.9,0,0,0.9,0.35,0.55,2.35,10,initial,36.05,328,361,393,0,0,9,9,9,0,0,,,,,,,0,0,0,0,0,37,37,28,,,,,,,,,,,,num_2,1.3900523000047542,num_2,0.3,1.6,0.39999999999999997,0.8,14.74598,29.49197,return,7.349139099998865,,,,,,,,,,,,,,,,,717,19,female,left_right_width,2024-10-24_15h50.43.242,exp1,2023.1.0,60.000420013123176,
,,,,,,,,,,,,,,,,4,8.65,9.55,10.45,11.35,0,0.9,0.35,0.55,3.25,10,initial,36.05,312,344,377,409,0,9,9,9,9,0,,,,,,,0,0,0,0,0,38,38,37,,,,,,,,,,,,num_3,1.1695189999882132,num_3,0.2,1,0.49999999999999994,1.05,18.43248,38.70821,return,3.9677584000164643,,,,,,,,,,,,,,,,,717,19,female,left_right_width,2024-10-24_15h50.43.242,exp1,2023.1.0,60.000420013123176,
,,,,,,,,,,,,,,,,4,8.65,9.55,10.45,11.35,0,0.9,0.35,0.55,3.25,10,initial,36.05,312,344,377,409,0,9,9,9,9,0,,,,,,,0,0,0,0,0,39,39,11,,,,,,,,,,,,num_3,1.1894089000415988,num_3,0.25,0.3,0.49999999999999994,1.15,18.43248,42.3947,return,7.4412567999679595,,,,,,,,,,,,,,,,,717,19,female,left_right_width,2024-10-24_15h50.43.242,exp1,2023.1.0,60.000420013123176,
,,,,,,,,,,,,,,,,4,8.65,9.55,10.45,11.35,0,0.9,0.35,0.55,3.25,10,initial,36.05,312,344,377,409,0,9,9,9,9,0,,,,,,,0,0,0,0,0,40,40,40,,,,,,,,,,,,num_4,0.8613638999522664,num_4,0.55,1.0,0.55,1.0,20.27573,36.86496,return,1.13047319999896,,,,,,,,,,,,,,,,,717,19,female,left_right_width,2024-10-24_15h50.43.242,exp1,2023.1.0,60.000420013123176,
,,,,,,,,,,,,,,,,5,8.2,9.1,10,10.9,11.8,0.9,0.35,0.55,4.15,10,initial,36.05,296,328,361,393,425,9,9,9,9,9,,,,,,,0,0,0,0,0,41,41,19,,,,,,,,,,,,num_6,1.1267678000149317,num_6,0.35,0.5,0.35,1.1,12.90274,40.55146,return,3.431041300005745,,,,,,,,,,,,,,,,,717,19,female,left_right_width,2024-10-24_15h50.43.242,exp1,2023.1.0,60.000420013123176,
,,,,,,,,,,,,,,,,3,9.1,10,10.9,0,0,0.9,0.35,0.55,2.35,10,initial,36.05,328,361,393,0,0,9,9,9,0,0,,,,,,,0,0,0,0,0,42,42,2,,,,,,,,,,,,num_3,1.1101114000193775,num_3,0.25,1.3,0.5499999999999999,1.3,20.27573,47.92445,return,2.582725299987942,,,,,,,,,,,,,,,,,717,19,female,left_right_width,2024-10-24_15h50.43.242,exp1,2023.1.0,60.000420013123176,
,,,,,,,,,,,,,,,,3,9.1,10,10.9,0,0,0.9,0.35,0.55,2.35,10,initial,36.05,328,361,393,0,0,9,9,9,0,0,,,,,,,0,0,0,0,0,43,43,5,,,,,,,,,,,,num_3,0.9555362000246532,num_3,0.35,1,0.44999999999999996,1,16.58923,36.86496,return,1.8597141999634914,,,,,,,,,,,,,,,,,717,19,female,left_right_width,2024-10-24_15h50.43.242,exp1,2023.1.0,60.000420013123176,
,,,,,,,,,,,,,,,,3,9.1,10,10.9,0,0,0.9,0.35,0.55,2.35,10,initial,36.05,328,361,393,0,0,9,9,9,0,0,,,,,,,0,0,0,0,0,44,44,35,,,,,,,,,,,,num_3,1.036040100036189,num_3,0.4,1.3,0.5,1.15,18.43248,42.3947,return,3.4200725999544375,,,,,,,,,,,,,,,,,717,19,female,left_right_width,2024-10-24_15h50.43.242,exp1,2023.1.0,60.000420013123176,
,,,,,,,,,,,,,,,,4,8.65,9.55,10.45,11.35,0,0.9,0.35,0.55,3.25,10,initial,36.05,312,344,377,409,0,9,9,9,9,0,,,,,,,0,0,0,0,0,45,45,44,,,,,,,,,,,,num_4,1.0461340000038035,num_4,0.55,0.7,0.30000000000000004,0.8,11.05949,29.49197,return,7.547444799973164,,,,,,,,,,,,,,,,,717,19,female,left_right_width,2024-10-24_15h50.43.242,exp1,2023.1.0,60.000420013123176,
,,,,,,,,,,,,,,,,5,8.2,9.1,10,10.9,11.8,0.9,0.35,0.55,4.15,10,initial,36.05,296,328,361,393,425,9,9,9,9,9,,,,,,,0,0,0,0,0,46,46,25,,,,,,,,,,,,num_4,1.4464652999886312,num_4,0.35,0.8,0.44999999999999996,1.3,16.58923,47.92445,return,4.279937200015411,,,,,,,,,,,,,,,,,717,19,female,left_right_width,2024-10-24_15h50.43.242,exp1,2023.1.0,60.000420013123176,
,,,,,,,,,,,,,,,,4,8.65,9.55,10.45,11.35,0,0.9,0.35,0.55,3.25,10,initial,36.05,312,344,377,409,0,9,9,9,9,0,,,,,,,0,0,0,0,0,47,47,15,,,,,,,,,,,,num_3,2.73759010003414,num_3,0.55,1.1,0.55,1.1,20.27573,40.55146,return,1.022045599995181,,,,,,,,,,,,,,,,,717,19,female,left_right_width,2024-10-24_15h50.43.242,exp1,2023.1.0,60.000420013123176,
,,,,,,,,,,,,,,,,3,9.1,10,10.9,0,0,0.9,0.35,0.55,2.35,10,initial,36.05,328,361,393,0,0,9,9,9,0,0,,,,,,,0,0,0,0,0,48,48,7,,,,,,,,,,,,num_3,1.1312681999988854,num_3,0.45,0.9,0.45,0.9,16.58923,33.17846,return,1.064377400034573,,,,,,,,,,,,,,,,,717,19,female,left_right_width,2024-10-24_15h50.43.242,exp1,2023.1.0,60.000420013123176,
,,,,,,,,,,,,,,,,5,8.2,9.1,10,10.9,11.8,0.9,0.35,0.55,4.15,10,initial,36.05,296,328,361,393,425,9,9,9,9,9,,,,,,,0,0,0,0,0,49,49,52,,,,,,,,,,,,num_5,0.9697274999925867,num_5,0.2,0.7,0.39999999999999997,0.95,14.74598,35.02171,return,4.401064299978316,,,,,,,,,,,,,,,,,717,19,female,left_right_width,2024-10-24_15h50.43.242,exp1,2023.1.0,60.000420013123176,
,,,,,,,,,,,,,,,,5,8.2,9.1,10,10.9,11.8,0.9,0.35,0.55,4.15,10,initial,36.05,296,328,361,393,425,9,9,9,9,9,,,,,,,0,0,0,0,0,50,50,21,,,,,,,,,,,,num_5,1.0709600999834947,num_5,0.2,1.3,0.5499999999999999,1.15,20.27573,42.3947,return,5.259215500031132,,,,,,,,,,,,,,,,,717,19,female,left_right_width,2024-10-24_15h50.43.242,exp1,2023.1.0,60.000420013123176,
,,,,,,,,,,,,,,,,4,8.65,9.55,10.45,11.35,0,0.9,0.35,0.55,3.25,10,initial,36.05,312,344,377,409,0,9,9,9,9,0,,,,,,,0,0,0,0,0,51,51,9,,,,,,,,,,,,num_3,1.5329848999972455,num_3,0.25,0.8,0.39999999999999997,0.95,14.74598,35.02171,return,3.343435699993279,,,,,,,,,,,,,,,,,717,19,female,left_right_width,2024-10-24_15h50.43.242,exp1,2023.1.0,60.000420013123176,
,,,,,,,,,,,,,,,,3,9.1,10,10.9,0,0,0.9,0.35,0.55,2.35,10,initial,36.05,328,361,393,0,0,9,9,9,0,0,,,,,,,0,0,0,0,0,52,52,1,,,,,,,,,,,,num_3,1.181195699959062,num_3,0.4,0.7,0.45,0.95,16.58923,35.02171,return,3.8041178999701515,,,,,,,,,,,,,,,,,717,19,female,left_right_width,2024-10-24_15h50.43.242,exp1,2023.1.0,60.000420013123176,
,,,,,,,,,,,,,,,,3,9.1,10,10.9,0,0,0.9,0.35,0.55,2.35,10,initial,36.05,328,361,393,0,0,9,9,9,0,0,,,,,,,0,0,0,0,0,53,53,30,,,,,,,,,,,,num_3,0.9659705000231043,num_3,0.4,0.7,0.4,0.7,14.74598,25.80547,return,1.3531516999937594,,,,,,,,,,,,,,,,,717,19,female,left_right_width,2024-10-24_15h50.43.242,exp1,2023.1.0,60.000420013123176,
,,,,,,,,,,,,,,,,,,,,,,,,,,,,,,,,,,,,,,,,,,,,,0,0,0,0,,,,,,,,,,,,,,,,,,,,,,,,,,,,,810.62339230004,810.62339230004,810.62339230004,,,,,,,,,,,,717,19,female,left_right_width,2024-10-24_15h50.43.242,exp1,2023.1.0,60.000420013123176,
,,,,,,,,,,,,,,,,4,9.25,9.75,10.25,10.75,0,0.5,0.25,0.25,1.75,10,initial,36.05,333,351,370,388,0,9,9,9,9,0,,,,,,,1,0,1,0,0,0,0,42,,,,,,,,,,,,num_4,1.5261217000079341,num_4,0.45,1.1,0.20000000000000007,1.1,7.37299,40.55146,return,3.8921638000174426,,,,,,,,,,,,,,,,,717,19,female,left_right_width,2024-10-24_15h50.43.242,exp1,2023.1.0,60.000420013123176,
,,,,,,,,,,,,,,,,5,9,9.5,10,10.5,11,0.5,0.25,0.25,2.25,10,initial,36.05,324,342,361,379,397,9,9,9,9,9,,,,,,,1,0,1,0,0,1,1,50,,,,,,,,,,,,num_4,1.577169900003355,num_4,0.55,1.0,0.20000000000000007,0.7,7.37299,25.80547,return,5.826933900010772,,,,,,,,,,,,,,,,,717,19,female,left_right_width,2024-10-24_15h50.43.242,exp1,2023.1.0,60.000420013123176,
,,,,,,,,,,,,,,,,3,9.5,10,10.5,0,0,0.5,0.25,0.25,1.25,10,initial,36.05,342,361,379,0,0,9,9,9,0,0,,,,,,,1,0,1,0,0,2,2,29,,,,,,,,,,,,num_3,1.351937800005544,num_3,0.25,0.5,0.25,0.5,9.21624,18.43248,return,1.181293600006029,,,,,,,,,,,,,,,,,717,19,female,left_right_width,2024-10-24_15h50.43.242,exp1,2023.1.0,60.000420013123176,
,,,,,,,,,,,,,,,,5,9,9.5,10,10.5,11,0.5,0.25,0.25,2.25,10,initial,36.05,324,342,361,379,397,9,9,9,9,9,,,,,,,1,0,1,0,0,3,3,52,,,,,,,,,,,,num_5,1.141549699997995,num_5,0.5,1.0,0.20000000000000007,0.75,7.37299,27.64872,return,5.248220300010871,,,,,,,,,,,,,,,,,717,19,female,left_right_width,2024-10-24_15h50.43.242,exp1,2023.1.0,60.000420013123176,
,,,,,,,,,,,,,,,,3,9.5,10,10.5,0,0,0.5,0.25,0.25,1.25,10,initial,36.05,342,361,379,0,0,9,9,9,0,0,,,,,,,1,0,1,0,0,4,4,34,,,,,,,,,,,,num_3,1.1894230999751016,num_3,0.4,0.8,0.25000000000000006,0.85,9.21624,31.33522,return,4.019871499971487,,,,,,,,,,,,,,,,,717,19,female,left_right_width,2024-10-24_15h50.43.242,exp1,2023.1.0,60.000420013123176,
,,,,,,,,,,,,,,,,5,9,9.5,10,10.5,11,0.5,0.25,0.25,2.25,10,initial,36.05,324,342,361,379,397,9,9,9,9,9,,,,,,,1,0,1,0,0,5,5,23,,,,,,,,,,,,num_4,1.2018421000102535,num_4,0.35,0.6,0.25,0.9,9.21624,33.17846,return,4.605157500016503,,,,,,,,,,,,,,,,,717,19,female,left_right_width,2024-10-24_15h50.43.242,exp1,2023.1.0,60.000420013123176,
,,,,,,,,,,,,,,,,5,9,9.5,10,10.5,11,0.5,0.25,0.25,2.25,10,initial,36.05,324,342,361,379,397,9,9,9,9,9,,,,,,,1,0,1,0,0,6,6,26,,,,,,,,,,,,num_5,0.9429717999882996,num_5,0.45,1.1,0.20000000000000007,0.8,7.37299,29.49197,return,4.067478800017852,,,,,,,,,,,,,,,,,717,19,female,left_right_width,2024-10-24_15h50.43.242,exp1,2023.1.0,60.000420013123176,
,,,,,,,,,,,,,,,,5,9,9.5,10,10.5,11,0.5,0.25,0.25,2.25,10,initial,36.05,324,342,361,379,397,9,9,9,9,9,,,,,,,1,0,1,0,0,7,7,47,,,,,,,,,,,,num_4,1.3017908000038005,num_4,0.5,0.6,0.25000000000000006,0.9,9.21624,33.17846,return,3.473124200012535,,,,,,,,,,,,,,,,,717,19,female,left_right_width,2024-10-24_15h50.43.242,exp1,2023.1.0,60.000420013123176,
,,,,,,,,,,,,,,,,5,9,9.5,10,10.5,11,0.5,0.25,0.25,2.25,10,initial,36.05,324,342,361,379,397,9,9,9,9,9,,,,,,,1,0,1,0,0,8,8,24,,,,,,,,,,,,num_5,0.9152900999761187,num_5,0.5,0.6,0.25000000000000006,0.75,9.21624,27.64872,return,3.6395489999558777,,,,,,,,,,,,,,,,,717,19,female,left_right_width,2024-10-24_15h50.43.242,exp1,2023.1.0,60.000420013123176,
,,,,,,,,,,,,,,,,4,9.25,9.75,10.25,10.75,0,0.5,0.25,0.25,1.75,10,initial,36.05,333,351,370,388,0,9,9,9,9,0,,,,,,,1,0,1,0,0,9,9,9,,,,,,,,,,,,num_4,0.8954159999848343,num_4,0.55,1.3,0.30000000000000004,0.7,11.05949,25.80547,return,4.74220979999518,,,,,,,,,,,,,,,,,717,19,female,left_right_width,2024-10-24_15h50.43.242,exp1,2023.1.0,60.000420013123176,
,,,,,,,,,,,,,,,,4,9.25,9.75,10.25,10.75,0,0.5,0.25,0.25,1.75,10,initial,36.05,333,351,370,388,0,9,9,9,9,0,,,,,,,1,0,1,0,0,10,10,38,,,,,,,,,,,,num_4,0.8795754999737255,num_4,0.25,0.9,0.35,0.7,12.90274,25.80547,return,3.3514159999904223,,,,,,,,,,,,,,,,,717,19,female,left_right_width,2024-10-24_15h50.43.242,exp1,2023.1.0,60.000420013123176,
,,,,,,,,,,,,,,,,5,9,9.5,10,10.5,11,0.5,0.25,0.25,2.25,10,initial,36.05,324,342,361,379,397,9,9,9,9,9,,,,,,,1,0,1,0,0,11,11,46,,,,,,,,,,,,num_4,2.034034700016491,num_4,0.45,0.9,0.25000000000000006,0.7,9.21624,25.80547,return,4.25257250003051,,,,,,,,,,,,,,,,,717,19,female,left_right_width,2024-10-24_15h50.43.242,exp1,2023.1.0,60.000420013123176,
,,,,,,,,,,,,,,,,4,9.25,9.75,10.25,10.75,0,0.5,0.25,0.25,1.75,10,initial,36.05,333,351,370,388,0,9,9,9,9,0,,,,,,,1,0,1,0,0,12,12,12,,,,,,,,,,,,num_4,1.1017590000410564,num_4,0.4,0.8,0.30000000000000004,0.7,11.05949,25.80547,return,12.877627100038808,,,,,,,,,,,,,,,,,717,19,female,left_right_width,2024-10-24_15h50.43.242,exp1,2023.1.0,60.000420013123176,
,,,,,,,,,,,,,,,,4,9.25,9.75,10.25,10.75,0,0.5,0.25,0.25,1.75,10,initial,36.05,333,351,370,388,0,9,9,9,9,0,,,,,,,1,0,1,0,0,13,13,15,,,,,,,,,,,,num_4,1.2746901999926195,num_4,0.45,0.6,0.20000000000000007,0.6,7.37299,22.11898,return,2.738887200015597,,,,,,,,,,,,,,,,,717,19,female,left_right_width,2024-10-24_15h50.43.242,exp1,2023.1.0,60.000420013123176,
,,,,,,,,,,,,,,,,4,9.25,9.75,10.25,10.75,0,0.5,0.25,0.25,1.75,10,initial,36.05,333,351,370,388,0,9,9,9,9,0,,,,,,,1,0,1,0,0,14,14,44,,,,,,,,,,,,num_4,1.0780392999877222,num_4,0.2,0.3,0.25,0.7,9.21624,25.80547,return,3.271771799947601,,,,,,,,,,,,,,,,,717,19,female,left_right_width,2024-10-24_15h50.43.242,exp1,2023.1.0,60.000420013123176,
,,,,,,,,,,,,,,,,5,9,9.5,10,10.5,11,0.5,0.25,0.25,2.25,10,initial,36.05,324,342,361,379,397,9,9,9,9,9,,,,,,,1,0,1,0,0,15,15,45,,,,,,,,,,,,num_5,0.8584910999634303,num_5,0.3,0.4,0.3,0.85,11.05949,31.33522,return,2.8845056000282057,,,,,,,,,,,,,,,,,717,19,female,left_right_width,2024-10-24_15h50.43.242,exp1,2023.1.0,60.000420013123176,
,,,,,,,,,,,,,,,,5,9,9.5,10,10.5,11,0.5,0.25,0.25,2.25,10,initial,36.05,324,342,361,379,397,9,9,9,9,9,,,,,,,1,0,1,0,0,16,16,18,,,,,,,,,,,,num_5,0.9770897999987938,num_5,0.5,0.6,0.20000000000000007,0.75,7.37299,27.64872,return,6.453492000000551,,,,,,,,,,,,,,,,,717,19,female,left_right_width,2024-10-24_15h50.43.242,exp1,2023.1.0,60.000420013123176,
,,,,,,,,,,,,,,,,3,9.5,10,10.5,0,0,0.5,0.25,0.25,1.25,10,initial,36.05,342,361,379,0,0,9,9,9,0,0,,,,,,,1,0,1,0,0,17,17,30,,,,,,,,,,,,num_3,1.9398838999914005,num_3,0.2,1.1,0.3,0.85,11.05949,31.33522,return,5.10602479998488,,,,,,,,,,,,,,,,,717,19,female,left_right_width,2024-10-24_15h50.43.242,exp1,2023.1.0,60.000420013123176,
,,,,,,,,,,,,,,,,3,9.5,10,10.5,0,0,0.5,0.25,0.25,1.25,10,initial,36.05,342,361,379,0,0,9,9,9,0,0,,,,,,,1,0,1,0,0,18,18,4,,,,,,,,,,,,num_3,1.7297727999975905,num_3,0.3,1,0.2,0.55,7.37299,20.27573,return,6.344392200000584,,,,,,,,,,,,,,,,,717,19,female,left_right_width,2024-10-24_15h50.43.242,exp1,2023.1.0,60.000420013123176,
,,,,,,,,,,,,,,,,4,9.25,9.75,10.25,10.75,0,0.5,0.25,0.25,1.75,10,initial,36.05,333,351,370,388,0,9,9,9,9,0,,,,,,,1,0,1,0,0,19,19,39,,,,,,,,,,,,num_4,1.1180401000310667,num_4,0.2,0.5,0.3,0.9,11.05949,33.17846,return,3.5345049999887124,,,,,,,,,,,,,,,,,717,19,female,left_right_width,2024-10-24_15h50.43.242,exp1,2023.1.0,60.000420013123176,
,,,,,,,,,,,,,,,,5,9,9.5,10,10.5,11,0.5,0.25,0.25,2.25,10,initial,36.05,324,342,361,379,397,9,9,9,9,9,,,,,,,1,0,1,0,0,20,20,20,,,,,,,,,,,,num_5,0.9243114999844693,num_5,0.45,1.0,0.25000000000000006,0.75,9.21624,27.64872,return,4.4326005000039,,,,,,,,,,,,,,,,,717,19,female,left_right_width,2024-10-24_15h50.43.242,exp1,2023.1.0,60.000420013123176,
,,,,,,,,,,,,,,,,3,9.5,10,10.5,0,0,0.5,0.25,0.25,1.25,10,initial,36.05,342,361,379,0,0,9,9,9,0,0,,,,,,,1,0,1,0,0,21,21,28,,,,,,,,,,,,num_2,1.4539535999647342,num_2,0.4,0.6,0.20000000000000007,0.4,7.37299,14.74598,return,12.591177299967967,,,,,,,,,,,,,,,,,717,19,female,left_right_width,2024-10-24_15h50.43.242,exp1,2023.1.0,60.000420013123176,
,,,,,,,,,,,,,,,,5,9,9.5,10,10.5,11,0.5,0.25,0.25,2.25,10,initial,36.05,324,342,361,379,397,9,9,9,9,9,,,,,,,1,0,1,0,0,22,22,48,,,,,,,,,,,,num_5,0.9995445999666117,num_5,0.45,1.3,0.25000000000000006,0.55,9.21624,20.27573,return,8.782678999996278,,,,,,,,,,,,,,,,,717,19,female,left_right_width,2024-10-24_15h50.43.242,exp1,2023.1.0,60.000420013123176,
,,,,,,,,,,,,,,,,3,9.5,10,10.5,0,0,0.5,0.25,0.25,1.25,10,initial,36.05,342,361,379,0,0,9,9,9,0,0,,,,,,,1,0,1,0,0,23,23,32,,,,,,,,,,,,num_3,1.0640071000088938,num_3,0.5,0.7,0.25000000000000006,0.5,9.21624,18.43248,return,6.314406400022563,,,,,,,,,,,,,,,,,717,19,female,left_right_width,2024-10-24_15h50.43.242,exp1,2023.1.0,60.000420013123176,
,,,,,,,,,,,,,,,,5,9,9.5,10,10.5,11,0.5,0.25,0.25,2.25,10,initial,36.05,324,342,361,379,397,9,9,9,9,9,,,,,,,1,0,1,0,0,24,24,22,,,,,,,,,,,,num_5,0.9425109999720007,num_5,0.5,0.9,0.25000000000000006,0.65,9.21624,23.96222,return,4.039188100025058,,,,,,,,,,,,,,,,,717,19,female,left_right_width,2024-10-24_15h50.43.242,exp1,2023.1.0,60.000420013123176,
,,,,,,,,,,,,,,,,3,9.5,10,10.5,0,0,0.5,0.25,0.25,1.25,10,initial,36.05,342,361,379,0,0,9,9,9,0,0,,,,,,,1,0,1,0,0,25,25,5,,,,,,,,,,,,num_3,0.9344884000020102,num_3,0.5,1,0.30000000000000004,0.65,11.05949,23.96222,return,3.6639314999920316,,,,,,,,,,,,,,,,,717,19,female,left_right_width,2024-10-24_15h50.43.242,exp1,2023.1.0,60.000420013123176,
,,,,,,,,,,,,,,,,4,9.25,9.75,10.25,10.75,0,0.5,0.25,0.25,1.75,10,initial,36.05,333,351,370,388,0,9,9,9,9,0,,,,,,,1,0,1,0,0,26,26,43,,,,,,,,,,,,num_4,0.8630371000035666,num_4,0.3,0.8,0.3,0.6,11.05949,22.11898,return,4.1207624999806285,,,,,,,,,,,,,,,,,717,19,female,left_right_width,2024-10-24_15h50.43.242,exp1,2023.1.0,60.000420013123176,
,,,,,,,,,,,,,,,,3,9.5,10,10.5,0,0,0.5,0.25,0.25,1.25,10,initial,36.05,342,361,379,0,0,9,9,9,0,0,,,,,,,1,0,1,0,0,27,27,3,,,,,,,,,,,,num_3,1.060060199990403,num_3,0.35,0.7,0.2,0.55,7.37299,20.27573,return,3.8465974999708124,,,,,,,,,,,,,,,,,717,19,female,left_right_width,2024-10-24_15h50.43.242,exp1,2023.1.0,60.000420013123176,
,,,,,,,,,,,,,,,,3,9.5,10,10.5,0,0,0.5,0.25,0.25,1.25,10,initial,36.05,342,361,379,0,0,9,9,9,0,0,,,,,,,1,0,1,0,0,28,28,31,,,,,,,,,,,,num_3,1.082644000009168,num_3,0.4,0.8,0.20000000000000007,0.45,7.37299,16.58923,return,4.351170900044963,,,,,,,,,,,,,,,,,717,19,female,left_right_width,2024-10-24_15h50.43.242,exp1,2023.1.0,60.000420013123176,
,,,,,,,,,,,,,,,,3,9.5,10,10.5,0,0,0.5,0.25,0.25,1.25,10,initial,36.05,342,361,379,0,0,9,9,9,0,0,,,,,,,1,0,1,0,0,29,29,8,,,,,,,,,,,,num_3,1.00591699994402,num_3,0.4,1.1,0.25000000000000006,0.5,9.21624,18.43248,return,6.676870599971153,,,,,,,,,,,,,,,,,717,19,female,left_right_width,2024-10-24_15h50.43.242,exp1,2023.1.0,60.000420013123176,
,,,,,,,,,,,,,,,,4,9.25,9.75,10.25,10.75,0,0.5,0.25,0.25,1.75,10,initial,36.05,333,351,370,388,0,9,9,9,9,0,,,,,,,1,0,1,0,0,30,30,14,,,,,,,,,,,,num_3,1.6825858000083826,num_3,0.25,0.9,0.3,0.7,11.05949,25.80547,return,4.830288099998143,,,,,,,,,,,,,,,,,717,19,female,left_right_width,2024-10-24_15h50.43.242,exp1,2023.1.0,60.000420013123176,
,,,,,,,,,,,,,,,,3,9.5,10,10.5,0,0,0.5,0.25,0.25,1.25,10,initial,36.05,342,361,379,0,0,9,9,9,0,0,,,,,,,1,0,1,0,0,31,31,6,,,,,,,,,,,,num_3,1.5579663999960758,num_3,0.25,0.3,0.25,0.5,9.21624,18.43248,return,3.058223900035955,,,,,,,,,,,,,,,,,717,19,female,left_right_width,2024-10-24_15h50.43.242,exp1,2023.1.0,60.000420013123176,
,,,,,,,,,,,,,,,,3,9.5,10,10.5,0,0,0.5,0.25,0.25,1.25,10,initial,36.05,342,361,379,0,0,9,9,9,0,0,,,,,,,1,0,1,0,0,32,32,33,,,,,,,,,,,,num_3,0.9682733999798074,num_3,0.5,1,0.30000000000000004,0.55,11.05949,20.27573,return,4.064148599980399,,,,,,,,,,,,,,,,,717,19,female,left_right_width,2024-10-24_15h50.43.242,exp1,2023.1.0,60.000420013123176,
,,,,,,,,,,,,,,,,4,9.25,9.75,10.25,10.75,0,0.5,0.25,0.25,1.75,10,initial,36.05,333,351,370,388,0,9,9,9,9,0,,,,,,,1,0,1,0,0,33,33,17,,,,,,,,,,,,num_4,1.0561627999995835,num_4,0.45,1.3,0.20000000000000007,0.5,7.37299,18.43248,return,4.40460389998043,,,,,,,,,,,,,,,,,717,19,female,left_right_width,2024-10-24_15h50.43.242,exp1,2023.1.0,60.000420013123176,
,,,,,,,,,,,,,,,,5,9,9.5,10,10.5,11,0.5,0.25,0.25,2.25,10,initial,36.05,324,342,361,379,397,9,9,9,9,9,,,,,,,1,0,1,0,0,34,34,49,,,,,,,,,,,,num_5,0.9293079999624752,num_5,0.25,0.3,0.25,0.65,9.21624,23.96222,return,2.7478468000190333,,,,,,,,,,,,,,,,,717,19,female,left_right_width,2024-10-24_15h50.43.242,exp1,2023.1.0,60.000420013123176,
,,,,,,,,,,,,,,,,5,9,9.5,10,10.5,11,0.5,0.25,0.25,2.25,10,initial,36.05,324,342,361,379,397,9,9,9,9,9,,,,,,,1,0,1,0,0,35,35,19,,,,,,,,,,,,num_5,1.204548999958206,num_5,0.4,1.3,0.20000000000000007,0.5,7.37299,18.43248,return,6.366748399974313,,,,,,,,,,,,,,,,,717,19,female,left_right_width,2024-10-24_15h50.43.242,exp1,2023.1.0,60.000420013123176,
,,,,,,,,,,,,,,,,5,9,9.5,10,10.5,11,0.5,0.25,0.25,2.25,10,initial,36.05,324,342,361,379,397,9,9,9,9,9,,,,,,,1,0,1,0,0,36,36,25,,,,,,,,,,,,num_5,0.9385496999602765,num_5,0.3,0.7,0.15000000000000002,0.6,5.52974,22.11898,return,4.108901400002651,,,,,,,,,,,,,,,,,717,19,female,left_right_width,2024-10-24_15h50.43.242,exp1,2023.1.0,60.000420013123176,
,,,,,,,,,,,,,,,,3,9.5,10,10.5,0,0,0.5,0.25,0.25,1.25,10,initial,36.05,342,361,379,0,0,9,9,9,0,0,,,,,,,1,0,1,0,0,37,37,27,,,,,,,,,,,,num_3,1.0407397000235505,num_3,0.3,0.7,0.25,0.6,9.21624,22.11898,return,3.2012041000416502,,,,,,,,,,,,,,,,,717,19,female,left_right_width,2024-10-24_15h50.43.242,exp1,2023.1.0,60.000420013123176,
,,,,,,,,,,,,,,,,4,9.25,9.75,10.25,10.75,0,0.5,0.25,0.25,1.75,10,initial,36.05,333,351,370,388,0,9,9,9,9,0,,,,,,,1,0,1,0,0,38,38,11,,,,,,,,,,,,num_3,1.091272099991329,num_3,0.55,1.3,0.25000000000000006,0.6,9.21624,22.11898,return,4.944055699976161,,,,,,,,,,,,,,,,,717,19,female,left_right_width,2024-10-24_15h50.43.242,exp1,2023.1.0,60.000420013123176,
,,,,,,,,,,,,,,,,4,9.25,9.75,10.25,10.75,0,0.5,0.25,0.25,1.75,10,initial,36.05,333,351,370,388,0,9,9,9,9,0,,,,,,,1,0,1,0,0,39,39,10,,,,,,,,,,,,num_4,1.0007437000167556,num_4,0.3,0.3,0.25,0.5,9.21624,18.43248,return,16.01322749996325,,,,,,,,,,,,,,,,,717,19,female,left_right_width,2024-10-24_15h50.43.242,exp1,2023.1.0,60.000420013123176,
,,,,,,,,,,,,,,,,3,9.5,10,10.5,0,0,0.5,0.25,0.25,1.25,10,initial,36.05,342,361,379,0,0,9,9,9,0,0,,,,,,,1,0,1,0,0,40,40,35,,,,,,,,,,,,num_2,0.9687946999911219,num_2,0.3,0.4,0.35,0.8,12.90274,29.49197,return,3.616570399957709,,,,,,,,,,,,,,,,,717,19,female,left_right_width,2024-10-24_15h50.43.242,exp1,2023.1.0,60.000420013123176,
,,,,,,,,,,,,,,,,4,9.25,9.75,10.25,10.75,0,0.5,0.25,0.25,1.75,10,initial,36.05,333,351,370,388,0,9,9,9,9,0,,,,,,,1,0,1,0,0,41,41,13,,,,,,,,,,,,num_3,0.9539038999937475,num_3,0.35,0.7,0.2,0.45,7.37299,16.58923,return,4.031246100028511,,,,,,,,,,,,,,,,,717,19,female,left_right_width,2024-10-24_15h50.43.242,exp1,2023.1.0,60.000420013123176,
,,,,,,,,,,,,,,,,5,9,9.5,10,10.5,11,0.5,0.25,0.25,2.25,10,initial,36.05,324,342,361,379,397,9,9,9,9,9,,,,,,,1,0,1,0,0,42,42,21,,,,,,,,,,,,num_6,0.9424597999895923,num_6,0.4,1.2,0.20000000000000007,0.6,7.37299,22.11898,return,10.404264400014654,,,,,,,,,,,,,,,,,717,19,female,left_right_width,2024-10-24_15h50.43.242,exp1,2023.1.0,60.000420013123176,
,,,,,,,,,,,,,,,,3,9.5,10,10.5,0,0,0.5,0.25,0.25,1.25,10,initial,36.05,342,361,379,0,0,9,9,9,0,0,,,,,,,1,0,1,0,0,43,43,0,,,,,,,,,,,,num_3,0.974768000014592,num_3,0.5,1.3,0.25000000000000006,0.55,9.21624,20.27573,return,5.97181910002837,,,,,,,,,,,,,,,,,717,19,female,left_right_width,2024-10-24_15h50.43.242,exp1,2023.1.0,60.000420013123176,
,,,,,,,,,,,,,,,,3,9.5,10,10.5,0,0,0.5,0.25,0.25,1.25,10,initial,36.05,342,361,379,0,0,9,9,9,0,0,,,,,,,1,0,1,0,0,44,44,7,,,,,,,,,,,,num_3,1.1080736000440083,num_3,0.35,1.3,0.25,0.6,9.21624,22.11898,return,8.403639400028624,,,,,,,,,,,,,,,,,717,19,female,left_right_width,2024-10-24_15h50.43.242,exp1,2023.1.0,60.000420013123176,
,,,,,,,,,,,,,,,,5,9,9.5,10,10.5,11,0.5,0.25,0.25,2.25,10,initial,36.05,324,342,361,379,397,9,9,9,9,9,,,,,,,1,0,1,0,0,45,45,51,,,,,,,,,,,,num_5,0.8874000000068918,num_5,0.35,0.7,0.2,0.7,7.37299,25.80547,return,2.9939029999659397,,,,,,,,,,,,,,,,,717,19,female,left_right_width,2024-10-24_15h50.43.242,exp1,2023.1.0,60.000420013123176,
,,,,,,,,,,,,,,,,5,9,9.5,10,10.5,11,0.5,0.25,0.25,2.25,10,initial,36.05,324,342,361,379,397,9,9,9,9,9,,,,,,,1,0,1,0,0,46,46,53,,,,,,,,,,,,num_5,1.4362374999909662,num_5,0.45,0.7,0.20000000000000007,0.7,7.37299,25.80547,return,5.789903800003231,,,,,,,,,,,,,,,,,717,19,female,left_right_width,2024-10-24_15h50.43.242,exp1,2023.1.0,60.000420013123176,
,,,,,,,,,,,,,,,,4,9.25,9.75,10.25,10.75,0,0.5,0.25,0.25,1.75,10,initial,36.05,333,351,370,388,0,9,9,9,9,0,,,,,,,1,0,1,0,0,47,47,37,,,,,,,,,,,,num_5,1.066056000010576,num_5,0.35,0.5,0.15000000000000002,0.5,5.52974,18.43248,return,3.663707899977453,,,,,,,,,,,,,,,,,717,19,female,left_right_width,2024-10-24_15h50.43.242,exp1,2023.1.0,60.000420013123176,
,,,,,,,,,,,,,,,,4,9.25,9.75,10.25,10.75,0,0.5,0.25,0.25,1.75,10,initial,36.05,333,351,370,388,0,9,9,9,9,0,,,,,,,1,0,1,0,0,48,48,36,,,,,,,,,,,,num_4,0.9126020999974571,num_4,0.3,0.4,0.15000000000000002,0.6,5.52974,22.11898,return,3.0642165999743156,,,,,,,,,,,,,,,,,717,19,female,left_right_width,2024-10-24_15h50.43.242,exp1,2023.1.0,60.000420013123176,
,,,,,,,,,,,,,,,,3,9.5,10,10.5,0,0,0.5,0.25,0.25,1.25,10,initial,36.05,342,361,379,0,0,9,9,9,0,0,,,,,,,1,0,1,0,0,49,49,1,,,,,,,,,,,,num_3,1.5012215000460856,num_3,0.3,0.4,0.3,0.75,11.05949,27.64872,return,2.621123199991416,,,,,,,,,,,,,,,,,717,19,female,left_right_width,2024-10-24_15h50.43.242,exp1,2023.1.0,60.000420013123176,
,,,,,,,,,,,,,,,,4,9.25,9.75,10.25,10.75,0,0.5,0.25,0.25,1.75,10,initial,36.05,333,351,370,388,0,9,9,9,9,0,,,,,,,1,0,1,0,0,50,50,16,,,,,,,,,,,,num_4,0.8308280999772251,num_4,0.2,1.2,0.25,0.7,9.21624,25.80547,return,6.235779499984346,,,,,,,,,,,,,,,,,717,19,female,left_right_width,2024-10-24_15h50.43.242,exp1,2023.1.0,60.000420013123176,
,,,,,,,,,,,,,,,,3,9.5,10,10.5,0,0,0.5,0.25,0.25,1.25,10,initial,36.05,342,361,379,0,0,9,9,9,0,0,,,,,,,1,0,1,0,0,51,51,2,,,,,,,,,,,,num_3,1.6425930999685079,num_3,0.45,1.3,0.25000000000000006,0.6,9.21624,22.11898,return,7.778777399973478,,,,,,,,,,,,,,,,,717,19,female,left_right_width,2024-10-24_15h50.43.242,exp1,2023.1.0,60.000420013123176,
,,,,,,,,,,,,,,,,4,9.25,9.75,10.25,10.75,0,0.5,0.25,0.25,1.75,10,initial,36.05,333,351,370,388,0,9,9,9,9,0,,,,,,,1,0,1,0,0,52,52,40,,,,,,,,,,,,num_3,1.8894485000055283,num_3,0.3,0.6,0.3,0.6,11.05949,22.11898,return,1.4889899999834597,,,,,,,,,,,,,,,,,717,19,female,left_right_width,2024-10-24_15h50.43.242,exp1,2023.1.0,60.000420013123176,
,,,,,,,,,,,,,,,,4,9.25,9.75,10.25,10.75,0,0.5,0.25,0.25,1.75,10,initial,36.05,333,351,370,388,0,9,9,9,9,0,,,,,,,1,0,1,0,0,53,53,41,,,,,,,,,,,,num_4,1.1310814999742433,num_4,0.3,0.5,0.2,0.6,7.37299,22.11898,return,5.432448200008366,,,,,,,,,,,,,,,,,717,19,female,left_right_width,2024-10-24_15h50.43.242,exp1,2023.1.0,60.000420013123176,
,,,,,,,,,,,,,,,,,,,,,,,,,,,,,,,,,,,,,,,,,,,,,1,0,1,0,,,,,,,,,,,,,,,,,,,,,,,,,,,,,1273.1390965000028,1273.1390965000028,1273.1390965000028,,,,,,,,,,,,717,19,female,left_right_width,2024-10-24_15h50.43.242,exp1,2023.1.0,60.000420013123176,
,,,,,,,,,,,,,,,,5,9,9.5,10,10.5,11,0.5,0.1,0.4,2.4,10,initial,36.05,324,342,361,379,397,9,9,9,9,9,,,,,,,2,0,2,0,0,0,0,48,,,,,,,,,,,,num_4,1.7927980999811552,num_4,0.3,0.8,0.49999999999999994,0.8,18.43248,29.49197,return,2.7098442999995314,,,,,,,,,,,,,,,,,717,19,female,left_right_width,2024-10-24_15h50.43.242,exp1,2023.1.0,60.000420013123176,
,,,,,,,,,,,,,,,,4,9.25,9.75,10.25,10.75,0,0.5,0.1,0.4,1.9000000000000001,10,initial,36.05,333,351,370,388,0,9,9,9,9,0,,,,,,,2,0,2,0,0,1,1,11,,,,,,,,,,,,num_4,1.0490240999497473,num_4,0.55,1.0,0.35000000000000003,0.7,12.90274,25.80547,return,4.744792599987704,,,,,,,,,,,,,,,,,717,19,female,left_right_width,2024-10-24_15h50.43.242,exp1,2023.1.0,60.000420013123176,
,,,,,,,,,,,,,,,,3,9.5,10,10.5,0,0,0.5,0.1,0.4,1.4000000000000001,10,initial,36.05,342,361,379,0,0,9,9,9,0,0,,,,,,,2,0,2,0,0,2,2,2,,,,,,,,,,,,num_3,1.6362365000532009,num_3,0.35,0.5,0.35,0.5,12.90274,18.43248,return,1.6463193999952637,,,,,,,,,,,,,,,,,717,19,female,left_right_width,2024-10-24_15h50.43.242,exp1,2023.1.0,60.000420013123176,
,,,,,,,,,,,,,,,,4,9.25,9.75,10.25,10.75,0,0.5,0.1,0.4,1.9000000000000001,10,initial,36.05,333,351,370,388,0,9,9,9,9,0,,,,,,,2,0,2,0,0,3,3,43,,,,,,,,,,,,num_4,0.9893981000059284,num_4,0.45,1.3,0.4,0.6,14.74598,22.11898,return,4.769369399989955,,,,,,,,,,,,,,,,,717,19,female,left_right_width,2024-10-24_15h50.43.242,exp1,2023.1.0,60.000420013123176,
,,,,,,,,,,,,,,,,3,9.5,10,10.5,0,0,0.5,0.1,0.4,1.4000000000000001,10,initial,36.05,342,361,379,0,0,9,9,9,0,0,,,,,,,2,0,2,0,0,4,4,31,,,,,,,,,,,,num_3,1.3355181000079028,num_3,0.5,1.2,0.4,0.65,14.74598,23.96222,return,3.953542900038883,,,,,,,,,,,,,,,,,717,19,female,left_right_width,2024-10-24_15h50.43.242,exp1,2023.1.0,60.000420013123176,
,,,,,,,,,,,,,,,,3,9.5,10,10.5,0,0,0.5,0.1,0.4,1.4000000000000001,10,initial,36.05,342,361,379,0,0,9,9,9,0,0,,,,,,,2,0,2,0,0,5,5,7,,,,,,,,,,,,num_3,0.9880514999968,num_3,0.4,1.3,0.35000000000000003,0.6,12.90274,22.11898,return,4.4991782999713905,,,,,,,,,,,,,,,,,717,19,female,left_right_width,2024-10-24_15h50.43.242,exp1,2023.1.0,60.000420013123176,
,,,,,,,,,,,,,,,,3,9.5,10,10.5,0,0,0.5,0.1,0.4,1.4000000000000001,10,initial,36.05,342,361,379,0,0,9,9,9,0,0,,,,,,,2,0,2,0,0,6,6,27,,,,,,,,,,,,num_3,0.961377099971287,num_3,0.35,0.4,0.35,0.6,12.90274,22.11898,return,3.800874100008514,,,,,,,,,,,,,,,,,717,19,female,left_right_width,2024-10-24_15h50.43.242,exp1,2023.1.0,60.000420013123176,
,,,,,,,,,,,,,,,,5,9,9.5,10,10.5,11,0.5,0.1,0.4,2.4,10,initial,36.05,324,342,361,379,397,9,9,9,9,9,,,,,,,2,0,2,0,0,7,7,22,,,,,,,,,,,,num_5,1.4454478999832645,num_5,0.2,1.1,0.39999999999999997,0.7,14.74598,25.80547,return,7.318431799998507,,,,,,,,,,,,,,,,,717,19,female,left_right_width,2024-10-24_15h50.43.242,exp1,2023.1.0,60.000420013123176,
,,,,,,,,,,,,,,,,3,9.5,10,10.5,0,0,0.5,0.1,0.4,1.4000000000000001,10,initial,36.05,342,361,379,0,0,9,9,9,0,0,,,,,,,2,0,2,0,0,8,8,8,,,,,,,,,,,,num_3,0.8788985999999568,num_3,0.25,0.3,0.39999999999999997,0.7,14.74598,25.80547,return,4.410730200004764,,,,,,,,,,,,,,,,,717,19,female,left_right_width,2024-10-24_15h50.43.242,exp1,2023.1.0,60.000420013123176,
,,,,,,,,,,,,,,,,3,9.5,10,10.5,0,0,0.5,0.1,0.4,1.4000000000000001,10,initial,36.05,342,361,379,0,0,9,9,9,0,0,,,,,,,2,0,2,0,0,9,9,33,,,,,,,,,,,,num_4,1.0826589000062086,num_4,0.45,0.7,0.45,0.7,16.58923,25.80547,return,1.1618513999856077,,,,,,,,,,,,,,,,,717,19,female,left_right_width,2024-10-24_15h50.43.242,exp1,2023.1.0,60.000420013123176,
,,,,,,,,,,,,,,,,4,9.25,9.75,10.25,10.75,0,0.5,0.1,0.4,1.9000000000000001,10,initial,36.05,333,351,370,388,0,9,9,9,9,0,,,,,,,2,0,2,0,0,10,10,13,,,,,,,,,,,,num_4,2.1187889000284486,num_4,0.4,0.7,0.4,0.7,14.74598,25.80547,return,1.0808723999653012,,,,,,,,,,,,,,,,,717,19,female,left_right_width,2024-10-24_15h50.43.242,exp1,2023.1.0,60.000420013123176,
,,,,,,,,,,,,,,,,4,9.25,9.75,10.25,10.75,0,0.5,0.1,0.4,1.9000000000000001,10,initial,36.05,333,351,370,388,0,9,9,9,9,0,,,,,,,2,0,2,0,0,11,11,14,,,,,,,,,,,,num_5,0.9112105999956839,num_5,0.4,0.9,0.5,0.75,18.43248,27.64872,return,4.405859099992085,,,,,,,,,,,,,,,,,717,19,female,left_right_width,2024-10-24_15h50.43.242,exp1,2023.1.0,60.000420013123176,
,,,,,,,,,,,,,,,,4,9.25,9.75,10.25,10.75,0,0.5,0.1,0.4,1.9000000000000001,10,initial,36.05,333,351,370,388,0,9,9,9,9,0,,,,,,,2,0,2,0,0,12,12,39,,,,,,,,,,,,num_4,0.9862644000095315,num_4,0.45,1.1,0.45,0.8,16.58923,29.49197,return,21.6661247999873,,,,,,,,,,,,,,,,,717,19,female,left_right_width,2024-10-24_15h50.43.242,exp1,2023.1.0,60.000420013123176,
,,,,,,,,,,,,,,,,5,9,9.5,10,10.5,11,0.5,0.1,0.4,2.4,10,initial,36.05,324,342,361,379,397,9,9,9,9,9,,,,,,,2,0,2,0,0,13,13,52,,,,,,,,,,,,num_5,1.2177516999654472,num_5,0.35,1.0,0.49999999999999994,0.8,18.43248,29.49197,return,6.064235800004099,,,,,,,,,,,,,,,,,717,19,female,left_right_width,2024-10-24_15h50.43.242,exp1,2023.1.0,60.000420013123176,
,,,,,,,,,,,,,,,,5,9,9.5,10,10.5,11,0.5,0.1,0.4,2.4,10,initial,36.05,324,342,361,379,397,9,9,9,9,9,,,,,,,2,0,2,0,0,14,14,24,,,,,,,,,,,,num_5,1.74926479998976,num_5,0.55,1.0,0.35000000000000003,0.6,12.90274,22.11898,return,4.4272752000251785,,,,,,,,,,,,,,,,,717,19,female,left_right_width,2024-10-24_15h50.43.242,exp1,2023.1.0,60.000420013123176,
,,,,,,,,,,,,,,,,4,9.25,9.75,10.25,10.75,0,0.5,0.1,0.4,1.9000000000000001,10,initial,36.05,333,351,370,388,0,9,9,9,9,0,,,,,,,2,0,2,0,0,15,15,38,,,,,,,,,,,,num_5,0.9610337999765761,num_5,0.4,0.5,0.4,0.7,14.74598,25.80547,return,3.447818799992092,,,,,,,,,,,,,,,,,717,19,female,left_right_width,2024-10-24_15h50.43.242,exp1,2023.1.0,60.000420013123176,
,,,,,,,,,,,,,,,,3,9.5,10,10.5,0,0,0.5,0.1,0.4,1.4000000000000001,10,initial,36.05,342,361,379,0,0,9,9,9,0,0,,,,,,,2,0,2,0,0,16,16,34,,,,,,,,,,,,num_3,1.7085670999949798,num_3,0.2,0.6,0.35,0.6,12.90274,22.11898,return,2.579759699990973,,,,,,,,,,,,,,,,,717,19,female,left_right_width,2024-10-24_15h50.43.242,exp1,2023.1.0,60.000420013123176,
,,,,,,,,,,,,,,,,5,9,9.5,10,10.5,11,0.5,0.1,0.4,2.4,10,initial,36.05,324,342,361,379,397,9,9,9,9,9,,,,,,,2,0,2,0,0,17,17,19,,,,,,,,,,,,num_5,0.8456023000180721,num_5,0.45,1.1,0.30000000000000004,0.65,11.05949,23.96222,return,6.154159699974116,,,,,,,,,,,,,,,,,717,19,female,left_right_width,2024-10-24_15h50.43.242,exp1,2023.1.0,60.000420013123176,
,,,,,,,,,,,,,,,,3,9.5,10,10.5,0,0,0.5,0.1,0.4,1.4000000000000001,10,initial,36.05,342,361,379,0,0,9,9,9,0,0,,,,,,,2,0,2,0,0,18,18,32,,,,,,,,,,,,num_3,1.8227293000090867,num_3,0.25,1,0.39999999999999997,0.6,14.74598,22.11898,return,5.441174000035971,,,,,,,,,,,,,,,,,717,19,female,left_right_width,2024-10-24_15h50.43.242,exp1,2023.1.0,60.000420013123176,
,,,,,,,,,,,,,,,,3,9.5,10,10.5,0,0,0.5,0.1,0.4,1.4000000000000001,10,initial,36.05,342,361,379,0,0,9,9,9,0,0,,,,,,,2,0,2,0,0,19,19,5,,,,,,,,,,,,num_3,0.9380646999925375,num_3,0.25,1.1,0.39999999999999997,0.75,14.74598,27.64872,return,6.399756999977399,,,,,,,,,,,,,,,,,717,19,female,left_right_width,2024-10-24_15h50.43.242,exp1,2023.1.0,60.000420013123176,
,,,,,,,,,,,,,,,,4,9.25,9.75,10.25,10.75,0,0.5,0.1,0.4,1.9000000000000001,10,initial,36.05,333,351,370,388,0,9,9,9,9,0,,,,,,,2,0,2,0,0,20,20,9,,,,,,,,,,,,num_4,1.0721019999473356,num_4,0.25,0.7,0.35,0.6,12.90274,22.11898,return,29.284714000008535,,,,,,,,,,,,,,,,,717,19,female,left_right_width,2024-10-24_15h50.43.242,exp1,2023.1.0,60.000420013123176,
,,,,,,,,,,,,,,,,4,9.25,9.75,10.25,10.75,0,0.5,0.1,0.4,1.9000000000000001,10,initial,36.05,333,351,370,388,0,9,9,9,9,0,,,,,,,2,0,2,0,0,21,21,16,,,,,,,,,,,,num_4,1.7159828000003472,num_4,0.3,1.2,0.39999999999999997,0.7,14.74598,25.80547,return,5.021124599967152,,,,,,,,,,,,,,,,,717,19,female,left_right_width,2024-10-24_15h50.43.242,exp1,2023.1.0,60.000420013123176,
,,,,,,,,,,,,,,,,4,9.25,9.75,10.25,10.75,0,0.5,0.1,0.4,1.9000000000000001,10,initial,36.05,333,351,370,388,0,9,9,9,9,0,,,,,,,2,0,2,0,0,22,22,44,,,,,,,,,,,,num_4,0.8774317000061274,num_4,0.4,0.7,0.4,0.7,14.74598,25.80547,return,0.889808300009463,,,,,,,,,,,,,,,,,717,19,female,left_right_width,2024-10-24_15h50.43.242,exp1,2023.1.0,60.000420013123176,
,,,,,,,,,,,,,,,,5,9,9.5,10,10.5,11,0.5,0.1,0.4,2.4,10,initial,36.05,324,342,361,379,397,9,9,9,9,9,,,,,,,2,0,2,0,0,23,23,20,,,,,,,,,,,,num_4,2.2816098000039347,num_4,0.25,0.3,0.25,0.6,9.21624,22.11898,return,3.0019368000212125,,,,,,,,,,,,,,,,,717,19,female,left_right_width,2024-10-24_15h50.43.242,exp1,2023.1.0,60.000420013123176,
,,,,,,,,,,,,,,,,4,9.25,9.75,10.25,10.75,0,0.5,0.1,0.4,1.9000000000000001,10,initial,36.05,333,351,370,388,0,9,9,9,9,0,,,,,,,2,0,2,0,0,24,24,17,,,,,,,,,,,,num_4,0.9456919999793172,num_4,0.2,1.2,0.39999999999999997,0.7,14.74598,25.80547,return,3.8821343000163324,,,,,,,,,,,,,,,,,717,19,female,left_right_width,2024-10-24_15h50.43.242,exp1,2023.1.0,60.000420013123176,
,,,,,,,,,,,,,,,,5,9,9.5,10,10.5,11,0.5,0.1,0.4,2.4,10,initial,36.05,324,342,361,379,397,9,9,9,9,9,,,,,,,2,0,2,0,0,25,25,18,,,,,,,,,,,,num_5,0.9288227999932133,num_5,0.35,1.1,0.39999999999999997,0.85,14.74598,31.33522,return,4.20307440002216,,,,,,,,,,,,,,,,,717,19,female,left_right_width,2024-10-24_15h50.43.242,exp1,2023.1.0,60.000420013123176,
,,,,,,,,,,,,,,,,3,9.5,10,10.5,0,0,0.5,0.1,0.4,1.4000000000000001,10,initial,36.05,342,361,379,0,0,9,9,9,0,0,,,,,,,2,0,2,0,0,26,26,35,,,,,,,,,,,,num_3,1.0345192999811843,num_3,0.35,0.5,0.35,0.5,12.90274,18.43248,return,0.9907957999967039,,,,,,,,,,,,,,,,,717,19,female,left_right_width,2024-10-24_15h50.43.242,exp1,2023.1.0,60.000420013123176,
,,,,,,,,,,,,,,,,5,9,9.5,10,10.5,11,0.5,0.1,0.4,2.4,10,initial,36.05,324,342,361,379,397,9,9,9,9,9,,,,,,,2,0,2,0,0,27,27,45,,,,,,,,,,,,num_5,0.9120472999638878,num_5,0.55,0.9,0.35000000000000003,0.65,12.90274,23.96222,return,4.615768199961167,,,,,,,,,,,,,,,,,717,19,female,left_right_width,2024-10-24_15h50.43.242,exp1,2023.1.0,60.000420013123176,
,,,,,,,,,,,,,,,,5,9,9.5,10,10.5,11,0.5,0.1,0.4,2.4,10,initial,36.05,324,342,361,379,397,9,9,9,9,9,,,,,,,2,0,2,0,0,28,28,26,,,,,,,,,,,,num_5,1.290881699998863,num_5,0.35,1.1,0.44999999999999996,0.65,16.58923,23.96222,return,3.9192589999875054,,,,,,,,,,,,,,,,,717,19,female,left_right_width,2024-10-24_15h50.43.242,exp1,2023.1.0,60.000420013123176,
,,,,,,,,,,,,,,,,4,9.25,9.75,10.25,10.75,0,0.5,0.1,0.4,1.9000000000000001,10,initial,36.05,333,351,370,388,0,9,9,9,9,0,,,,,,,2,0,2,0,0,29,29,42,,,,,,,,,,,,num_5,1.0345578999840654,num_5,0.4,0.8,0.4,0.65,14.74598,23.96222,return,1.4492650000029244,,,,,,,,,,,,,,,,,717,19,female,left_right_width,2024-10-24_15h50.43.242,exp1,2023.1.0,60.000420013123176,
,,,,,,,,,,,,,,,,3,9.5,10,10.5,0,0,0.5,0.1,0.4,1.4000000000000001,10,initial,36.05,342,361,379,0,0,9,9,9,0,0,,,,,,,2,0,2,0,0,30,30,4,,,,,,,,,,,,num_3,1.004026899987366,num_3,0.35,0.5,0.39999999999999997,0.65,14.74598,23.96222,return,2.7327986000454985,,,,,,,,,,,,,,,,,717,19,female,left_right_width,2024-10-24_15h50.43.242,exp1,2023.1.0,60.000420013123176,
,,,,,,,,,,,,,,,,4,9.25,9.75,10.25,10.75,0,0.5,0.1,0.4,1.9000000000000001,10,initial,36.05,333,351,370,388,0,9,9,9,9,0,,,,,,,2,0,2,0,0,31,31,36,,,,,,,,,,,,num_4,0.9993400999810547,num_4,0.35,1.0,0.39999999999999997,0.6,14.74598,22.11898,return,4.81293860002188,,,,,,,,,,,,,,,,,717,19,female,left_right_width,2024-10-24_15h50.43.242,exp1,2023.1.0,60.000420013123176,
,,,,,,,,,,,,,,,,5,9,9.5,10,10.5,11,0.5,0.1,0.4,2.4,10,initial,36.05,324,342,361,379,397,9,9,9,9,9,,,,,,,2,0,2,0,0,32,32,51,,,,,,,,,,,,num_5,0.8978277999558486,num_5,0.25,1.3,0.49999999999999994,0.75,18.43248,27.64872,return,4.4874913999810815,,,,,,,,,,,,,,,,,717,19,female,left_right_width,2024-10-24_15h50.43.242,exp1,2023.1.0,60.000420013123176,
,,,,,,,,,,,,,,,,5,9,9.5,10,10.5,11,0.5,0.1,0.4,2.4,10,initial,36.05,324,342,361,379,397,9,9,9,9,9,,,,,,,2,0,2,0,0,33,33,53,,,,,,,,,,,,num_5,0.876253499998711,num_5,0.55,0.7,0.30000000000000004,0.75,11.05949,27.64872,return,5.218715599970892,,,,,,,,,,,,,,,,,717,19,female,left_right_width,2024-10-24_15h50.43.242,exp1,2023.1.0,60.000420013123176,
,,,,,,,,,,,,,,,,3,9.5,10,10.5,0,0,0.5,0.1,0.4,1.4000000000000001,10,initial,36.05,342,361,379,0,0,9,9,9,0,0,,,,,,,2,0,2,0,0,34,34,0,,,,,,,,,,,,num_3,1.3382147999946028,num_3,0.45,1,0.35000000000000003,0.55,12.90274,20.27573,return,3.582331500016153,,,,,,,,,,,,,,,,,717,19,female,left_right_width,2024-10-24_15h50.43.242,exp1,2023.1.0,60.000420013123176,
,,,,,,,,,,,,,,,,3,9.5,10,10.5,0,0,0.5,0.1,0.4,1.4000000000000001,10,initial,36.05,342,361,379,0,0,9,9,9,0,0,,,,,,,2,0,2,0,0,35,35,28,,,,,,,,,,,,num_3,0.8389412000542507,num_3,0.3,1,0.44999999999999996,0.7,16.58923,25.80547,return,3.4119700999581255,,,,,,,,,,,,,,,,,717,19,female,left_right_width,2024-10-24_15h50.43.242,exp1,2023.1.0,60.000420013123176,
,,,,,,,,,,,,,,,,5,9,9.5,10,10.5,11,0.5,0.1,0.4,2.4,10,initial,36.05,324,342,361,379,397,9,9,9,9,9,,,,,,,2,0,2,0,0,36,36,23,,,,,,,,,,,,num_4,0.9816681999946013,num_4,0.5,0.8,0.5,0.8,18.43248,29.49197,return,1.8522581999422982,,,,,,,,,,,,,,,,,717,19,female,left_right_width,2024-10-24_15h50.43.242,exp1,2023.1.0,60.000420013123176,
,,,,,,,,,,,,,,,,4,9.25,9.75,10.25,10.75,0,0.5,0.1,0.4,1.9000000000000001,10,initial,36.05,333,351,370,388,0,9,9,9,9,0,,,,,,,2,0,2,0,0,37,37,10,,,,,,,,,,,,num_3,0.9016682999790646,num_3,0.4,1,0.35000000000000003,0.6,12.90274,22.11898,return,4.464182199968491,,,,,,,,,,,,,,,,,717,19,female,left_right_width,2024-10-24_15h50.43.242,exp1,2023.1.0,60.000420013123176,
,,,,,,,,,,,,,,,,4,9.25,9.75,10.25,10.75,0,0.5,0.1,0.4,1.9000000000000001,10,initial,36.05,333,351,370,388,0,9,9,9,9,0,,,,,,,2,0,2,0,0,38,38,12,,,,,,,,,,,,num_4,0.9082969999872148,num_4,0.3,0.8,0.44999999999999996,0.7,16.58923,25.80547,return,3.8240846000262536,,,,,,,,,,,,,,,,,717,19,female,left_right_width,2024-10-24_15h50.43.242,exp1,2023.1.0,60.000420013123176,
,,,,,,,,,,,,,,,,3,9.5,10,10.5,0,0,0.5,0.1,0.4,1.4000000000000001,10,initial,36.05,342,361,379,0,0,9,9,9,0,0,,,,,,,2,0,2,0,0,39,39,29,,,,,,,,,,,,num_3,0.894693499954883,num_3,0.55,1.2,0.35000000000000003,0.65,12.90274,23.96222,return,4.105362800008152,,,,,,,,,,,,,,,,,717,19,female,left_right_width,2024-10-24_15h50.43.242,exp1,2023.1.0,60.000420013123176,
,,,,,,,,,,,,,,,,5,9,9.5,10,10.5,11,0.5,0.1,0.4,2.4,10,initial,36.05,324,342,361,379,397,9,9,9,9,9,,,,,,,2,0,2,0,0,40,40,47,,,,,,,,,,,,num_5,0.9561243999633007,num_5,0.35,0.5,0.35,0.5,12.90274,18.43248,return,1.1688787000020966,,,,,,,,,,,,,,,,,717,19,female,left_right_width,2024-10-24_15h50.43.242,exp1,2023.1.0,60.000420013123176,
,,,,,,,,,,,,,,,,3,9.5,10,10.5,0,0,0.5,0.1,0.4,1.4000000000000001,10,initial,36.05,342,361,379,0,0,9,9,9,0,0,,,,,,,2,0,2,0,0,41,41,1,,,,,,,,,,,,num_3,0.8237697000149637,num_3,0.3,1.3,0.35,0.6,12.90274,22.11898,return,8.433083500014618,,,,,,,,,,,,,,,,,717,19,female,left_right_width,2024-10-24_15h50.43.242,exp1,2023.1.0,60.000420013123176,
,,,,,,,,,,,,,,,,4,9.25,9.75,10.25,10.75,0,0.5,0.1,0.4,1.9000000000000001,10,initial,36.05,333,351,370,388,0,9,9,9,9,0,,,,,,,2,0,2,0,0,42,42,41,,,,,,,,,,,,num_5,1.0096947000129148,num_5,0.2,0.5,0.35,0.7,12.90274,25.80547,return,3.9073541999678127,,,,,,,,,,,,,,,,,717,19,female,left_right_width,2024-10-24_15h50.43.242,exp1,2023.1.0,60.000420013123176,
,,,,,,,,,,,,,,,,5,9,9.5,10,10.5,11,0.5,0.1,0.4,2.4,10,initial,36.05,324,342,361,379,397,9,9,9,9,9,,,,,,,2,0,2,0,0,43,43,21,,,,,,,,,,,,num_4,0.8654962000437081,num_4,0.2,0.5,0.3,0.9,11.05949,33.17846,return,2.58337260002736,,,,,,,,,,,,,,,,,717,19,female,left_right_width,2024-10-24_15h50.43.242,exp1,2023.1.0,60.000420013123176,
,,,,,,,,,,,,,,,,5,9,9.5,10,10.5,11,0.5,0.1,0.4,2.4,10,initial,36.05,324,342,361,379,397,9,9,9,9,9,,,,,,,2,0,2,0,0,44,44,50,,,,,,,,,,,,num_5,1.071566200000234,num_5,0.25,0.4,0.35,0.6,12.90274,22.11898,return,4.484547799977008,,,,,,,,,,,,,,,,,717,19,female,left_right_width,2024-10-24_15h50.43.242,exp1,2023.1.0,60.000420013123176,
,,,,,,,,,,,,,,,,4,9.25,9.75,10.25,10.75,0,0.5,0.1,0.4,1.9000000000000001,10,initial,36.05,333,351,370,388,0,9,9,9,9,0,,,,,,,2,0,2,0,0,45,45,40,,,,,,,,,,,,num_3,0.8404601999791339,num_3,0.2,0.8,0.44999999999999996,0.65,16.58923,23.96222,return,3.7149922999669798,,,,,,,,,,,,,,,,,717,19,female,left_right_width,2024-10-24_15h50.43.242,exp1,2023.1.0,60.000420013123176,
,,,,,,,,,,,,,,,,5,9,9.5,10,10.5,11,0.5,0.1,0.4,2.4,10,initial,36.05,324,342,361,379,397,9,9,9,9,9,,,,,,,2,0,2,0,0,46,46,25,,,,,,,,,,,,num_5,0.970560799993109,num_5,0.25,1.0,0.39999999999999997,0.7,14.74598,25.80547,return,5.743228700011969,,,,,,,,,,,,,,,,,717,19,female,left_right_width,2024-10-24_15h50.43.242,exp1,2023.1.0,60.000420013123176,
,,,,,,,,,,,,,,,,3,9.5,10,10.5,0,0,0.5,0.1,0.4,1.4000000000000001,10,initial,36.05,342,361,379,0,0,9,9,9,0,0,,,,,,,2,0,2,0,0,47,47,30,,,,,,,,,,,,num_3,1.0218203000258654,num_3,0.45,1.2,0.30000000000000004,0.45,11.05949,16.58923,return,5.8858126000268385,,,,,,,,,,,,,,,,,717,19,female,left_right_width,2024-10-24_15h50.43.242,exp1,2023.1.0,60.000420013123176,
,,,,,,,,,,,,,,,,3,9.5,10,10.5,0,0,0.5,0.1,0.4,1.4000000000000001,10,initial,36.05,342,361,379,0,0,9,9,9,0,0,,,,,,,2,0,2,0,0,48,48,3,,,,,,,,,,,,num_3,0.8786683999933302,num_3,0.3,0.4,0.3,0.65,11.05949,23.96222,return,3.9110720999888144,,,,,,,,,,,,,,,,,717,19,female,left_right_width,2024-10-24_15h50.43.242,exp1,2023.1.0,60.000420013123176,
,,,,,,,,,,,,,,,,5,9,9.5,10,10.5,11,0.5,0.1,0.4,2.4,10,initial,36.05,324,342,361,379,397,9,9,9,9,9,,,,,,,2,0,2,0,0,49,49,49,,,,,,,,,,,,num_4,0.8912221000064164,num_4,0.5,1.0,0.4,0.5,14.74598,18.43248,return,3.7793828999856487,,,,,,,,,,,,,,,,,717,19,female,left_right_width,2024-10-24_15h50.43.242,exp1,2023.1.0,60.000420013123176,
,,,,,,,,,,,,,,,,3,9.5,10,10.5,0,0,0.5,0.1,0.4,1.4000000000000001,10,initial,36.05,342,361,379,0,0,9,9,9,0,0,,,,,,,2,0,2,0,0,50,50,6,,,,,,,,,,,,num_3,0.9130591999855824,num_3,0.45,0.7,0.35000000000000003,0.65,12.90274,23.96222,return,3.2269020000239834,,,,,,,,,,,,,,,,,717,19,female,left_right_width,2024-10-24_15h50.43.242,exp1,2023.1.0,60.000420013123176,
,,,,,,,,,,,,,,,,4,9.25,9.75,10.25,10.75,0,0.5,0.1,0.4,1.9000000000000001,10,initial,36.05,333,351,370,388,0,9,9,9,9,0,,,,,,,2,0,2,0,0,51,51,37,,,,,,,,,,,,num_4,1.2920122999930754,num_4,0.25,0.9,0.3,0.5,11.05949,18.43248,return,4.790791600011289,,,,,,,,,,,,,,,,,717,19,female,left_right_width,2024-10-24_15h50.43.242,exp1,2023.1.0,60.000420013123176,
,,,,,,,,,,,,,,,,5,9,9.5,10,10.5,11,0.5,0.1,0.4,2.4,10,initial,36.05,324,342,361,379,397,9,9,9,9,9,,,,,,,2,0,2,0,0,52,52,46,,,,,,,,,,,,num_5,0.8518356999848038,num_5,0.2,0.4,0.3,0.6,11.05949,22.11898,return,5.629400100035127,,,,,,,,,,,,,,,,,717,19,female,left_right_width,2024-10-24_15h50.43.242,exp1,2023.1.0,60.000420013123176,
,,,,,,,,,,,,,,,,4,9.25,9.75,10.25,10.75,0,0.5,0.1,0.4,1.9000000000000001,10,initial,36.05,333,351,370,388,0,9,9,9,9,0,,,,,,,2,0,2,0,0,53,53,15,,,,,,,,,,,,num_4,1.0578135999967344,num_4,0.4,0.7,0.4,0.7,14.74598,25.80547,return,1.202105600037612,,,,,,,,,,,,,,,,,717,19,female,left_right_width,2024-10-24_15h50.43.242,exp1,2023.1.0,60.000420013123176,
,,,,,,,,,,,,,,,,,,,,,,,,,,,,,,,,,,,,,,,,,,,,,2,0,2,0,,,,,,,,,,,,,,,,,,,,,,,,,,,,,1789.0879475999973,1789.0879475999973,1789.0879475999973,,,,,,,,,,,,717,19,female,left_right_width,2024-10-24_15h50.43.242,exp1,2023.1.0,60.000420013123176,
,,,,,,,,,,,,,,,,5,9,9.5,10,10.5,11,0.5,0.25,0.25,2.25,10,initial,36.05,324,342,361,379,397,9,9,9,9,9,,,,,,,3,0,3,0,0,0,0,50,,,,,,,,,,,,num_4,1.3202976000029594,num_4,0.35,0.8,0.25,0.8,9.21624,29.49197,return,2.29124839999713,,,,,,,,,,,,,,,,,717,19,female,left_right_width,2024-10-24_15h50.43.242,exp1,2023.1.0,60.000420013123176,
,,,,,,,,,,,,,,,,3,9.5,10,10.5,0,0,0.5,0.25,0.25,1.25,10,initial,36.05,342,361,379,0,0,9,9,9,0,0,,,,,,,3,0,3,0,0,1,1,0,,,,,,,,,,,,num_2,1.1924152999999933,num_2,0.25,0.8,0.2,0.5,7.37299,18.43248,return,2.7713225000188686,,,,,,,,,,,,,,,,,717,19,female,left_right_width,2024-10-24_15h50.43.242,exp1,2023.1.0,60.000420013123176,
,,,,,,,,,,,,,,,,4,9.25,9.75,10.25,10.75,0,0.5,0.25,0.25,1.75,10,initial,36.05,333,351,370,388,0,9,9,9,9,0,,,,,,,3,0,3,0,0,2,2,38,,,,,,,,,,,,num_3,1.2650804999866523,num_3,0.35,1.2,0.3,0.8,11.05949,29.49197,return,5.148885499977041,,,,,,,,,,,,,,,,,717,19,female,left_right_width,2024-10-24_15h50.43.242,exp1,2023.1.0,60.000420013123176,
,,,,,,,,,,,,,,,,5,9,9.5,10,10.5,11,0.5,0.25,0.25,2.25,10,initial,36.05,324,342,361,379,397,9,9,9,9,9,,,,,,,3,0,3,0,0,3,3,53,,,,,,,,,,,,num_5,0.855087400006596,num_5,0.45,0.5,0.20000000000000007,0.55,7.37299,20.27573,return,4.351158699952066,,,,,,,,,,,,,,,,,717,19,female,left_right_width,2024-10-24_15h50.43.242,exp1,2023.1.0,60.000420013123176,
,,,,,,,,,,,,,,,,3,9.5,10,10.5,0,0,0.5,0.25,0.25,1.25,10,initial,36.05,342,361,379,0,0,9,9,9,0,0,,,,,,,3,0,3,0,0,4,4,4,,,,,,,,,,,,num_2,0.901775699981954,num_2,0.2,1.0,0.3,0.6,11.05949,22.11898,return,2.8117866999818943,,,,,,,,,,,,,,,,,717,19,female,left_right_width,2024-10-24_15h50.43.242,exp1,2023.1.0,60.000420013123176,
,,,,,,,,,,,,,,,,5,9,9.5,10,10.5,11,0.5,0.25,0.25,2.25,10,initial,36.05,324,342,361,379,397,9,9,9,9,9,,,,,,,3,0,3,0,0,5,5,52,,,,,,,,,,,,num_5,1.5935864000348374,num_5,0.3,1.1,0.3,0.7,11.05949,25.80547,return,4.706456300045829,,,,,,,,,,,,,,,,,717,19,female,left_right_width,2024-10-24_15h50.43.242,exp1,2023.1.0,60.000420013123176,
,,,,,,,,,,,,,,,,3,9.5,10,10.5,0,0,0.5,0.25,0.25,1.25,10,initial,36.05,342,361,379,0,0,9,9,9,0,0,,,,,,,3,0,3,0,0,6,6,1,,,,,,,,,,,,num_3,1.418365099991206,num_3,0.55,1.2,0.30000000000000004,0.7,11.05949,25.80547,return,7.467751500022132,,,,,,,,,,,,,,,,,717,19,female,left_right_width,2024-10-24_15h50.43.242,exp1,2023.1.0,60.000420013123176,
,,,,,,,,,,,,,,,,4,9.25,9.75,10.25,10.75,0,0.5,0.25,0.25,1.75,10,initial,36.05,333,351,370,388,0,9,9,9,9,0,,,,,,,3,0,3,0,0,7,7,39,,,,,,,,,,,,num_3,1.085112400003709,num_3,0.3,0.4,0.3,1.1,11.05949,40.55146,return,4.941326799977105,,,,,,,,,,,,,,,,,717,19,female,left_right_width,2024-10-24_15h50.43.242,exp1,2023.1.0,60.000420013123176,
,,,,,,,,,,,,,,,,3,9.5,10,10.5,0,0,0.5,0.25,0.25,1.25,10,initial,36.05,342,361,379,0,0,9,9,9,0,0,,,,,,,3,0,3,0,0,8,8,7,,,,,,,,,,,,num_3,1.2788818000117317,num_3,0.45,0.6,0.30000000000000004,0.9,11.05949,33.17846,return,4.675922899972647,,,,,,,,,,,,,,,,,717,19,female,left_right_width,2024-10-24_15h50.43.242,exp1,2023.1.0,60.000420013123176,
,,,,,,,,,,,,,,,,5,9,9.5,10,10.5,11,0.5,0.25,0.25,2.25,10,initial,36.05,324,342,361,379,397,9,9,9,9,9,,,,,,,3,0,3,0,0,9,9,18,,,,,,,,,,,,num_5,1.06247840001015,num_5,0.25,0.6,0.25,0.75,9.21624,27.64872,return,2.2821899999980815,,,,,,,,,,,,,,,,,717,19,female,left_right_width,2024-10-24_15h50.43.242,exp1,2023.1.0,60.000420013123176,
,,,,,,,,,,,,,,,,3,9.5,10,10.5,0,0,0.5,0.25,0.25,1.25,10,initial,36.05,342,361,379,0,0,9,9,9,0,0,,,,,,,3,0,3,0,0,10,10,3,,,,,,,,,,,,num_3,2.386790699965786,num_3,0.25,0.4,0.25,0.6,9.21624,22.11898,return,1.873611799965147,,,,,,,,,,,,,,,,,717,19,female,left_right_width,2024-10-24_15h50.43.242,exp1,2023.1.0,60.000420013123176,
,,,,,,,,,,,,,,,,4,9.25,9.75,10.25,10.75,0,0.5,0.25,0.25,1.75,10,initial,36.05,333,351,370,388,0,9,9,9,9,0,,,,,,,3,0,3,0,0,11,11,15,,,,,,,,,,,,num_3,1.3585902000195347,num_3,0.55,1.1,0.25000000000000006,1.35,9.21624,49.7677,return,6.61464819998946,,,,,,,,,,,,,,,,,717,19,female,left_right_width,2024-10-24_15h50.43.242,exp1,2023.1.0,60.000420013123176,
,,,,,,,,,,,,,,,,4,9.25,9.75,10.25,10.75,0,0.5,0.25,0.25,1.75,10,initial,36.05,333,351,370,388,0,9,9,9,9,0,,,,,,,3,0,3,0,0,12,12,42,,,,,,,,,,,,num_4,2.5177064000163227,num_4,0.45,0.5,0.20000000000000007,0.9,7.37299,33.17846,return,4.655194199993275,,,,,,,,,,,,,,,,,717,19,female,left_right_width,2024-10-24_15h50.43.242,exp1,2023.1.0,60.000420013123176,
,,,,,,,,,,,,,,,,5,9,9.5,10,10.5,11,0.5,0.25,0.25,2.25,10,initial,36.05,324,342,361,379,397,9,9,9,9,9,,,,,,,3,0,3,0,0,13,13,47,,,,,,,,,,,,num_5,0.9412108999677002,num_5,0.45,1.3,0.25000000000000006,0.85,9.21624,31.33522,return,4.326449699990917,,,,,,,,,,,,,,,,,717,19,female,left_right_width,2024-10-24_15h50.43.242,exp1,2023.1.0,60.000420013123176,
,,,,,,,,,,,,,,,,4,9.25,9.75,10.25,10.75,0,0.5,0.25,0.25,1.75,10,initial,36.05,333,351,370,388,0,9,9,9,9,0,,,,,,,3,0,3,0,0,14,14,37,,,,,,,,,,,,num_4,0.9459473000024445,num_4,0.3,0.4,0.3,0.8,11.05949,29.49197,return,1.6429015999892727,,,,,,,,,,,,,,,,,717,19,female,left_right_width,2024-10-24_15h50.43.242,exp1,2023.1.0,60.000420013123176,
,,,,,,,,,,,,,,,,3,9.5,10,10.5,0,0,0.5,0.25,0.25,1.25,10,initial,36.05,342,361,379,0,0,9,9,9,0,0,,,,,,,3,0,3,0,0,15,15,30,,,,,,,,,,,,num_2,2.012310299964156,num_2,0.45,1.6,0.35000000000000003,0.6,12.90274,22.11898,return,4.507338900002651,,,,,,,,,,,,,,,,,717,19,female,left_right_width,2024-10-24_15h50.43.242,exp1,2023.1.0,60.000420013123176,
,,,,,,,,,,,,,,,,4,9.25,9.75,10.25,10.75,0,0.5,0.25,0.25,1.75,10,initial,36.05,333,351,370,388,0,9,9,9,9,0,,,,,,,3,0,3,0,0,16,16,44,,,,,,,,,,,,num_3,2.240414600004442,num_3,0.4,0.6,0.30000000000000004,0.8,11.05949,29.49197,return,4.308984900009818,,,,,,,,,,,,,,,,,717,19,female,left_right_width,2024-10-24_15h50.43.242,exp1,2023.1.0,60.000420013123176,
,,,,,,,,,,,,,,,,3,9.5,10,10.5,0,0,0.5,0.25,0.25,1.25,10,initial,36.05,342,361,379,0,0,9,9,9,0,0,,,,,,,3,0,3,0,0,17,17,27,,,,,,,,,,,,num_2,1.6662840999779291,num_2,0.25,1.0,0.25,0.5,9.21624,18.43248,return,4.439697799971327,,,,,,,,,,,,,,,,,717,19,female,left_right_width,2024-10-24_15h50.43.242,exp1,2023.1.0,60.000420013123176,
,,,,,,,,,,,,,,,,4,9.25,9.75,10.25,10.75,0,0.5,0.25,0.25,1.75,10,initial,36.05,333,351,370,388,0,9,9,9,9,0,,,,,,,3,0,3,0,0,18,18,41,,,,,,,,,,,,num_3,0.9221266999957152,num_3,0.45,0.9,0.35000000000000003,0.75,12.90274,27.64872,return,2.4159525000141002,,,,,,,,,,,,,,,,,717,19,female,left_right_width,2024-10-24_15h50.43.242,exp1,2023.1.0,60.000420013123176,
,,,,,,,,,,,,,,,,3,9.5,10,10.5,0,0,0.5,0.25,0.25,1.25,10,initial,36.05,342,361,379,0,0,9,9,9,0,0,,,,,,,3,0,3,0,0,19,19,35,,,,,,,,,,,,num_3,0.987660099985078,num_3,0.3,1.2,0.44999999999999996,0.85,16.58923,31.33522,return,3.0342625999473967,,,,,,,,,,,,,,,,,717,19,female,left_right_width,2024-10-24_15h50.43.242,exp1,2023.1.0,60.000420013123176,
,,,,,,,,,,,,,,,,4,9.25,9.75,10.25,10.75,0,0.5,0.25,0.25,1.75,10,initial,36.05,333,351,370,388,0,9,9,9,9,0,,,,,,,3,0,3,0,0,20,20,40,,,,,,,,,,,,num_3,11.159223499998916,num_3,0.5,1,0.30000000000000004,1,11.05949,36.86496,return,2.786722599994391,,,,,,,,,,,,,,,,,717,19,female,left_right_width,2024-10-24_15h50.43.242,exp1,2023.1.0,60.000420013123176,
,,,,,,,,,,,,,,,,5,9,9.5,10,10.5,11,0.5,0.25,0.25,2.25,10,initial,36.05,324,342,361,379,397,9,9,9,9,9,,,,,,,3,0,3,0,0,21,21,51,,,,,,,,,,,,num_4,1.2113746999530122,num_4,0.25,0.5,0.3,0.9,11.05949,33.17846,return,2.5958359999931417,,,,,,,,,,,,,,,,,717,19,female,left_right_width,2024-10-24_15h50.43.242,exp1,2023.1.0,60.000420013123176,
,,,,,,,,,,,,,,,,4,9.25,9.75,10.25,10.75,0,0.5,0.25,0.25,1.75,10,initial,36.05,333,351,370,388,0,9,9,9,9,0,,,,,,,3,0,3,0,0,22,22,11,,,,,,,,,,,,num_3,1.0492503000423312,num_3,0.45,1,0.35000000000000003,0.75,12.90274,27.64872,return,2.572147099999711,,,,,,,,,,,,,,,,,717,19,female,left_right_width,2024-10-24_15h50.43.242,exp1,2023.1.0,60.000420013123176,
,,,,,,,,,,,,,,,,3,9.5,10,10.5,0,0,0.5,0.25,0.25,1.25,10,initial,36.05,342,361,379,0,0,9,9,9,0,0,,,,,,,3,0,3,0,0,23,23,31,,,,,,,,,,,,num_3,0.8845383999869227,num_3,0.55,0.9,0.35000000000000003,0.6,12.90274,22.11898,return,3.004943199979607,,,,,,,,,,,,,,,,,717,19,female,left_right_width,2024-10-24_15h50.43.242,exp1,2023.1.0,60.000420013123176,
,,,,,,,,,,,,,,,,5,9,9.5,10,10.5,11,0.5,0.25,0.25,2.25,10,initial,36.05,324,342,361,379,397,9,9,9,9,9,,,,,,,3,0,3,0,0,24,24,26,,,,,,,,,,,,num_5,1.1124420000123791,num_5,0.25,0.9,0.25,0.7,9.21624,25.80547,return,1.7969165000249632,,,,,,,,,,,,,,,,,717,19,female,left_right_width,2024-10-24_15h50.43.242,exp1,2023.1.0,60.000420013123176,
,,,,,,,,,,,,,,,,5,9,9.5,10,10.5,11,0.5,0.25,0.25,2.25,10,initial,36.05,324,342,361,379,397,9,9,9,9,9,,,,,,,3,0,3,0,0,25,25,49,,,,,,,,,,,,num_6,0.9447450999869034,num_6,0.35,0.9,0.25,0.6,9.21624,22.11898,return,2.0063203999889083,,,,,,,,,,,,,,,,,717,19,female,left_right_width,2024-10-24_15h50.43.242,exp1,2023.1.0,60.000420013123176,
,,,,,,,,,,,,,,,,4,9.25,9.75,10.25,10.75,0,0.5,0.25,0.25,1.75,10,initial,36.05,333,351,370,388,0,9,9,9,9,0,,,,,,,3,0,3,0,0,26,26,43,,,,,,,,,,,,num_3,1.137547700025607,num_3,0.2,0.8,0.35,0.65,12.90274,23.96222,return,2.1731908000074327,,,,,,,,,,,,,,,,,717,19,female,left_right_width,2024-10-24_15h50.43.242,exp1,2023.1.0,60.000420013123176,
,,,,,,,,,,,,,,,,5,9,9.5,10,10.5,11,0.5,0.25,0.25,2.25,10,initial,36.05,324,342,361,379,397,9,9,9,9,9,,,,,,,3,0,3,0,0,27,27,46,,,,,,,,,,,,num_6,0.8254979999619536,num_6,0.25,1.0,0.25,0.8,9.21624,29.49197,return,4.358981000026688,,,,,,,,,,,,,,,,,717,19,female,left_right_width,2024-10-24_15h50.43.242,exp1,2023.1.0,60.000420013123176,
,,,,,,,,,,,,,,,,4,9.25,9.75,10.25,10.75,0,0.5,0.25,0.25,1.75,10,initial,36.05,333,351,370,388,0,9,9,9,9,0,,,,,,,3,0,3,0,0,28,28,12,,,,,,,,,,,,num_5,1.019971199973952,num_5,0.5,0.9,0.30000000000000004,0.65,11.05949,23.96222,return,2.9462581999832764,,,,,,,,,,,,,,,,,717,19,female,left_right_width,2024-10-24_15h50.43.242,exp1,2023.1.0,60.000420013123176,
,,,,,,,,,,,,,,,,4,9.25,9.75,10.25,10.75,0,0.5,0.25,0.25,1.75,10,initial,36.05,333,351,370,388,0,9,9,9,9,0,,,,,,,3,0,3,0,0,29,29,9,,,,,,,,,,,,num_4,1.0223274999880232,num_4,0.25,0.3,0.25,0.6,9.21624,22.11898,return,1.923129600007087,,,,,,,,,,,,,,,,,717,19,female,left_right_width,2024-10-24_15h50.43.242,exp1,2023.1.0,60.000420013123176,
,,,,,,,,,,,,,,,,4,9.25,9.75,10.25,10.75,0,0.5,0.25,0.25,1.75,10,initial,36.05,333,351,370,388,0,9,9,9,9,0,,,,,,,3,0,3,0,0,30,30,14,,,,,,,,,,,,num_4,0.8160707000060938,num_4,0.45,1.3,0.30000000000000004,0.7,11.05949,25.80547,return,4.574193799984641,,,,,,,,,,,,,,,,,717,19,female,left_right_width,2024-10-24_15h50.43.242,exp1,2023.1.0,60.000420013123176,
,,,,,,,,,,,,,,,,3,9.5,10,10.5,0,0,0.5,0.25,0.25,1.25,10,initial,36.05,342,361,379,0,0,9,9,9,0,0,,,,,,,3,0,3,0,0,31,31,29,,,,,,,,,,,,num_3,0.8944500000216067,num_3,0.4,0.6,0.20000000000000007,0.7,7.37299,25.80547,return,3.9247476999880746,,,,,,,,,,,,,,,,,717,19,female,left_right_width,2024-10-24_15h50.43.242,exp1,2023.1.0,60.000420013123176,
,,,,,,,,,,,,,,,,3,9.5,10,10.5,0,0,0.5,0.25,0.25,1.25,10,initial,36.05,342,361,379,0,0,9,9,9,0,0,,,,,,,3,0,3,0,0,32,32,2,,,,,,,,,,,,num_2,2.0050115999765694,num_2,0.3,0.4,0.3,0.8,11.05949,29.49197,return,1.9646903999964707,,,,,,,,,,,,,,,,,717,19,female,left_right_width,2024-10-24_15h50.43.242,exp1,2023.1.0,60.000420013123176,
,,,,,,,,,,,,,,,,4,9.25,9.75,10.25,10.75,0,0.5,0.25,0.25,1.75,10,initial,36.05,333,351,370,388,0,9,9,9,9,0,,,,,,,3,0,3,0,0,33,33,13,,,,,,,,,,,,num_3,1.0635104000102729,num_3,0.35,1,0.35,0.75,12.90274,27.64872,return,2.886484299961012,,,,,,,,,,,,,,,,,717,19,female,left_right_width,2024-10-24_15h50.43.242,exp1,2023.1.0,60.000420013123176,
,,,,,,,,,,,,,,,,5,9,9.5,10,10.5,11,0.5,0.25,0.25,2.25,10,initial,36.05,324,342,361,379,397,9,9,9,9,9,,,,,,,3,0,3,0,0,34,34,19,,,,,,,,,,,,num_5,0.8415085999877192,num_5,0.5,0.7,0.25000000000000006,0.7,9.21624,25.80547,return,3.7614149999571964,,,,,,,,,,,,,,,,,717,19,female,left_right_width,2024-10-24_15h50.43.242,exp1,2023.1.0,60.000420013123176,
,,,,,,,,,,,,,,,,5,9,9.5,10,10.5,11,0.5,0.25,0.25,2.25,10,initial,36.05,324,342,361,379,397,9,9,9,9,9,,,,,,,3,0,3,0,0,35,35,22,,,,,,,,,,,,num_5,0.7917567999684252,num_5,0.3,0.9,0.3,0.7,11.05949,25.80547,return,2.151037500007078,,,,,,,,,,,,,,,,,717,19,female,left_right_width,2024-10-24_15h50.43.242,exp1,2023.1.0,60.000420013123176,
,,,,,,,,,,,,,,,,3,9.5,10,10.5,0,0,0.5,0.25,0.25,1.25,10,initial,36.05,342,361,379,0,0,9,9,9,0,0,,,,,,,3,0,3,0,0,36,36,32,,,,,,,,,,,,num_2,0.9460388000006787,num_2,0.35,1.4,0.35,0.7,12.90274,25.80547,return,3.063685600005556,,,,,,,,,,,,,,,,,717,19,female,left_right_width,2024-10-24_15h50.43.242,exp1,2023.1.0,60.000420013123176,
,,,,,,,,,,,,,,,,4,9.25,9.75,10.25,10.75,0,0.5,0.25,0.25,1.75,10,initial,36.05,333,351,370,388,0,9,9,9,9,0,,,,,,,3,0,3,0,0,37,37,36,,,,,,,,,,,,num_3,0.8456497000297531,num_3,0.4,0.8,0.25000000000000006,0.75,9.21624,27.64872,return,2.315937999985181,,,,,,,,,,,,,,,,,717,19,female,left_right_width,2024-10-24_15h50.43.242,exp1,2023.1.0,60.000420013123176,
,,,,,,,,,,,,,,,,5,9,9.5,10,10.5,11,0.5,0.25,0.25,2.25,10,initial,36.05,324,342,361,379,397,9,9,9,9,9,,,,,,,3,0,3,0,0,38,38,45,,,,,,,,,,,,num_5,0.8884467000025325,num_5,0.45,0.5,0.20000000000000007,0.5,7.37299,18.43248,return,3.267564300040249,,,,,,,,,,,,,,,,,717,19,female,left_right_width,2024-10-24_15h50.43.242,exp1,2023.1.0,60.000420013123176,
,,,,,,,,,,,,,,,,5,9,9.5,10,10.5,11,0.5,0.25,0.25,2.25,10,initial,36.05,324,342,361,379,397,9,9,9,9,9,,,,,,,3,0,3,0,0,39,39,21,,,,,,,,,,,,num_5,1.0802336999913678,num_5,0.35,0.9,0.3,0.6,11.05949,22.11898,return,2.502425000013318,,,,,,,,,,,,,,,,,717,19,female,left_right_width,2024-10-24_15h50.43.242,exp1,2023.1.0,60.000420013123176,
,,,,,,,,,,,,,,,,4,9.25,9.75,10.25,10.75,0,0.5,0.25,0.25,1.75,10,initial,36.05,333,351,370,388,0,9,9,9,9,0,,,,,,,3,0,3,0,0,40,40,17,,,,,,,,,,,,num_3,0.9745565000339411,num_3,0.25,1.2,0.35,0.65,12.90274,23.96222,return,4.736511299968697,,,,,,,,,,,,,,,,,717,19,female,left_right_width,2024-10-24_15h50.43.242,exp1,2023.1.0,60.000420013123176,
,,,,,,,,,,,,,,,,5,9,9.5,10,10.5,11,0.5,0.25,0.25,2.25,10,initial,36.05,324,342,361,379,397,9,9,9,9,9,,,,,,,3,0,3,0,0,41,41,25,,,,,,,,,,,,num_4,0.8640316000091843,num_4,0.2,0.5,0.35,0.7,12.90274,25.80547,return,2.0218045000219718,,,,,,,,,,,,,,,,,717,19,female,left_right_width,2024-10-24_15h50.43.242,exp1,2023.1.0,60.000420013123176,
,,,,,,,,,,,,,,,,3,9.5,10,10.5,0,0,0.5,0.25,0.25,1.25,10,initial,36.05,342,361,379,0,0,9,9,9,0,0,,,,,,,3,0,3,0,0,42,42,28,,,,,,,,,,,,num_2,0.8884139999863692,num_2,0.45,0.8,0.35000000000000003,0.6,12.90274,22.11898,return,3.7155356999719515,,,,,,,,,,,,,,,,,717,19,female,left_right_width,2024-10-24_15h50.43.242,exp1,2023.1.0,60.000420013123176,
,,,,,,,,,,,,,,,,3,9.5,10,10.5,0,0,0.5,0.25,0.25,1.25,10,initial,36.05,342,361,379,0,0,9,9,9,0,0,,,,,,,3,0,3,0,0,43,43,6,,,,,,,,,,,,num_2,1.4631012000027113,num_2,0.2,0.4,0.35,0.6,12.90274,22.11898,return,2.264186700049322,,,,,,,,,,,,,,,,,717,19,female,left_right_width,2024-10-24_15h50.43.242,exp1,2023.1.0,60.000420013123176,
,,,,,,,,,,,,,,,,4,9.25,9.75,10.25,10.75,0,0.5,0.25,0.25,1.75,10,initial,36.05,333,351,370,388,0,9,9,9,9,0,,,,,,,3,0,3,0,0,44,44,10,,,,,,,,,,,,num_3,0.8660205000196584,num_3,0.2,0.4,0.35,0.65,12.90274,23.96222,return,3.402150400041137,,,,,,,,,,,,,,,,,717,19,female,left_right_width,2024-10-24_15h50.43.242,exp1,2023.1.0,60.000420013123176,
,,,,,,,,,,,,,,,,5,9,9.5,10,10.5,11,0.5,0.25,0.25,2.25,10,initial,36.05,324,342,361,379,397,9,9,9,9,9,,,,,,,3,0,3,0,0,45,45,24,,,,,,,,,,,,num_5,0.8634030999965034,num_5,0.4,0.5,0.25000000000000006,0.55,9.21624,20.27573,return,6.516532899986487,,,,,,,,,,,,,,,,,717,19,female,left_right_width,2024-10-24_15h50.43.242,exp1,2023.1.0,60.000420013123176,
,,,,,,,,,,,,,,,,4,9.25,9.75,10.25,10.75,0,0.5,0.25,0.25,1.75,10,initial,36.05,333,351,370,388,0,9,9,9,9,0,,,,,,,3,0,3,0,0,46,46,16,,,,,,,,,,,,num_4,1.0268676000414416,num_4,0.3,1.3,0.3,0.7,11.05949,25.80547,return,3.7816433000261895,,,,,,,,,,,,,,,,,717,19,female,left_right_width,2024-10-24_15h50.43.242,exp1,2023.1.0,60.000420013123176,
,,,,,,,,,,,,,,,,3,9.5,10,10.5,0,0,0.5,0.25,0.25,1.25,10,initial,36.05,342,361,379,0,0,9,9,9,0,0,,,,,,,3,0,3,0,0,47,47,8,,,,,,,,,,,,num_3,0.892215900006704,num_3,0.25,1.1,0.35,0.8,12.90274,29.49197,return,4.528878099983558,,,,,,,,,,,,,,,,,717,19,female,left_right_width,2024-10-24_15h50.43.242,exp1,2023.1.0,60.000420013123176,
,,,,,,,,,,,,,,,,3,9.5,10,10.5,0,0,0.5,0.25,0.25,1.25,10,initial,36.05,342,361,379,0,0,9,9,9,0,0,,,,,,,3,0,3,0,0,48,48,5,,,,,,,,,,,,num_3,1.3371213999926113,num_3,0.35,0.9,0.25,0.7,9.21624,25.80547,return,7.281685099995229,,,,,,,,,,,,,,,,,717,19,female,left_right_width,2024-10-24_15h50.43.242,exp1,2023.1.0,60.000420013123176,
,,,,,,,,,,,,,,,,5,9,9.5,10,10.5,11,0.5,0.25,0.25,2.25,10,initial,36.05,324,342,361,379,397,9,9,9,9,9,,,,,,,3,0,3,0,0,49,49,23,,,,,,,,,,,,num_5,0.9185730000026524,num_5,0.25,0.8,0.35,0.65,12.90274,23.96222,return,2.714063499995973,,,,,,,,,,,,,,,,,717,19,female,left_right_width,2024-10-24_15h50.43.242,exp1,2023.1.0,60.000420013123176,
,,,,,,,,,,,,,,,,3,9.5,10,10.5,0,0,0.5,0.25,0.25,1.25,10,initial,36.05,342,361,379,0,0,9,9,9,0,0,,,,,,,3,0,3,0,0,50,50,33,,,,,,,,,,,,num_3,0.9578066999674775,num_3,0.4,1.1,0.25000000000000006,0.6,9.21624,22.11898,return,12.404893200029619,,,,,,,,,,,,,,,,,717,19,female,left_right_width,2024-10-24_15h50.43.242,exp1,2023.1.0,60.000420013123176,
,,,,,,,,,,,,,,,,5,9,9.5,10,10.5,11,0.5,0.25,0.25,2.25,10,initial,36.05,324,342,361,379,397,9,9,9,9,9,,,,,,,3,0,3,0,0,51,51,20,,,,,,,,,,,,num_5,0.917993699957151,num_5,0.55,1.0,0.30000000000000004,0.75,11.05949,27.64872,return,3.592242199985776,,,,,,,,,,,,,,,,,717,19,female,left_right_width,2024-10-24_15h50.43.242,exp1,2023.1.0,60.000420013123176,
,,,,,,,,,,,,,,,,5,9,9.5,10,10.5,11,0.5,0.25,0.25,2.25,10,initial,36.05,324,342,361,379,397,9,9,9,9,9,,,,,,,3,0,3,0,0,52,52,48,,,,,,,,,,,,num_5,0.849306600051932,num_5,0.4,1.2,0.30000000000000004,0.8,11.05949,29.49197,return,3.292121300008148,,,,,,,,,,,,,,,,,717,19,female,left_right_width,2024-10-24_15h50.43.242,exp1,2023.1.0,60.000420013123176,
,,,,,,,,,,,,,,,,3,9.5,10,10.5,0,0,0.5,0.25,0.25,1.25,10,initial,36.05,342,361,379,0,0,9,9,9,0,0,,,,,,,3,0,3,0,0,53,53,34,,,,,,,,,,,,num_3,1.0734418000211008,num_3,0.35,0.8,0.3,0.8,11.05949,29.49197,return,1.6224700000020675,,,,,,,,,,,,,,,,,717,19,female,left_right_width,2024-10-24_15h50.43.242,exp1,2023.1.0,60.000420013123176,
,,,,,,,,,,,,,,,,,,,,,,,,,,,,,,,,,,,,,,,,,,,,,3,0,3,0,,,,,,,,,,,,,,,,,,,,,,,,,,,,,2306.686822800024,2306.686822800024,2306.686822800024,,,,,,,,,,,,717,19,female,left_right_width,2024-10-24_15h50.43.242,exp1,2023.1.0,60.000420013123176,
,,,,,,,,,,,,,,,,4,8.65,9.55,10.45,11.35,0,0.9,0.35,0.55,3.25,10,initial,36.05,312,344,377,409,0,9,9,9,9,0,,,,,,,4,0,4,0,0,0,0,44,,,,,,,,,,,,num_4,1.6710235999780707,num_4,0.35,1.0,0.49999999999999994,1.0,18.43248,36.86496,return,1.9709178999764845,,,,,,,,,,,,,,,,,717,19,female,left_right_width,2024-10-24_15h50.43.242,exp1,2023.1.0,60.000420013123176,
,,,,,,,,,,,,,,,,4,8.65,9.55,10.45,11.35,0,0.9,0.35,0.55,3.25,10,initial,36.05,312,344,377,409,0,9,9,9,9,0,,,,,,,4,0,4,0,0,1,1,10,,,,,,,,,,,,num_4,0.9654844999895431,num_4,0.5,0.7,0.5,1.2,18.43248,44.23795,return,2.014158000005409,,,,,,,,,,,,,,,,,717,19,female,left_right_width,2024-10-24_15h50.43.242,exp1,2023.1.0,60.000420013123176,
,,,,,,,,,,,,,,,,5,8.2,9.1,10,10.9,11.8,0.9,0.35,0.55,4.15,10,initial,36.05,296,328,361,393,425,9,9,9,9,9,,,,,,,4,0,4,0,0,2,2,49,,,,,,,,,,,,num_5,0.9702487000031397,num_5,0.5,1.3,0.55,1.3,20.27573,47.92445,return,1.6623351000016555,,,,,,,,,,,,,,,,,717,19,female,left_right_width,2024-10-24_15h50.43.242,exp1,2023.1.0,60.000420013123176,
,,,,,,,,,,,,,,,,5,8.2,9.1,10,10.9,11.8,0.9,0.35,0.55,4.15,10,initial,36.05,296,328,361,393,425,9,9,9,9,9,,,,,,,4,0,4,0,0,3,3,52,,,,,,,,,,,,num_5,0.9309215999674052,num_5,0.25,0.6,0.39999999999999997,0.85,14.74598,31.33522,return,3.9177034000167623,,,,,,,,,,,,,,,,,717,19,female,left_right_width,2024-10-24_15h50.43.242,exp1,2023.1.0,60.000420013123176,
,,,,,,,,,,,,,,,,4,8.65,9.55,10.45,11.35,0,0.9,0.35,0.55,3.25,10,initial,36.05,312,344,377,409,0,9,9,9,9,0,,,,,,,4,0,4,0,0,4,4,40,,,,,,,,,,,,num_4,0.9065307999844663,num_4,0.2,0.8,0.39999999999999997,0.9,14.74598,33.17846,return,4.388691500003915,,,,,,,,,,,,,,,,,717,19,female,left_right_width,2024-10-24_15h50.43.242,exp1,2023.1.0,60.000420013123176,
,,,,,,,,,,,,,,,,5,8.2,9.1,10,10.9,11.8,0.9,0.35,0.55,4.15,10,initial,36.05,296,328,361,393,425,9,9,9,9,9,,,,,,,4,0,4,0,0,5,5,46,,,,,,,,,,,,num_5,0.8726915000006557,num_5,0.35,0.4,0.35,0.85,12.90274,31.33522,return,3.2473209000309,,,,,,,,,,,,,,,,,717,19,female,left_right_width,2024-10-24_15h50.43.242,exp1,2023.1.0,60.000420013123176,
,,,,,,,,,,,,,,,,5,8.2,9.1,10,10.9,11.8,0.9,0.35,0.55,4.15,10,initial,36.05,296,328,361,393,425,9,9,9,9,9,,,,,,,4,0,4,0,0,6,6,19,,,,,,,,,,,,num_4,0.8051489000208676,num_4,0.2,0.7,0.49999999999999994,1.0,18.43248,36.86496,return,3.518356300017331,,,,,,,,,,,,,,,,,717,19,female,left_right_width,2024-10-24_15h50.43.242,exp1,2023.1.0,60.000420013123176,
,,,,,,,,,,,,,,,,5,8.2,9.1,10,10.9,11.8,0.9,0.35,0.55,4.15,10,initial,36.05,296,328,361,393,425,9,9,9,9,9,,,,,,,4,0,4,0,0,7,7,50,,,,,,,,,,,,num_4,1.2034899999853224,num_4,0.5,0.7,0.4,0.9,14.74598,33.17846,return,6.542335000005551,,,,,,,,,,,,,,,,,717,19,female,left_right_width,2024-10-24_15h50.43.242,exp1,2023.1.0,60.000420013123176,
,,,,,,,,,,,,,,,,4,8.65,9.55,10.45,11.35,0,0.9,0.35,0.55,3.25,10,initial,36.05,312,344,377,409,0,9,9,9,9,0,,,,,,,4,0,4,0,0,8,8,36,,,,,,,,,,,,num_4,0.998011999996379,num_4,0.5,1.2,0.45,0.8,16.58923,29.49197,return,3.2284154999651946,,,,,,,,,,,,,,,,,717,19,female,left_right_width,2024-10-24_15h50.43.242,exp1,2023.1.0,60.000420013123176,
,,,,,,,,,,,,,,,,3,9.1,10,10.9,0,0,0.9,0.35,0.55,2.35,10,initial,36.05,328,361,393,0,0,9,9,9,0,0,,,,,,,4,0,4,0,0,9,9,7,,,,,,,,,,,,num_3,1.1490684000309557,num_3,0.3,1.3,0.49999999999999994,0.9,18.43248,33.17846,return,3.8658763999701478,,,,,,,,,,,,,,,,,717,19,female,left_right_width,2024-10-24_15h50.43.242,exp1,2023.1.0,60.000420013123176,
,,,,,,,,,,,,,,,,3,9.1,10,10.9,0,0,0.9,0.35,0.55,2.35,10,initial,36.05,328,361,393,0,0,9,9,9,0,0,,,,,,,4,0,4,0,0,10,10,1,,,,,,,,,,,,num_2,0.9251444999827072,num_2,0.55,1.6,0.55,1.6,20.27573,58.98394,return,0.8812466000090353,,,,,,,,,,,,,,,,,717,19,female,left_right_width,2024-10-24_15h50.43.242,exp1,2023.1.0,60.000420013123176,
,,,,,,,,,,,,,,,,3,9.1,10,10.9,0,0,0.9,0.35,0.55,2.35,10,initial,36.05,328,361,393,0,0,9,9,9,0,0,,,,,,,4,0,4,0,0,11,11,4,,,,,,,,,,,,num_2,0.8262312999577262,num_2,0.5,1.0,0.55,1.6,20.27573,58.98394,return,5.1769868999836035,,,,,,,,,,,,,,,,,717,19,female,left_right_width,2024-10-24_15h50.43.242,exp1,2023.1.0,60.000420013123176,
,,,,,,,,,,,,,,,,5,8.2,9.1,10,10.9,11.8,0.9,0.35,0.55,4.15,10,initial,36.05,296,328,361,393,425,9,9,9,9,9,,,,,,,4,0,4,0,0,12,12,22,,,,,,,,,,,,num_5,1.1489725999999791,num_5,0.45,0.8,0.5,1.15,18.43248,42.3947,return,3.0063066999427974,,,,,,,,,,,,,,,,,717,19,female,left_right_width,2024-10-24_15h50.43.242,exp1,2023.1.0,60.000420013123176,
,,,,,,,,,,,,,,,,5,8.2,9.1,10,10.9,11.8,0.9,0.35,0.55,4.15,10,initial,36.05,296,328,361,393,425,9,9,9,9,9,,,,,,,4,0,4,0,0,13,13,23,,,,,,,,,,,,num_5,1.0071382999885827,num_5,0.35,1.2,0.5499999999999999,1.2,20.27573,44.23795,return,1.5057243999908678,,,,,,,,,,,,,,,,,717,19,female,left_right_width,2024-10-24_15h50.43.242,exp1,2023.1.0,60.000420013123176,
,,,,,,,,,,,,,,,,3,9.1,10,10.9,0,0,0.9,0.35,0.55,2.35,10,initial,36.05,328,361,393,0,0,9,9,9,0,0,,,,,,,4,0,4,0,0,14,14,33,,,,,,,,,,,,num_3,0.8020111999940127,num_3,0.4,1,0.45,1.2,16.58923,44.23795,return,2.2332266999874264,,,,,,,,,,,,,,,,,717,19,female,left_right_width,2024-10-24_15h50.43.242,exp1,2023.1.0,60.000420013123176,
,,,,,,,,,,,,,,,,3,9.1,10,10.9,0,0,0.9,0.35,0.55,2.35,10,initial,36.05,328,361,393,0,0,9,9,9,0,0,,,,,,,4,0,4,0,0,15,15,31,,,,,,,,,,,,num_3,0.8159279000246897,num_3,0.2,1.2,0.49999999999999994,1.0,18.43248,36.86496,return,2.8452926999889314,,,,,,,,,,,,,,,,,717,19,female,left_right_width,2024-10-24_15h50.43.242,exp1,2023.1.0,60.000420013123176,
,,,,,,,,,,,,,,,,4,8.65,9.55,10.45,11.35,0,0.9,0.35,0.55,3.25,10,initial,36.05,312,344,377,409,0,9,9,9,9,0,,,,,,,4,0,4,0,0,16,16,14,,,,,,,,,,,,num_3,1.0183737999759614,num_3,0.25,1.1,0.49999999999999994,1.1,18.43248,40.55146,return,3.1822989999782294,,,,,,,,,,,,,,,,,717,19,female,left_right_width,2024-10-24_15h50.43.242,exp1,2023.1.0,60.000420013123176,
,,,,,,,,,,,,,,,,5,8.2,9.1,10,10.9,11.8,0.9,0.35,0.55,4.15,10,initial,36.05,296,328,361,393,425,9,9,9,9,9,,,,,,,4,0,4,0,0,17,17,25,,,,,,,,,,,,num_5,0.9591446000267752,num_5,0.55,1.2,0.6500000000000001,1.1,23.96222,40.55146,return,2.0196605000528507,,,,,,,,,,,,,,,,,717,19,female,left_right_width,2024-10-24_15h50.43.242,exp1,2023.1.0,60.000420013123176,
,,,,,,,,,,,,,,,,5,8.2,9.1,10,10.9,11.8,0.9,0.35,0.55,4.15,10,initial,36.05,296,328,361,393,425,9,9,9,9,9,,,,,,,4,0,4,0,0,18,18,51,,,,,,,,,,,,num_4,1.3253888999461196,num_4,0.25,0.7,0.44999999999999996,1.0,16.58923,36.86496,return,4.435863099992275,,,,,,,,,,,,,,,,,717,19,female,left_right_width,2024-10-24_15h50.43.242,exp1,2023.1.0,60.000420013123176,
,,,,,,,,,,,,,,,,3,9.1,10,10.9,0,0,0.9,0.35,0.55,2.35,10,initial,36.05,328,361,393,0,0,9,9,9,0,0,,,,,,,4,0,4,0,0,19,19,32,,,,,,,,,,,,num_3,0.8350347999949008,num_3,0.5,0.9,0.6000000000000001,1.15,22.11898,42.3947,return,2.60736010002438,,,,,,,,,,,,,,,,,717,19,female,left_right_width,2024-10-24_15h50.43.242,exp1,2023.1.0,60.000420013123176,
,,,,,,,,,,,,,,,,4,8.65,9.55,10.45,11.35,0,0.9,0.35,0.55,3.25,10,initial,36.05,312,344,377,409,0,9,9,9,9,0,,,,,,,4,0,4,0,0,20,20,37,,,,,,,,,,,,num_4,0.9227222999907099,num_4,0.45,1.1,0.5,1.3,18.43248,47.92445,return,1.632894300040789,,,,,,,,,,,,,,,,,717,19,female,left_right_width,2024-10-24_15h50.43.242,exp1,2023.1.0,60.000420013123176,
,,,,,,,,,,,,,,,,3,9.1,10,10.9,0,0,0.9,0.35,0.55,2.35,10,initial,36.05,328,361,393,0,0,9,9,9,0,0,,,,,,,4,0,4,0,0,21,21,35,,,,,,,,,,,,num_3,1.1463381999637932,num_3,0.45,0.5,0.45,1.05,16.58923,38.70821,return,4.631972200004384,,,,,,,,,,,,,,,,,717,19,female,left_right_width,2024-10-24_15h50.43.242,exp1,2023.1.0,60.000420013123176,
,,,,,,,,,,,,,,,,4,8.65,9.55,10.45,11.35,0,0.9,0.35,0.55,3.25,10,initial,36.05,312,344,377,409,0,9,9,9,9,0,,,,,,,4,0,4,0,0,22,22,17,,,,,,,,,,,,num_5,1.0404754999908619,num_5,0.35,0.5,0.44999999999999996,0.85,16.58923,31.33522,return,3.556372700026259,,,,,,,,,,,,,,,,,717,19,female,left_right_width,2024-10-24_15h50.43.242,exp1,2023.1.0,60.000420013123176,
,,,,,,,,,,,,,,,,5,8.2,9.1,10,10.9,11.8,0.9,0.35,0.55,4.15,10,initial,36.05,296,328,361,393,425,9,9,9,9,9,,,,,,,4,0,4,0,0,23,23,20,,,,,,,,,,,,num_5,0.9414664999931119,num_5,0.3,0.8,0.44999999999999996,0.8,16.58923,29.49197,return,2.4657337999669835,,,,,,,,,,,,,,,,,717,19,female,left_right_width,2024-10-24_15h50.43.242,exp1,2023.1.0,60.000420013123176,
,,,,,,,,,,,,,,,,4,8.65,9.55,10.45,11.35,0,0.9,0.35,0.55,3.25,10,initial,36.05,312,344,377,409,0,9,9,9,9,0,,,,,,,4,0,4,0,0,24,24,39,,,,,,,,,,,,num_4,0.9234177999896929,num_4,0.45,1.1,0.55,1.1,20.27573,40.55146,return,2.0813700000289828,,,,,,,,,,,,,,,,,717,19,female,left_right_width,2024-10-24_15h50.43.242,exp1,2023.1.0,60.000420013123176,
,,,,,,,,,,,,,,,,3,9.1,10,10.9,0,0,0.9,0.35,0.55,2.35,10,initial,36.05,328,361,393,0,0,9,9,9,0,0,,,,,,,4,0,4,0,0,25,25,2,,,,,,,,,,,,num_3,1.0393840000033379,num_3,0.45,0.9,0.5,1.1,18.43248,40.55146,return,4.608218699984718,,,,,,,,,,,,,,,,,717,19,female,left_right_width,2024-10-24_15h50.43.242,exp1,2023.1.0,60.000420013123176,
,,,,,,,,,,,,,,,,3,9.1,10,10.9,0,0,0.9,0.35,0.55,2.35,10,initial,36.05,328,361,393,0,0,9,9,9,0,0,,,,,,,4,0,4,0,0,26,26,27,,,,,,,,,,,,num_3,1.2987550999969244,num_3,0.25,0.7,0.39999999999999997,0.9,14.74598,33.17846,return,6.445613600022625,,,,,,,,,,,,,,,,,717,19,female,left_right_width,2024-10-24_15h50.43.242,exp1,2023.1.0,60.000420013123176,
,,,,,,,,,,,,,,,,3,9.1,10,10.9,0,0,0.9,0.35,0.55,2.35,10,initial,36.05,328,361,393,0,0,9,9,9,0,0,,,,,,,4,0,4,0,0,27,27,8,,,,,,,,,,,,num_3,1.1246046000160277,num_3,0.5,0.6,0.45,0.8,16.58923,29.49197,return,3.5568437000038102,,,,,,,,,,,,,,,,,717,19,female,left_right_width,2024-10-24_15h50.43.242,exp1,2023.1.0,60.000420013123176,
,,,,,,,,,,,,,,,,4,8.65,9.55,10.45,11.35,0,0.9,0.35,0.55,3.25,10,initial,36.05,312,344,377,409,0,9,9,9,9,0,,,,,,,4,0,4,0,0,28,28,42,,,,,,,,,,,,num_4,1.0770323000033386,num_4,0.35,0.5,0.35,0.9,12.90274,33.17846,return,4.119721399969421,,,,,,,,,,,,,,,,,717,19,female,left_right_width,2024-10-24_15h50.43.242,exp1,2023.1.0,60.000420013123176,
,,,,,,,,,,,,,,,,3,9.1,10,10.9,0,0,0.9,0.35,0.55,2.35,10,initial,36.05,328,361,393,0,0,9,9,9,0,0,,,,,,,4,0,4,0,0,29,29,29,,,,,,,,,,,,num_3,1.1163205999764614,num_3,0.4,1.2,0.5,1.2,18.43248,44.23795,return,2.522376099950634,,,,,,,,,,,,,,,,,717,19,female,left_right_width,2024-10-24_15h50.43.242,exp1,2023.1.0,60.000420013123176,
,,,,,,,,,,,,,,,,3,9.1,10,10.9,0,0,0.9,0.35,0.55,2.35,10,initial,36.05,328,361,393,0,0,9,9,9,0,0,,,,,,,4,0,4,0,0,30,30,6,,,,,,,,,,,,num_3,1.0640188999823295,num_3,0.2,1.2,0.49999999999999994,1.1,18.43248,40.55146,return,4.373592199990526,,,,,,,,,,,,,,,,,717,19,female,left_right_width,2024-10-24_15h50.43.242,exp1,2023.1.0,60.000420013123176,
,,,,,,,,,,,,,,,,4,8.65,9.55,10.45,11.35,0,0.9,0.35,0.55,3.25,10,initial,36.05,312,344,377,409,0,9,9,9,9,0,,,,,,,4,0,4,0,0,31,31,15,,,,,,,,,,,,num_4,1.0247539999545552,num_4,0.25,0.3,0.35,0.7,12.90274,25.80547,return,3.4589166000369005,,,,,,,,,,,,,,,,,717,19,female,left_right_width,2024-10-24_15h50.43.242,exp1,2023.1.0,60.000420013123176,
,,,,,,,,,,,,,,,,3,9.1,10,10.9,0,0,0.9,0.35,0.55,2.35,10,initial,36.05,328,361,393,0,0,9,9,9,0,0,,,,,,,4,0,4,0,0,32,32,34,,,,,,,,,,,,num_3,0.8514770999900065,num_3,0.45,1.2,0.5,0.9,18.43248,33.17846,return,2.459705399989616,,,,,,,,,,,,,,,,,717,19,female,left_right_width,2024-10-24_15h50.43.242,exp1,2023.1.0,60.000420013123176,
,,,,,,,,,,,,,,,,4,8.65,9.55,10.45,11.35,0,0.9,0.35,0.55,3.25,10,initial,36.05,312,344,377,409,0,9,9,9,9,0,,,,,,,4,0,4,0,0,33,33,11,,,,,,,,,,,,num_4,1.142671599984169,num_4,0.55,1.3,0.45,0.8,16.58923,29.49197,return,2.534832599980291,,,,,,,,,,,,,,,,,717,19,female,left_right_width,2024-10-24_15h50.43.242,exp1,2023.1.0,60.000420013123176,
,,,,,,,,,,,,,,,,4,8.65,9.55,10.45,11.35,0,0.9,0.35,0.55,3.25,10,initial,36.05,312,344,377,409,0,9,9,9,9,0,,,,,,,4,0,4,0,0,34,34,16,,,,,,,,,,,,num_4,1.0120956000173464,num_4,0.55,1.2,0.45,0.8,16.58923,29.49197,return,5.159668500011321,,,,,,,,,,,,,,,,,717,19,female,left_right_width,2024-10-24_15h50.43.242,exp1,2023.1.0,60.000420013123176,
,,,,,,,,,,,,,,,,4,8.65,9.55,10.45,11.35,0,0.9,0.35,0.55,3.25,10,initial,36.05,312,344,377,409,0,9,9,9,9,0,,,,,,,4,0,4,0,0,35,35,43,,,,,,,,,,,,num_5,0.9173710000468418,num_5,0.2,0.4,0.39999999999999997,0.7,14.74598,25.80547,return,3.7102025999920443,,,,,,,,,,,,,,,,,717,19,female,left_right_width,2024-10-24_15h50.43.242,exp1,2023.1.0,60.000420013123176,
,,,,,,,,,,,,,,,,4,8.65,9.55,10.45,11.35,0,0.9,0.35,0.55,3.25,10,initial,36.05,312,344,377,409,0,9,9,9,9,0,,,,,,,4,0,4,0,0,36,36,12,,,,,,,,,,,,num_5,0.9417474999791011,num_5,0.5,1.0,0.30000000000000004,0.7,11.05949,25.80547,return,5.248379800003022,,,,,,,,,,,,,,,,,717,19,female,left_right_width,2024-10-24_15h50.43.242,exp1,2023.1.0,60.000420013123176,
,,,,,,,,,,,,,,,,5,8.2,9.1,10,10.9,11.8,0.9,0.35,0.55,4.15,10,initial,36.05,296,328,361,393,425,9,9,9,9,9,,,,,,,4,0,4,0,0,37,37,45,,,,,,,,,,,,num_5,0.962084099999629,num_5,0.3,0.5,0.35,0.75,12.90274,27.64872,return,2.6797289999667555,,,,,,,,,,,,,,,,,717,19,female,left_right_width,2024-10-24_15h50.43.242,exp1,2023.1.0,60.000420013123176,
,,,,,,,,,,,,,,,,3,9.1,10,10.9,0,0,0.9,0.35,0.55,2.35,10,initial,36.05,328,361,393,0,0,9,9,9,0,0,,,,,,,4,0,4,0,0,38,38,30,,,,,,,,,,,,num_2,1.192564599972684,num_2,0.25,0.6,0.44999999999999996,0.8,16.58923,29.49197,return,6.865560200007167,,,,,,,,,,,,,,,,,717,19,female,left_right_width,2024-10-24_15h50.43.242,exp1,2023.1.0,60.000420013123176,
,,,,,,,,,,,,,,,,5,8.2,9.1,10,10.9,11.8,0.9,0.35,0.55,4.15,10,initial,36.05,296,328,361,393,425,9,9,9,9,9,,,,,,,4,0,4,0,0,39,39,24,,,,,,,,,,,,num_5,1.1493128999718465,num_5,0.3,0.5,0.35,0.8,12.90274,29.49197,return,3.980364000017289,,,,,,,,,,,,,,,,,717,19,female,left_right_width,2024-10-24_15h50.43.242,exp1,2023.1.0,60.000420013123176,
,,,,,,,,,,,,,,,,3,9.1,10,10.9,0,0,0.9,0.35,0.55,2.35,10,initial,36.05,328,361,393,0,0,9,9,9,0,0,,,,,,,4,0,4,0,0,40,40,5,,,,,,,,,,,,num_2,1.1011325999861583,num_2,0.35,1.4,0.49999999999999994,0.8,18.43248,29.49197,return,3.7228752999799326,,,,,,,,,,,,,,,,,717,19,female,left_right_width,2024-10-24_15h50.43.242,exp1,2023.1.0,60.000420013123176,
,,,,,,,,,,,,,,,,3,9.1,10,10.9,0,0,0.9,0.35,0.55,2.35,10,initial,36.05,328,361,393,0,0,9,9,9,0,0,,,,,,,4,0,4,0,0,41,41,3,,,,,,,,,,,,num_2,1.202786499983631,num_2,0.25,1.2,0.49999999999999994,0.7,18.43248,25.80547,return,4.028703499992844,,,,,,,,,,,,,,,,,717,19,female,left_right_width,2024-10-24_15h50.43.242,exp1,2023.1.0,60.000420013123176,
,,,,,,,,,,,,,,,,4,8.65,9.55,10.45,11.35,0,0.9,0.35,0.55,3.25,10,initial,36.05,312,344,377,409,0,9,9,9,9,0,,,,,,,4,0,4,0,0,42,42,9,,,,,,,,,,,,num_4,0.9308337999973446,num_4,0.3,0.6,0.39999999999999997,0.8,14.74598,29.49197,return,3.948695199971553,,,,,,,,,,,,,,,,,717,19,female,left_right_width,2024-10-24_15h50.43.242,exp1,2023.1.0,60.000420013123176,
,,,,,,,,,,,,,,,,4,8.65,9.55,10.45,11.35,0,0.9,0.35,0.55,3.25,10,initial,36.05,312,344,377,409,0,9,9,9,9,0,,,,,,,4,0,4,0,0,43,43,38,,,,,,,,,,,,num_4,0.815967999980785,num_4,0.55,0.9,0.55,0.9,20.27573,33.17846,return,0.9261044000159018,,,,,,,,,,,,,,,,,717,19,female,left_right_width,2024-10-24_15h50.43.242,exp1,2023.1.0,60.000420013123176,
,,,,,,,,,,,,,,,,5,8.2,9.1,10,10.9,11.8,0.9,0.35,0.55,4.15,10,initial,36.05,296,328,361,393,425,9,9,9,9,9,,,,,,,4,0,4,0,0,44,44,26,,,,,,,,,,,,num_5,0.8705136999487877,num_5,0.35,0.4,0.35,0.7,12.90274,25.80547,return,2.290074000018649,,,,,,,,,,,,,,,,,717,19,female,left_right_width,2024-10-24_15h50.43.242,exp1,2023.1.0,60.000420013123176,
,,,,,,,,,,,,,,,,4,8.65,9.55,10.45,11.35,0,0.9,0.35,0.55,3.25,10,initial,36.05,312,344,377,409,0,9,9,9,9,0,,,,,,,4,0,4,0,0,45,45,41,,,,,,,,,,,,num_4,0.7983231999678537,num_4,0.2,0.8,0.39999999999999997,0.8,14.74598,29.49197,return,2.3491432999726385,,,,,,,,,,,,,,,,,717,19,female,left_right_width,2024-10-24_15h50.43.242,exp1,2023.1.0,60.000420013123176,
,,,,,,,,,,,,,,,,3,9.1,10,10.9,0,0,0.9,0.35,0.55,2.35,10,initial,36.05,328,361,393,0,0,9,9,9,0,0,,,,,,,4,0,4,0,0,46,46,28,,,,,,,,,,,,num_3,1.4591676000272855,num_3,0.3,1.2,0.44999999999999996,0.85,16.58923,31.33522,return,3.201006299990695,,,,,,,,,,,,,,,,,717,19,female,left_right_width,2024-10-24_15h50.43.242,exp1,2023.1.0,60.000420013123176,
,,,,,,,,,,,,,,,,5,8.2,9.1,10,10.9,11.8,0.9,0.35,0.55,4.15,10,initial,36.05,296,328,361,393,425,9,9,9,9,9,,,,,,,4,0,4,0,0,47,47,48,,,,,,,,,,,,num_5,0.8413914000266232,num_5,0.5,0.7,0.5,1.0,18.43248,36.86496,return,1.9256500999908894,,,,,,,,,,,,,,,,,717,19,female,left_right_width,2024-10-24_15h50.43.242,exp1,2023.1.0,60.000420013123176,
,,,,,,,,,,,,,,,,4,8.65,9.55,10.45,11.35,0,0.9,0.35,0.55,3.25,10,initial,36.05,312,344,377,409,0,9,9,9,9,0,,,,,,,4,0,4,0,0,48,48,13,,,,,,,,,,,,num_4,0.807103700004518,num_4,0.4,1.3,0.55,0.9,20.27573,33.17846,return,3.5877526000258513,,,,,,,,,,,,,,,,,717,19,female,left_right_width,2024-10-24_15h50.43.242,exp1,2023.1.0,60.000420013123176,
,,,,,,,,,,,,,,,,5,8.2,9.1,10,10.9,11.8,0.9,0.35,0.55,4.15,10,initial,36.05,296,328,361,393,425,9,9,9,9,9,,,,,,,4,0,4,0,0,49,49,21,,,,,,,,,,,,num_5,1.0173595999949612,num_5,0.2,0.9,0.39999999999999997,0.8,14.74598,29.49197,return,3.9802535999915563,,,,,,,,,,,,,,,,,717,19,female,left_right_width,2024-10-24_15h50.43.242,exp1,2023.1.0,60.000420013123176,
,,,,,,,,,,,,,,,,5,8.2,9.1,10,10.9,11.8,0.9,0.35,0.55,4.15,10,initial,36.05,296,328,361,393,425,9,9,9,9,9,,,,,,,4,0,4,0,0,50,50,18,,,,,,,,,,,,num_5,1.3316541999811307,num_5,0.2,0.5,0.39999999999999997,0.65,14.74598,23.96222,return,5.178983699996024,,,,,,,,,,,,,,,,,717,19,female,left_right_width,2024-10-24_15h50.43.242,exp1,2023.1.0,60.000420013123176,
,,,,,,,,,,,,,,,,5,8.2,9.1,10,10.9,11.8,0.9,0.35,0.55,4.15,10,initial,36.05,296,328,361,393,425,9,9,9,9,9,,,,,,,4,0,4,0,0,51,51,47,,,,,,,,,,,,num_5,0.9591562999994494,num_5,0.5,0.7,0.30000000000000004,0.7,11.05949,25.80547,return,3.5916726000141352,,,,,,,,,,,,,,,,,717,19,female,left_right_width,2024-10-24_15h50.43.242,exp1,2023.1.0,60.000420013123176,
,,,,,,,,,,,,,,,,5,8.2,9.1,10,10.9,11.8,0.9,0.35,0.55,4.15,10,initial,36.05,296,328,361,393,425,9,9,9,9,9,,,,,,,4,0,4,0,0,52,52,53,,,,,,,,,,,,num_5,1.049276900012046,num_5,0.5,1.1,0.35000000000000003,0.8,12.90274,29.49197,return,3.4539894000045024,,,,,,,,,,,,,,,,,717,19,female,left_right_width,2024-10-24_15h50.43.242,exp1,2023.1.0,60.000420013123176,
,,,,,,,,,,,,,,,,3,9.1,10,10.9,0,0,0.9,0.35,0.55,2.35,10,initial,36.05,328,361,393,0,0,9,9,9,0,0,,,,,,,4,0,4,0,0,53,53,0,,,,,,,,,,,,num_2,1.1730245999642648,num_2,0.3,1.2,0.49999999999999994,0.8,18.43248,29.49197,return,3.492256700003054,,,,,,,,,,,,,,,,,717,19,female,left_right_width,2024-10-24_15h50.43.242,exp1,2023.1.0,60.000420013123176,
,,,,,,,,,,,,,,,,,,,,,,,,,,,,,,,,,,,,,,,,,,,,,4,0,4,0,,,,,,,,,,,,,,,,,,,,,,,,,,,,,2677.385975000041,2677.385975000041,2677.385975000041,,,,,,,,,,,,717,19,female,left_right_width,2024-10-24_15h50.43.242,exp1,2023.1.0,60.000420013123176,
,,,,,,,,,,,,,,,,4,9.25,9.75,10.25,10.75,0,0.5,0.1,0.4,1.9000000000000001,10,initial,36.05,333,351,370,388,0,9,9,9,9,0,,,,,,,5,0,5,0,0,0,0,9,,,,,,,,,,,,num_3,1.6082352999947034,num_3,0.2,1,0.39999999999999997,0.7,14.74598,25.80547,return,3.591037400008645,,,,,,,,,,,,,,,,,717,19,female,left_right_width,2024-10-24_15h50.43.242,exp1,2023.1.0,60.000420013123176,
,,,,,,,,,,,,,,,,4,9.25,9.75,10.25,10.75,0,0.5,0.1,0.4,1.9000000000000001,10,initial,36.05,333,351,370,388,0,9,9,9,9,0,,,,,,,5,0,5,0,0,1,1,41,,,,,,,,,,,,num_3,1.0219559000106528,num_3,0.25,1,0.3,0.55,11.05949,20.27573,return,3.2846527000074275,,,,,,,,,,,,,,,,,717,19,female,left_right_width,2024-10-24_15h50.43.242,exp1,2023.1.0,60.000420013123176,
,,,,,,,,,,,,,,,,3,9.5,10,10.5,0,0,0.5,0.1,0.4,1.4000000000000001,10,initial,36.05,342,361,379,0,0,9,9,9,0,0,,,,,,,5,0,5,0,0,2,2,34,,,,,,,,,,,,num_3,1.6709635999868624,num_3,0.45,1.1,0.30000000000000004,0.6,11.05949,22.11898,return,3.780480399960652,,,,,,,,,,,,,,,,,717,19,female,left_right_width,2024-10-24_15h50.43.242,exp1,2023.1.0,60.000420013123176,
,,,,,,,,,,,,,,,,3,9.5,10,10.5,0,0,0.5,0.1,0.4,1.4000000000000001,10,initial,36.05,342,361,379,0,0,9,9,9,0,0,,,,,,,5,0,5,0,0,3,3,4,,,,,,,,,,,,num_3,0.8685098999994807,num_3,0.4,0.9,0.30000000000000004,0.6,11.05949,22.11898,return,3.342883199977223,,,,,,,,,,,,,,,,,717,19,female,left_right_width,2024-10-24_15h50.43.242,exp1,2023.1.0,60.000420013123176,
,,,,,,,,,,,,,,,,5,9,9.5,10,10.5,11,0.5,0.1,0.4,2.4,10,initial,36.05,324,342,361,379,397,9,9,9,9,9,,,,,,,5,0,5,0,0,4,4,19,,,,,,,,,,,,num_4,1.0432059000013396,num_4,0.2,0.4,0.35,0.6,12.90274,22.11898,return,2.69740839995211,,,,,,,,,,,,,,,,,717,19,female,left_right_width,2024-10-24_15h50.43.242,exp1,2023.1.0,60.000420013123176,
,,,,,,,,,,,,,,,,5,9,9.5,10,10.5,11,0.5,0.1,0.4,2.4,10,initial,36.05,324,342,361,379,397,9,9,9,9,9,,,,,,,5,0,5,0,0,5,5,21,,,,,,,,,,,,num_5,1.1240856999647804,num_5,0.3,0.9,0.35,0.65,12.90274,23.96222,return,4.9950501000275835,,,,,,,,,,,,,,,,,717,19,female,left_right_width,2024-10-24_15h50.43.242,exp1,2023.1.0,60.000420013123176,
,,,,,,,,,,,,,,,,4,9.25,9.75,10.25,10.75,0,0.5,0.1,0.4,1.9000000000000001,10,initial,36.05,333,351,370,388,0,9,9,9,9,0,,,,,,,5,0,5,0,0,6,6,44,,,,,,,,,,,,num_4,0.9493369999690913,num_4,0.35,1.3,0.3,0.7,11.05949,25.80547,return,6.310980900016148,,,,,,,,,,,,,,,,,717,19,female,left_right_width,2024-10-24_15h50.43.242,exp1,2023.1.0,60.000420013123176,
,,,,,,,,,,,,,,,,4,9.25,9.75,10.25,10.75,0,0.5,0.1,0.4,1.9000000000000001,10,initial,36.05,333,351,370,388,0,9,9,9,9,0,,,,,,,5,0,5,0,0,7,7,40,,,,,,,,,,,,num_4,1.3225811999873258,num_4,0.4,1.1,0.30000000000000004,0.4,11.05949,14.74598,return,4.2270427999901585,,,,,,,,,,,,,,,,,717,19,female,left_right_width,2024-10-24_15h50.43.242,exp1,2023.1.0,60.000420013123176,
