amount_p,posx1_p,posx2_p,posx3_p,posx4_p,posx5_p,center_to_center_p,edge_to_edge_p,w_p,stim_length_p,eccentricity_p,line1_p,line2_p,line3_p,line4_p,line5_p,amount,posx1,posx2,posx3,posx4,posx5,center_to_center,edge_to_edge,w,stim_length,eccentricity,trial_type,deg_to_pix_index,posx1_in_pix,posx2_in_pix,posx3_in_pix,posx4_in_pix,posx5_in_pix,line1,line2,line3,line4,line5,posx,setsize_cobdi,trials.thisRepN,trials.thisTrialN,trials.thisN,trials.thisIndex,blocks.thisRepN,blocks.thisTrialN,blocks.thisN,blocks.thisIndex,loop.thisRepN,loop.thisTrialN,loop.thisN,loop.thisIndex,first.thisRepN,first.thisTrialN,first.thisN,first.thisIndex,second.thisRepN,second.thisTrialN,second.thisN,second.thisIndex,key_resp_3.started,key_resp_3.keys,key_resp_3.rt,key_resp.keys,key_resp.rt,response,starting_width_deg,starting_space_deg,response_width_degree,response_spacing_degree,response_width_pixel,response_spacing_pixel,next_5.keys,next_5.rt,key_resp_4.keys,key_resp_4.rt,text_3.started,text_4.started,key_resp_2.started,text_2.started,key_resp_2.keys,key_resp_2.rt,adjusting.started,next.keys,next.rt,text_control2.started,key_resp.started,key_resp.corr,text_bye.started,text_bye.stopped,participant,age,gender,resp_group,date,expName,psychopyVersion,frameRate,
,,,,,,,,,,,,,,,,,,,,,,,,,,,,,,,,,,,,,,,,,,,,,,,,,,,,,,,,,,,,,39.918362100142986,c,182.1108486999292,,,,,,,,,,,,,,,,,,,,,,,,,,,,918,19,female,up_down_width,2024-10-30_13h37.15.313,exp1,2023.1.0,60.113205238325584,
3,9.5,10,10.5,0,0,0.5,0.25,0.25,1.25,10,9,9,9,0,0,,,,,,,,,,,,,,,,,,,,,,,,,,0,0,0,0,,,,,,,,,,,,,,,,,,,,num_3,3.362658299971372,num_3,0.35,0.8,0.10000000000000002,0.8,3.82055,30.5644,return,6.983216299908236,,,,,,,,,,,,,,,,,918,19,female,up_down_width,2024-10-30_13h37.15.313,exp1,2023.1.0,60.113205238325584,
4,9.25,9.75,10.25,10.75,0,0.5,0.25,0.25,1.75,10,9,9,9,9,0,,,,,,,,,,,,,,,,,,,,,,,,,,0,1,1,1,,,,,,,,,,,,,,,,,,,,num_4,2.1826124996878207,num_4,0.5,1.0,0.10000000000000007,1.0,3.82055,38.2055,return,6.2478173999115825,,,,,,,,,,,,,,,,,918,19,female,up_down_width,2024-10-30_13h37.15.313,exp1,2023.1.0,60.113205238325584,
4,9.25,9.75,10.25,10.75,0,0.5,0.1,0.4,1.9000000000000001,10,9,9,9,9,0,,,,,,,,,,,,,,,,,,,,,,,,,,0,2,2,4,,,,,,,,,,,,,,,,,,,,num_4,2.0715938999783248,num_4,0.55,1.1,0.5,1.1,19.10275,42.02605,return,3.518776999786496,,,,,,,,,,,,,,,,,918,19,female,up_down_width,2024-10-30_13h37.15.313,exp1,2023.1.0,60.113205238325584,
3,9.1,10,10.9,0,0,0.9,0.35,0.55,2.35,10,9,9,9,0,0,,,,,,,,,,,,,,,,,,,,,,,,,,0,3,3,3,,,,,,,,,,,,,,,,,,,,num_3,1.9777291999198496,num_3,0.25,0.4,0.35,0.4,13.37193,15.2822,return,4.4085829998366535,,,,,,,,,,,,,,,,,918,19,female,up_down_width,2024-10-30_13h37.15.313,exp1,2023.1.0,60.113205238325584,
5,9,9.5,10,10.5,11,0.5,0.1,0.4,2.4,10,9,9,9,9,9,,,,,,,,,,,,,,,,,,,,,,,,,,0,4,4,5,,,,,,,,,,,,,,,,,,,,num_3,2.3699625998269767,num_3,0.35,1.2,0.65,1.2,24.83358,45.8466,return,4.091061899904162,,,,,,,,,,,,,,,,,918,19,female,up_down_width,2024-10-30_13h37.15.313,exp1,2023.1.0,60.113205238325584,
5,8.2,9.1,10,10.9,11.8,0.9,0.35,0.55,4.15,10,9,9,9,9,9,,,,,,,,,,,,,,,,,,,,,,,,,,0,5,5,2,,,,,,,,,,,,,,,,,,,,num_5,1.9918700000271201,num_5,0.4,0.8,0.45,0.8,17.19248,30.5644,return,3.0079895998351276,,,,,,,,,,,,,,,,,918,19,female,up_down_width,2024-10-30_13h37.15.313,exp1,2023.1.0,60.113205238325584,
,,,,,,,,,,,,,,,,,,,,,,,,,,,,,,,,,,,,,,,,,,,,,,,,,,,,,,,,,,,,,,,,,,,,,,,,,,,c,85.05185249983333,,,,,,,,,,,,,,,918,19,female,up_down_width,2024-10-30_13h37.15.313,exp1,2023.1.0,60.113205238325584,
,,,,,,,,,,,,,,,,4,9.25,9.75,10.25,10.75,0,0.5,0.25,0.25,1.75,10,initial,36.05,333,351,370,388,0,9,9,9,9,0,,,,,,,0,0,0,0,0,0,0,17,,,,,,,,,,,,num_6,2.591075899777934,num_6,0.4,0.5,0.10000000000000007,0.5,3.82055,19.10275,return,7.5898051999975,,,,,,,,,,,,,,,,,918,19,female,up_down_width,2024-10-30_13h37.15.313,exp1,2023.1.0,60.113205238325584,
,,,,,,,,,,,,,,,,3,9.5,10,10.5,0,0,0.5,0.25,0.25,1.25,10,initial,36.05,342,361,379,0,0,9,9,9,0,0,,,,,,,0,0,0,0,0,1,1,32,,,,,,,,,,,,num_3,1.2796896998770535,num_3,0.5,1.1,0.20000000000000007,1.1,7.6411,42.02605,return,3.7323031998239458,,,,,,,,,,,,,,,,,918,19,female,up_down_width,2024-10-30_13h37.15.313,exp1,2023.1.0,60.113205238325584,
,,,,,,,,,,,,,,,,3,9.5,10,10.5,0,0,0.5,0.25,0.25,1.25,10,initial,36.05,342,361,379,0,0,9,9,9,0,0,,,,,,,0,0,0,0,0,2,2,6,,,,,,,,,,,,num_3,1.1450351998209953,num_3,0.4,0.7,0.25000000000000006,0.7,9.55138,26.74385,return,2.5178400999866426,,,,,,,,,,,,,,,,,918,19,female,up_down_width,2024-10-30_13h37.15.313,exp1,2023.1.0,60.113205238325584,
,,,,,,,,,,,,,,,,5,9,9.5,10,10.5,11,0.5,0.25,0.25,2.25,10,initial,36.05,324,342,361,379,397,9,9,9,9,9,,,,,,,0,0,0,0,0,3,3,49,,,,,,,,,,,,num_5,1.1482960998546332,num_5,0.35,0.7,0.15000000000000002,0.7,5.73083,26.74385,return,3.4483528998680413,,,,,,,,,,,,,,,,,918,19,female,up_down_width,2024-10-30_13h37.15.313,exp1,2023.1.0,60.113205238325584,
,,,,,,,,,,,,,,,,4,9.25,9.75,10.25,10.75,0,0.5,0.25,0.25,1.75,10,initial,36.05,333,351,370,388,0,9,9,9,9,0,,,,,,,0,0,0,0,0,4,4,12,,,,,,,,,,,,num_4,2.1329816998913884,num_4,0.3,0.8,0.2,0.8,7.6411,30.5644,return,2.14173059980385,,,,,,,,,,,,,,,,,918,19,female,up_down_width,2024-10-30_13h37.15.313,exp1,2023.1.0,60.113205238325584,
,,,,,,,,,,,,,,,,5,9,9.5,10,10.5,11,0.5,0.25,0.25,2.25,10,initial,36.05,324,342,361,379,397,9,9,9,9,9,,,,,,,0,0,0,0,0,5,5,20,,,,,,,,,,,,num_5,1.1576898000203073,num_5,0.45,1.0,0.25000000000000006,1.0,9.55138,38.2055,return,2.39628340001218,,,,,,,,,,,,,,,,,918,19,female,up_down_width,2024-10-30_13h37.15.313,exp1,2023.1.0,60.113205238325584,
,,,,,,,,,,,,,,,,5,9,9.5,10,10.5,11,0.5,0.25,0.25,2.25,10,initial,36.05,324,342,361,379,397,9,9,9,9,9,,,,,,,0,0,0,0,0,6,6,26,,,,,,,,,,,,num_6,1.401079999981448,num_6,0.35,1.2,0.15000000000000002,1.2,5.73083,45.8466,return,4.939510799944401,,,,,,,,,,,,,,,,,918,19,female,up_down_width,2024-10-30_13h37.15.313,exp1,2023.1.0,60.113205238325584,
,,,,,,,,,,,,,,,,5,9,9.5,10,10.5,11,0.5,0.25,0.25,2.25,10,initial,36.05,324,342,361,379,397,9,9,9,9,9,,,,,,,0,0,0,0,0,7,7,53,,,,,,,,,,,,num_5,1.5112425999250263,num_5,0.35,0.8,0.25,0.75,9.55138,28.65413,return,4.794091899879277,,,,,,,,,,,,,,,,,918,19,female,up_down_width,2024-10-30_13h37.15.313,exp1,2023.1.0,60.113205238325584,
,,,,,,,,,,,,,,,,3,9.5,10,10.5,0,0,0.5,0.25,0.25,1.25,10,initial,36.05,342,361,379,0,0,9,9,9,0,0,,,,,,,0,0,0,0,0,8,8,31,,,,,,,,,,,,num_3,1.6557901999913156,num_3,0.45,0.7,0.30000000000000004,0.65,11.46165,24.83358,return,7.544409799855202,,,,,,,,,,,,,,,,,918,19,female,up_down_width,2024-10-30_13h37.15.313,exp1,2023.1.0,60.113205238325584,
,,,,,,,,,,,,,,,,3,9.5,10,10.5,0,0,0.5,0.25,0.25,1.25,10,initial,36.05,342,361,379,0,0,9,9,9,0,0,,,,,,,0,0,0,0,0,9,9,1,,,,,,,,,,,,num_3,1.325126700103283,num_3,0.4,0.9,0.30000000000000004,0.8,11.46165,30.5644,return,3.1712090999353677,,,,,,,,,,,,,,,,,918,19,female,up_down_width,2024-10-30_13h37.15.313,exp1,2023.1.0,60.113205238325584,
,,,,,,,,,,,,,,,,4,9.25,9.75,10.25,10.75,0,0.5,0.25,0.25,1.75,10,initial,36.05,333,351,370,388,0,9,9,9,9,0,,,,,,,0,0,0,0,0,10,10,16,,,,,,,,,,,,num_3,1.2110673999413848,num_3,0.2,1,0.3,0.55,11.46165,21.01303,return,6.256741899764165,,,,,,,,,,,,,,,,,918,19,female,up_down_width,2024-10-30_13h37.15.313,exp1,2023.1.0,60.113205238325584,
,,,,,,,,,,,,,,,,5,9,9.5,10,10.5,11,0.5,0.25,0.25,2.25,10,initial,36.05,324,342,361,379,397,9,9,9,9,9,,,,,,,0,0,0,0,0,11,11,23,,,,,,,,,,,,num_4,1.252889599883929,num_4,0.45,0.9,0.25000000000000006,0.5,9.55138,19.10275,return,5.458396099740639,,,,,,,,,,,,,,,,,918,19,female,up_down_width,2024-10-30_13h37.15.313,exp1,2023.1.0,60.113205238325584,
,,,,,,,,,,,,,,,,3,9.5,10,10.5,0,0,0.5,0.25,0.25,1.25,10,initial,36.05,342,361,379,0,0,9,9,9,0,0,,,,,,,0,0,0,0,0,12,12,3,,,,,,,,,,,,num_3,1.003499699756503,num_3,0.3,1.1,0.35,0.7,13.37193,26.74385,return,5.346267499960959,,,,,,,,,,,,,,,,,918,19,female,up_down_width,2024-10-30_13h37.15.313,exp1,2023.1.0,60.113205238325584,
,,,,,,,,,,,,,,,,4,9.25,9.75,10.25,10.75,0,0.5,0.25,0.25,1.75,10,initial,36.05,333,351,370,388,0,9,9,9,9,0,,,,,,,0,0,0,0,0,13,13,15,,,,,,,,,,,,num_4,1.5328631999436766,num_4,0.55,0.9,0.30000000000000004,0.7,11.46165,26.74385,return,3.8659099000506103,,,,,,,,,,,,,,,,,918,19,female,up_down_width,2024-10-30_13h37.15.313,exp1,2023.1.0,60.113205238325584,
,,,,,,,,,,,,,,,,3,9.5,10,10.5,0,0,0.5,0.25,0.25,1.25,10,initial,36.05,342,361,379,0,0,9,9,9,0,0,,,,,,,0,0,0,0,0,14,14,35,,,,,,,,,,,,num_3,1.0774344999808818,num_3,0.2,0.5,0.25,0.5,9.55138,19.10275,return,2.0724175998475403,,,,,,,,,,,,,,,,,918,19,female,up_down_width,2024-10-30_13h37.15.313,exp1,2023.1.0,60.113205238325584,
,,,,,,,,,,,,,,,,5,9,9.5,10,10.5,11,0.5,0.25,0.25,2.25,10,initial,36.05,324,342,361,379,397,9,9,9,9,9,,,,,,,0,0,0,0,0,15,15,51,,,,,,,,,,,,num_5,1.1344647998921573,num_5,0.25,1.1,0.3,0.65,11.46165,24.83358,return,4.028730699792504,,,,,,,,,,,,,,,,,918,19,female,up_down_width,2024-10-30_13h37.15.313,exp1,2023.1.0,60.113205238325584,
,,,,,,,,,,,,,,,,3,9.5,10,10.5,0,0,0.5,0.25,0.25,1.25,10,initial,36.05,342,361,379,0,0,9,9,9,0,0,,,,,,,0,0,0,0,0,16,16,30,,,,,,,,,,,,num_3,0.9788420998957008,num_3,0.35,1.2,0.3,0.65,11.46165,24.83358,return,5.381538499845192,,,,,,,,,,,,,,,,,918,19,female,up_down_width,2024-10-30_13h37.15.313,exp1,2023.1.0,60.113205238325584,
,,,,,,,,,,,,,,,,4,9.25,9.75,10.25,10.75,0,0.5,0.25,0.25,1.75,10,initial,36.05,333,351,370,388,0,9,9,9,9,0,,,,,,,0,0,0,0,0,17,17,13,,,,,,,,,,,,num_3,1.1793203998822719,num_3,0.35,0.5,0.3,0.6,11.46165,22.9233,return,5.367125499760732,,,,,,,,,,,,,,,,,918,19,female,up_down_width,2024-10-30_13h37.15.313,exp1,2023.1.0,60.113205238325584,
,,,,,,,,,,,,,,,,4,9.25,9.75,10.25,10.75,0,0.5,0.25,0.25,1.75,10,initial,36.05,333,351,370,388,0,9,9,9,9,0,,,,,,,0,0,0,0,0,18,18,42,,,,,,,,,,,,num_4,1.3660048998426646,num_4,0.35,0.8,0.3,0.6,11.46165,22.9233,return,3.033729999791831,,,,,,,,,,,,,,,,,918,19,female,up_down_width,2024-10-30_13h37.15.313,exp1,2023.1.0,60.113205238325584,
,,,,,,,,,,,,,,,,4,9.25,9.75,10.25,10.75,0,0.5,0.25,0.25,1.75,10,initial,36.05,333,351,370,388,0,9,9,9,9,0,,,,,,,0,0,0,0,0,19,19,40,,,,,,,,,,,,num_4,0.9660759000107646,num_4,0.45,1.1,0.20000000000000007,0.5,7.6411,19.10275,return,5.447488699806854,,,,,,,,,,,,,,,,,918,19,female,up_down_width,2024-10-30_13h37.15.313,exp1,2023.1.0,60.113205238325584,
,,,,,,,,,,,,,,,,4,9.25,9.75,10.25,10.75,0,0.5,0.25,0.25,1.75,10,initial,36.05,333,351,370,388,0,9,9,9,9,0,,,,,,,0,0,0,0,0,20,20,9,,,,,,,,,,,,num_5,1.1412767998408526,num_5,0.35,1.0,0.2,0.55,7.6411,21.01303,return,5.061904500005767,,,,,,,,,,,,,,,,,918,19,female,up_down_width,2024-10-30_13h37.15.313,exp1,2023.1.0,60.113205238325584,
,,,,,,,,,,,,,,,,5,9,9.5,10,10.5,11,0.5,0.25,0.25,2.25,10,initial,36.05,324,342,361,379,397,9,9,9,9,9,,,,,,,0,0,0,0,0,21,21,24,,,,,,,,,,,,num_6,1.2371878998819739,num_6,0.4,0.8,0.20000000000000007,0.5,7.6411,19.10275,return,8.846642899792641,,,,,,,,,,,,,,,,,918,19,female,up_down_width,2024-10-30_13h37.15.313,exp1,2023.1.0,60.113205238325584,
,,,,,,,,,,,,,,,,5,9,9.5,10,10.5,11,0.5,0.25,0.25,2.25,10,initial,36.05,324,342,361,379,397,9,9,9,9,9,,,,,,,0,0,0,0,0,22,22,18,,,,,,,,,,,,num_5,1.0439531998708844,num_5,0.25,1.0,0.25,0.6,9.55138,22.9233,return,4.407619499834254,,,,,,,,,,,,,,,,,918,19,female,up_down_width,2024-10-30_13h37.15.313,exp1,2023.1.0,60.113205238325584,
,,,,,,,,,,,,,,,,5,9,9.5,10,10.5,11,0.5,0.25,0.25,2.25,10,initial,36.05,324,342,361,379,397,9,9,9,9,9,,,,,,,0,0,0,0,0,23,23,22,,,,,,,,,,,,num_5,1.0037800997961313,num_5,0.5,0.8,0.30000000000000004,0.65,11.46165,24.83358,return,4.48295919992961,,,,,,,,,,,,,,,,,918,19,female,up_down_width,2024-10-30_13h37.15.313,exp1,2023.1.0,60.113205238325584,
,,,,,,,,,,,,,,,,3,9.5,10,10.5,0,0,0.5,0.25,0.25,1.25,10,initial,36.05,342,361,379,0,0,9,9,9,0,0,,,,,,,0,0,0,0,0,24,24,29,,,,,,,,,,,,num_3,1.3177111998666078,num_3,0.35,0.8,0.25,0.6,9.55138,22.9233,return,3.93142979987897,,,,,,,,,,,,,,,,,918,19,female,up_down_width,2024-10-30_13h37.15.313,exp1,2023.1.0,60.113205238325584,
,,,,,,,,,,,,,,,,3,9.5,10,10.5,0,0,0.5,0.25,0.25,1.25,10,initial,36.05,342,361,379,0,0,9,9,9,0,0,,,,,,,0,0,0,0,0,25,25,4,,,,,,,,,,,,num_3,1.2419825999531895,num_3,0.2,0.8,0.25,0.55,9.55138,21.01303,return,5.028015699703246,,,,,,,,,,,,,,,,,918,19,female,up_down_width,2024-10-30_13h37.15.313,exp1,2023.1.0,60.113205238325584,
,,,,,,,,,,,,,,,,5,9,9.5,10,10.5,11,0.5,0.25,0.25,2.25,10,initial,36.05,324,342,361,379,397,9,9,9,9,9,,,,,,,0,0,0,0,0,26,26,45,,,,,,,,,,,,num_5,1.1159282999578863,num_5,0.45,0.8,0.20000000000000007,0.4,7.6411,15.2822,return,5.533023299882188,,,,,,,,,,,,,,,,,918,19,female,up_down_width,2024-10-30_13h37.15.313,exp1,2023.1.0,60.113205238325584,
,,,,,,,,,,,,,,,,4,9.25,9.75,10.25,10.75,0,0.5,0.25,0.25,1.75,10,initial,36.05,333,351,370,388,0,9,9,9,9,0,,,,,,,0,0,0,0,0,27,27,10,,,,,,,,,,,,num_4,1.2906523998826742,num_4,0.2,0.6,0.25,0.5,9.55138,19.10275,return,6.484446999849752,,,,,,,,,,,,,,,,,918,19,female,up_down_width,2024-10-30_13h37.15.313,exp1,2023.1.0,60.113205238325584,
,,,,,,,,,,,,,,,,4,9.25,9.75,10.25,10.75,0,0.5,0.25,0.25,1.75,10,initial,36.05,333,351,370,388,0,9,9,9,9,0,,,,,,,0,0,0,0,0,28,28,11,,,,,,,,,,,,num_5,1.2415515999309719,num_5,0.5,0.7,0.20000000000000007,0.4,7.6411,15.2822,return,6.25485510006547,,,,,,,,,,,,,,,,,918,19,female,up_down_width,2024-10-30_13h37.15.313,exp1,2023.1.0,60.113205238325584,
,,,,,,,,,,,,,,,,4,9.25,9.75,10.25,10.75,0,0.5,0.25,0.25,1.75,10,initial,36.05,333,351,370,388,0,9,9,9,9,0,,,,,,,0,0,0,0,0,29,29,39,,,,,,,,,,,,num_4,0.9952863999642432,num_4,0.4,0.9,0.20000000000000007,0.5,7.6411,19.10275,return,5.80999210011214,,,,,,,,,,,,,,,,,918,19,female,up_down_width,2024-10-30_13h37.15.313,exp1,2023.1.0,60.113205238325584,
,,,,,,,,,,,,,,,,3,9.5,10,10.5,0,0,0.5,0.25,0.25,1.25,10,initial,36.05,342,361,379,0,0,9,9,9,0,0,,,,,,,0,0,0,0,0,30,30,27,,,,,,,,,,,,num_3,1.023294699843973,num_3,0.5,1,0.30000000000000004,0.65,11.46165,24.83358,return,4.229879599995911,,,,,,,,,,,,,,,,,918,19,female,up_down_width,2024-10-30_13h37.15.313,exp1,2023.1.0,60.113205238325584,
,,,,,,,,,,,,,,,,5,9,9.5,10,10.5,11,0.5,0.25,0.25,2.25,10,initial,36.05,324,342,361,379,397,9,9,9,9,9,,,,,,,0,0,0,0,0,31,31,21,,,,,,,,,,,,num_5,1.0333052999339998,num_5,0.5,0.8,0.20000000000000007,0.4,7.6411,15.2822,return,6.633180699776858,,,,,,,,,,,,,,,,,918,19,female,up_down_width,2024-10-30_13h37.15.313,exp1,2023.1.0,60.113205238325584,
,,,,,,,,,,,,,,,,4,9.25,9.75,10.25,10.75,0,0.5,0.25,0.25,1.75,10,initial,36.05,333,351,370,388,0,9,9,9,9,0,,,,,,,0,0,0,0,0,32,32,41,,,,,,,,,,,,num_3,2.4573553998488933,num_3,0.4,0.8,0.30000000000000004,0.55,11.46165,21.01303,return,3.202418299857527,,,,,,,,,,,,,,,,,918,19,female,up_down_width,2024-10-30_13h37.15.313,exp1,2023.1.0,60.113205238325584,
,,,,,,,,,,,,,,,,3,9.5,10,10.5,0,0,0.5,0.25,0.25,1.25,10,initial,36.05,342,361,379,0,0,9,9,9,0,0,,,,,,,0,0,0,0,0,33,33,28,,,,,,,,,,,,num_3,0.9944613000843674,num_3,0.4,1.1,0.30000000000000004,0.6,11.46165,22.9233,return,4.257688399869949,,,,,,,,,,,,,,,,,918,19,female,up_down_width,2024-10-30_13h37.15.313,exp1,2023.1.0,60.113205238325584,
,,,,,,,,,,,,,,,,4,9.25,9.75,10.25,10.75,0,0.5,0.25,0.25,1.75,10,initial,36.05,333,351,370,388,0,9,9,9,9,0,,,,,,,0,0,0,0,0,34,34,44,,,,,,,,,,,,num_4,1.0630550999194384,num_4,0.25,0.8,0.3,0.6,11.46165,22.9233,return,2.472044999944046,,,,,,,,,,,,,,,,,918,19,female,up_down_width,2024-10-30_13h37.15.313,exp1,2023.1.0,60.113205238325584,
,,,,,,,,,,,,,,,,3,9.5,10,10.5,0,0,0.5,0.25,0.25,1.25,10,initial,36.05,342,361,379,0,0,9,9,9,0,0,,,,,,,0,0,0,0,0,35,35,2,,,,,,,,,,,,num_3,0.8690712999086827,num_3,0.3,0.6,0.3,0.6,11.46165,22.9233,return,1.7469426998868585,,,,,,,,,,,,,,,,,918,19,female,up_down_width,2024-10-30_13h37.15.313,exp1,2023.1.0,60.113205238325584,
,,,,,,,,,,,,,,,,5,9,9.5,10,10.5,11,0.5,0.25,0.25,2.25,10,initial,36.05,324,342,361,379,397,9,9,9,9,9,,,,,,,0,0,0,0,0,36,36,48,,,,,,,,,,,,num_4,1.0276632998138666,num_4,0.25,1.1,0.39999999999999997,0.6,15.2822,22.9233,return,4.948531699832529,,,,,,,,,,,,,,,,,918,19,female,up_down_width,2024-10-30_13h37.15.313,exp1,2023.1.0,60.113205238325584,
,,,,,,,,,,,,,,,,5,9,9.5,10,10.5,11,0.5,0.25,0.25,2.25,10,initial,36.05,324,342,361,379,397,9,9,9,9,9,,,,,,,0,0,0,0,0,37,37,46,,,,,,,,,,,,num_4,0.9574804999865592,num_4,0.35,1.0,0.3,0.6,11.46165,22.9233,return,3.3467272999696434,,,,,,,,,,,,,,,,,918,19,female,up_down_width,2024-10-30_13h37.15.313,exp1,2023.1.0,60.113205238325584,
,,,,,,,,,,,,,,,,3,9.5,10,10.5,0,0,0.5,0.25,0.25,1.25,10,initial,36.05,342,361,379,0,0,9,9,9,0,0,,,,,,,0,0,0,0,0,38,38,5,,,,,,,,,,,,num_3,1.059457599883899,num_3,0.45,1.1,0.25000000000000006,0.6,9.55138,22.9233,return,4.468259799992666,,,,,,,,,,,,,,,,,918,19,female,up_down_width,2024-10-30_13h37.15.313,exp1,2023.1.0,60.113205238325584,
,,,,,,,,,,,,,,,,3,9.5,10,10.5,0,0,0.5,0.25,0.25,1.25,10,initial,36.05,342,361,379,0,0,9,9,9,0,0,,,,,,,0,0,0,0,0,39,39,34,,,,,,,,,,,,num_3,0.8439664000179619,num_3,0.45,0.5,0.25000000000000006,0.45,9.55138,17.19248,return,3.65204369998537,,,,,,,,,,,,,,,,,918,19,female,up_down_width,2024-10-30_13h37.15.313,exp1,2023.1.0,60.113205238325584,
,,,,,,,,,,,,,,,,3,9.5,10,10.5,0,0,0.5,0.25,0.25,1.25,10,initial,36.05,342,361,379,0,0,9,9,9,0,0,,,,,,,0,0,0,0,0,40,40,0,,,,,,,,,,,,num_3,0.9439083999022841,num_3,0.45,1.3,0.25000000000000006,0.45,9.55138,17.19248,return,7.272522299783304,,,,,,,,,,,,,,,,,918,19,female,up_down_width,2024-10-30_13h37.15.313,exp1,2023.1.0,60.113205238325584,
,,,,,,,,,,,,,,,,4,9.25,9.75,10.25,10.75,0,0.5,0.25,0.25,1.75,10,initial,36.05,333,351,370,388,0,9,9,9,9,0,,,,,,,0,0,0,0,0,41,41,38,,,,,,,,,,,,num_4,1.0845808000303805,num_4,0.45,1.0,0.30000000000000004,0.5,11.46165,19.10275,return,3.6483213999308646,,,,,,,,,,,,,,,,,918,19,female,up_down_width,2024-10-30_13h37.15.313,exp1,2023.1.0,60.113205238325584,
,,,,,,,,,,,,,,,,3,9.5,10,10.5,0,0,0.5,0.25,0.25,1.25,10,initial,36.05,342,361,379,0,0,9,9,9,0,0,,,,,,,0,0,0,0,0,42,42,33,,,,,,,,,,,,num_3,0.9226613000500947,num_3,0.3,1.3,0.35,0.65,13.37193,24.83358,return,5.283750999951735,,,,,,,,,,,,,,,,,918,19,female,up_down_width,2024-10-30_13h37.15.313,exp1,2023.1.0,60.113205238325584,
,,,,,,,,,,,,,,,,5,9,9.5,10,10.5,11,0.5,0.25,0.25,2.25,10,initial,36.05,324,342,361,379,397,9,9,9,9,9,,,,,,,0,0,0,0,0,43,43,52,,,,,,,,,,,,num_5,1.221641199896112,num_5,0.45,0.7,0.35000000000000003,0.6,13.37193,22.9233,return,3.216567900031805,,,,,,,,,,,,,,,,,918,19,female,up_down_width,2024-10-30_13h37.15.313,exp1,2023.1.0,60.113205238325584,
,,,,,,,,,,,,,,,,4,9.25,9.75,10.25,10.75,0,0.5,0.25,0.25,1.75,10,initial,36.05,333,351,370,388,0,9,9,9,9,0,,,,,,,0,0,0,0,0,44,44,36,,,,,,,,,,,,num_4,1.2851811996661127,num_4,0.35,0.9,0.3,0.5,11.46165,19.10275,return,3.137283899821341,,,,,,,,,,,,,,,,,918,19,female,up_down_width,2024-10-30_13h37.15.313,exp1,2023.1.0,60.113205238325584,
,,,,,,,,,,,,,,,,4,9.25,9.75,10.25,10.75,0,0.5,0.25,0.25,1.75,10,initial,36.05,333,351,370,388,0,9,9,9,9,0,,,,,,,0,0,0,0,0,45,45,14,,,,,,,,,,,,num_4,1.0926929998677224,num_4,0.45,0.6,0.35000000000000003,0.6,13.37193,22.9233,return,4.659724599914625,,,,,,,,,,,,,,,,,918,19,female,up_down_width,2024-10-30_13h37.15.313,exp1,2023.1.0,60.113205238325584,
,,,,,,,,,,,,,,,,5,9,9.5,10,10.5,11,0.5,0.25,0.25,2.25,10,initial,36.05,324,342,361,379,397,9,9,9,9,9,,,,,,,0,0,0,0,0,46,46,25,,,,,,,,,,,,num_5,1.0389701998792589,num_5,0.2,1.3,0.3,0.6,11.46165,22.9233,return,5.710933800088242,,,,,,,,,,,,,,,,,918,19,female,up_down_width,2024-10-30_13h37.15.313,exp1,2023.1.0,60.113205238325584,
,,,,,,,,,,,,,,,,5,9,9.5,10,10.5,11,0.5,0.25,0.25,2.25,10,initial,36.05,324,342,361,379,397,9,9,9,9,9,,,,,,,0,0,0,0,0,47,47,47,,,,,,,,,,,,num_5,1.3766741000581533,num_5,0.45,0.8,0.30000000000000004,0.7,11.46165,26.74385,return,5.383759799879044,,,,,,,,,,,,,,,,,918,19,female,up_down_width,2024-10-30_13h37.15.313,exp1,2023.1.0,60.113205238325584,
,,,,,,,,,,,,,,,,3,9.5,10,10.5,0,0,0.5,0.25,0.25,1.25,10,initial,36.05,342,361,379,0,0,9,9,9,0,0,,,,,,,0,0,0,0,0,48,48,8,,,,,,,,,,,,num_3,1.8323976998217404,num_3,0.45,0.5,0.30000000000000004,0.65,11.46165,24.83358,return,5.982800500001758,,,,,,,,,,,,,,,,,918,19,female,up_down_width,2024-10-30_13h37.15.313,exp1,2023.1.0,60.113205238325584,
,,,,,,,,,,,,,,,,4,9.25,9.75,10.25,10.75,0,0.5,0.25,0.25,1.75,10,initial,36.05,333,351,370,388,0,9,9,9,9,0,,,,,,,0,0,0,0,0,49,49,43,,,,,,,,,,,,num_4,1.2493865999858826,num_4,0.25,0.6,0.3,0.5,11.46165,19.10275,return,2.341887600021437,,,,,,,,,,,,,,,,,918,19,female,up_down_width,2024-10-30_13h37.15.313,exp1,2023.1.0,60.113205238325584,
,,,,,,,,,,,,,,,,4,9.25,9.75,10.25,10.75,0,0.5,0.25,0.25,1.75,10,initial,36.05,333,351,370,388,0,9,9,9,9,0,,,,,,,0,0,0,0,0,50,50,37,,,,,,,,,,,,num_4,1.1073757999110967,num_4,0.4,0.5,0.20000000000000007,0.5,7.6411,19.10275,return,5.77542129997164,,,,,,,,,,,,,,,,,918,19,female,up_down_width,2024-10-30_13h37.15.313,exp1,2023.1.0,60.113205238325584,
,,,,,,,,,,,,,,,,5,9,9.5,10,10.5,11,0.5,0.25,0.25,2.25,10,initial,36.05,324,342,361,379,397,9,9,9,9,9,,,,,,,0,0,0,0,0,51,51,19,,,,,,,,,,,,num_5,0.9846395996864885,num_5,0.35,1.1,0.3,0.55,11.46165,21.01303,return,5.660895799752325,,,,,,,,,,,,,,,,,918,19,female,up_down_width,2024-10-30_13h37.15.313,exp1,2023.1.0,60.113205238325584,
,,,,,,,,,,,,,,,,5,9,9.5,10,10.5,11,0.5,0.25,0.25,2.25,10,initial,36.05,324,342,361,379,397,9,9,9,9,9,,,,,,,0,0,0,0,0,52,52,50,,,,,,,,,,,,num_4,1.10142290010117,num_4,0.4,0.6,0.30000000000000004,0.5,11.46165,19.10275,return,2.9858549998607486,,,,,,,,,,,,,,,,,918,19,female,up_down_width,2024-10-30_13h37.15.313,exp1,2023.1.0,60.113205238325584,
,,,,,,,,,,,,,,,,3,9.5,10,10.5,0,0,0.5,0.25,0.25,1.25,10,initial,36.05,342,361,379,0,0,9,9,9,0,0,,,,,,,0,0,0,0,0,53,53,7,,,,,,,,,,,,num_3,1.0260072997771204,num_3,0.4,1.2,0.35000000000000003,0.55,13.37193,21.01303,return,4.194219199940562,,,,,,,,,,,,,,,,,918,19,female,up_down_width,2024-10-30_13h37.15.313,exp1,2023.1.0,60.113205238325584,
,,,,,,,,,,,,,,,,,,,,,,,,,,,,,,,,,,,,,,,,,,,,,0,0,0,0,,,,,,,,,,,,,,,,,,,,,,,,,,,,,766.0118227000348,766.0118227000348,766.0118227000348,,,,,,,,,,,,918,19,female,up_down_width,2024-10-30_13h37.15.313,exp1,2023.1.0,60.113205238325584,
,,,,,,,,,,,,,,,,3,9.5,10,10.5,0,0,0.5,0.1,0.4,1.4000000000000001,10,initial,36.05,342,361,379,0,0,9,9,9,0,0,,,,,,,1,0,1,0,0,0,0,29,,,,,,,,,,,,num_2,1.141344100004062,num_2,0.4,1.6,0.55,0.7,21.01303,26.74385,return,4.4520496998447925,,,,,,,,,,,,,,,,,918,19,female,up_down_width,2024-10-30_13h37.15.313,exp1,2023.1.0,60.113205238325584,
,,,,,,,,,,,,,,,,4,9.25,9.75,10.25,10.75,0,0.5,0.1,0.4,1.9000000000000001,10,initial,36.05,333,351,370,388,0,9,9,9,9,0,,,,,,,1,0,1,0,0,1,1,41,,,,,,,,,,,,num_3,1.0368655000347644,num_3,0.25,1.1,0.5499999999999999,0.8,21.01303,30.5644,return,4.138627799926326,,,,,,,,,,,,,,,,,918,19,female,up_down_width,2024-10-30_13h37.15.313,exp1,2023.1.0,60.113205238325584,
,,,,,,,,,,,,,,,,4,9.25,9.75,10.25,10.75,0,0.5,0.1,0.4,1.9000000000000001,10,initial,36.05,333,351,370,388,0,9,9,9,9,0,,,,,,,1,0,1,0,0,2,2,10,,,,,,,,,,,,num_3,1.9991736998781562,num_3,0.4,0.7,0.6000000000000001,0.7,22.9233,26.74385,return,4.111265799961984,,,,,,,,,,,,,,,,,918,19,female,up_down_width,2024-10-30_13h37.15.313,exp1,2023.1.0,60.113205238325584,
,,,,,,,,,,,,,,,,3,9.5,10,10.5,0,0,0.5,0.1,0.4,1.4000000000000001,10,initial,36.05,342,361,379,0,0,9,9,9,0,0,,,,,,,1,0,1,0,0,3,3,3,,,,,,,,,,,,num_2,0.856698399875313,num_2,0.5,1.2,0.6500000000000001,0.8,24.83358,30.5644,return,4.101141299819574,,,,,,,,,,,,,,,,,918,19,female,up_down_width,2024-10-30_13h37.15.313,exp1,2023.1.0,60.113205238325584,
,,,,,,,,,,,,,,,,3,9.5,10,10.5,0,0,0.5,0.1,0.4,1.4000000000000001,10,initial,36.05,342,361,379,0,0,9,9,9,0,0,,,,,,,1,0,1,0,0,4,4,31,,,,,,,,,,,,num_2,0.8627879999112338,num_2,0.45,0.6,0.6500000000000001,0.8,24.83358,30.5644,return,6.217456399928778,,,,,,,,,,,,,,,,,918,19,female,up_down_width,2024-10-30_13h37.15.313,exp1,2023.1.0,60.113205238325584,
,,,,,,,,,,,,,,,,3,9.5,10,10.5,0,0,0.5,0.1,0.4,1.4000000000000001,10,initial,36.05,342,361,379,0,0,9,9,9,0,0,,,,,,,1,0,1,0,0,5,5,28,,,,,,,,,,,,num_3,1.0915717999450862,num_3,0.4,0.8,0.5,0.75,19.10275,28.65413,return,3.4152172000613064,,,,,,,,,,,,,,,,,918,19,female,up_down_width,2024-10-30_13h37.15.313,exp1,2023.1.0,60.113205238325584,
,,,,,,,,,,,,,,,,3,9.5,10,10.5,0,0,0.5,0.1,0.4,1.4000000000000001,10,initial,36.05,342,361,379,0,0,9,9,9,0,0,,,,,,,1,0,1,0,0,6,6,7,,,,,,,,,,,,num_2,0.7760360997635871,num_2,0.25,1.2,0.65,0.8,24.83358,30.5644,return,5.811626399867237,,,,,,,,,,,,,,,,,918,19,female,up_down_width,2024-10-30_13h37.15.313,exp1,2023.1.0,60.113205238325584,
,,,,,,,,,,,,,,,,5,9,9.5,10,10.5,11,0.5,0.1,0.4,2.4,10,initial,36.05,324,342,361,379,397,9,9,9,9,9,,,,,,,1,0,1,0,0,7,7,25,,,,,,,,,,,,num_4,1.115933699766174,num_4,0.35,0.4,0.6,0.8,22.9233,30.5644,return,6.699747999897227,,,,,,,,,,,,,,,,,918,19,female,up_down_width,2024-10-30_13h37.15.313,exp1,2023.1.0,60.113205238325584,
,,,,,,,,,,,,,,,,4,9.25,9.75,10.25,10.75,0,0.5,0.1,0.4,1.9000000000000001,10,initial,36.05,333,351,370,388,0,9,9,9,9,0,,,,,,,1,0,1,0,0,8,8,39,,,,,,,,,,,,num_3,1.2547193998470902,num_3,0.45,0.7,0.6000000000000001,0.7,22.9233,26.74385,return,2.9301289999857545,,,,,,,,,,,,,,,,,918,19,female,up_down_width,2024-10-30_13h37.15.313,exp1,2023.1.0,60.113205238325584,
,,,,,,,,,,,,,,,,5,9,9.5,10,10.5,11,0.5,0.1,0.4,2.4,10,initial,36.05,324,342,361,379,397,9,9,9,9,9,,,,,,,1,0,1,0,0,9,9,26,,,,,,,,,,,,num_4,1.2162341000512242,num_4,0.3,0.8,0.6,0.7,22.9233,26.74385,return,2.9754082998260856,,,,,,,,,,,,,,,,,918,19,female,up_down_width,2024-10-30_13h37.15.313,exp1,2023.1.0,60.113205238325584,
,,,,,,,,,,,,,,,,5,9,9.5,10,10.5,11,0.5,0.1,0.4,2.4,10,initial,36.05,324,342,361,379,397,9,9,9,9,9,,,,,,,1,0,1,0,0,10,10,18,,,,,,,,,,,,num_4,0.8052903998177499,num_4,0.2,1.3,0.5499999999999999,0.7,21.01303,26.74385,return,4.787828699685633,,,,,,,,,,,,,,,,,918,19,female,up_down_width,2024-10-30_13h37.15.313,exp1,2023.1.0,60.113205238325584,
,,,,,,,,,,,,,,,,3,9.5,10,10.5,0,0,0.5,0.1,0.4,1.4000000000000001,10,initial,36.05,342,361,379,0,0,9,9,9,0,0,,,,,,,1,0,1,0,0,11,11,34,,,,,,,,,,,,num_2,0.7759277999866754,num_2,0.3,0.6,0.6,0.8,22.9233,30.5644,return,5.718871499877423,,,,,,,,,,,,,,,,,918,19,female,up_down_width,2024-10-30_13h37.15.313,exp1,2023.1.0,60.113205238325584,
,,,,,,,,,,,,,,,,4,9.25,9.75,10.25,10.75,0,0.5,0.1,0.4,1.9000000000000001,10,initial,36.05,333,351,370,388,0,9,9,9,9,0,,,,,,,1,0,1,0,0,12,12,38,,,,,,,,,,,,num_3,0.9125020999927074,num_3,0.4,0.6,0.6000000000000001,0.7,22.9233,26.74385,return,5.610584299778566,,,,,,,,,,,,,,,,,918,19,female,up_down_width,2024-10-30_13h37.15.313,exp1,2023.1.0,60.113205238325584,
,,,,,,,,,,,,,,,,3,9.5,10,10.5,0,0,0.5,0.1,0.4,1.4000000000000001,10,initial,36.05,342,361,379,0,0,9,9,9,0,0,,,,,,,1,0,1,0,0,13,13,1,,,,,,,,,,,,num_2,0.8179131997749209,num_2,0.2,1.2,0.7500000000000001,0.9,28.65413,34.38495,return,4.89046989986673,,,,,,,,,,,,,,,,,918,19,female,up_down_width,2024-10-30_13h37.15.313,exp1,2023.1.0,60.113205238325584,
,,,,,,,,,,,,,,,,5,9,9.5,10,10.5,11,0.5,0.1,0.4,2.4,10,initial,36.05,324,342,361,379,397,9,9,9,9,9,,,,,,,1,0,1,0,0,14,14,22,,,,,,,,,,,,num_4,1.4594377998728305,num_4,0.3,1.0,0.7000000000000001,0.8,26.74385,30.5644,return,4.295686099678278,,,,,,,,,,,,,,,,,918,19,female,up_down_width,2024-10-30_13h37.15.313,exp1,2023.1.0,60.113205238325584,
,,,,,,,,,,,,,,,,5,9,9.5,10,10.5,11,0.5,0.1,0.4,2.4,10,initial,36.05,324,342,361,379,397,9,9,9,9,9,,,,,,,1,0,1,0,0,15,15,50,,,,,,,,,,,,num_4,0.7606789998244494,num_4,0.35,1.2,0.8000000000000002,0.9,30.5644,34.38495,return,4.1691789999604225,,,,,,,,,,,,,,,,,918,19,female,up_down_width,2024-10-30_13h37.15.313,exp1,2023.1.0,60.113205238325584,
,,,,,,,,,,,,,,,,4,9.25,9.75,10.25,10.75,0,0.5,0.1,0.4,1.9000000000000001,10,initial,36.05,333,351,370,388,0,9,9,9,9,0,,,,,,,1,0,1,0,0,16,16,9,,,,,,,,,,,,num_3,1.1581202999223024,num_3,0.55,0.6,0.6000000000000001,0.75,22.9233,28.65413,return,7.510588000062853,,,,,,,,,,,,,,,,,918,19,female,up_down_width,2024-10-30_13h37.15.313,exp1,2023.1.0,60.113205238325584,
,,,,,,,,,,,,,,,,5,9,9.5,10,10.5,11,0.5,0.1,0.4,2.4,10,initial,36.05,324,342,361,379,397,9,9,9,9,9,,,,,,,1,0,1,0,0,17,17,23,,,,,,,,,,,,num_3,0.8934237000066787,num_3,0.35,0.8,0.5499999999999999,0.75,21.01303,28.65413,return,5.330940599786118,,,,,,,,,,,,,,,,,918,19,female,up_down_width,2024-10-30_13h37.15.313,exp1,2023.1.0,60.113205238325584,
,,,,,,,,,,,,,,,,5,9,9.5,10,10.5,11,0.5,0.1,0.4,2.4,10,initial,36.05,324,342,361,379,397,9,9,9,9,9,,,,,,,1,0,1,0,0,18,18,49,,,,,,,,,,,,num_3,1.6851675999350846,num_3,0.55,1.2,0.6500000000000001,0.85,24.83358,32.47468,return,3.1993608998600394,,,,,,,,,,,,,,,,,918,19,female,up_down_width,2024-10-30_13h37.15.313,exp1,2023.1.0,60.113205238325584,
,,,,,,,,,,,,,,,,4,9.25,9.75,10.25,10.75,0,0.5,0.1,0.4,1.9000000000000001,10,initial,36.05,333,351,370,388,0,9,9,9,9,0,,,,,,,1,0,1,0,0,19,19,14,,,,,,,,,,,,num_3,0.8932739999145269,num_3,0.35,0.8,0.65,0.8,24.83358,30.5644,return,3.60297939972952,,,,,,,,,,,,,,,,,918,19,female,up_down_width,2024-10-30_13h37.15.313,exp1,2023.1.0,60.113205238325584,
,,,,,,,,,,,,,,,,3,9.5,10,10.5,0,0,0.5,0.1,0.4,1.4000000000000001,10,initial,36.05,342,361,379,0,0,9,9,9,0,0,,,,,,,1,0,1,0,0,20,20,6,,,,,,,,,,,,num_2,0.8793879998847842,num_2,0.5,1.4,0.7000000000000002,0.8,26.74385,30.5644,return,4.040096799843013,,,,,,,,,,,,,,,,,918,19,female,up_down_width,2024-10-30_13h37.15.313,exp1,2023.1.0,60.113205238325584,
,,,,,,,,,,,,,,,,5,9,9.5,10,10.5,11,0.5,0.1,0.4,2.4,10,initial,36.05,324,342,361,379,397,9,9,9,9,9,,,,,,,1,0,1,0,0,21,21,24,,,,,,,,,,,,num_4,1.16326649999246,num_4,0.55,1.0,0.8000000000000003,0.9,30.5644,34.38495,return,3.029949099989608,,,,,,,,,,,,,,,,,918,19,female,up_down_width,2024-10-30_13h37.15.313,exp1,2023.1.0,60.113205238325584,
,,,,,,,,,,,,,,,,4,9.25,9.75,10.25,10.75,0,0.5,0.1,0.4,1.9000000000000001,10,initial,36.05,333,351,370,388,0,9,9,9,9,0,,,,,,,1,0,1,0,0,22,22,36,,,,,,,,,,,,num_3,0.9373822999186814,num_3,0.4,0.7,0.6000000000000001,0.7,22.9233,26.74385,return,1.9664859999902546,,,,,,,,,,,,,,,,,918,19,female,up_down_width,2024-10-30_13h37.15.313,exp1,2023.1.0,60.113205238325584,
,,,,,,,,,,,,,,,,3,9.5,10,10.5,0,0,0.5,0.1,0.4,1.4000000000000001,10,initial,36.05,342,361,379,0,0,9,9,9,0,0,,,,,,,1,0,1,0,0,23,23,30,,,,,,,,,,,,num_2,0.9182476000860333,num_2,0.25,1.2,0.6,1.0,22.9233,38.2055,return,4.431341999908909,,,,,,,,,,,,,,,,,918,19,female,up_down_width,2024-10-30_13h37.15.313,exp1,2023.1.0,60.113205238325584,
,,,,,,,,,,,,,,,,5,9,9.5,10,10.5,11,0.5,0.1,0.4,2.4,10,initial,36.05,324,342,361,379,397,9,9,9,9,9,,,,,,,1,0,1,0,0,24,24,48,,,,,,,,,,,,num_3,0.9778651997912675,num_3,0.4,0.9,0.6000000000000001,0.85,22.9233,32.47468,return,3.2252793998923153,,,,,,,,,,,,,,,,,918,19,female,up_down_width,2024-10-30_13h37.15.313,exp1,2023.1.0,60.113205238325584,
,,,,,,,,,,,,,,,,3,9.5,10,10.5,0,0,0.5,0.1,0.4,1.4000000000000001,10,initial,36.05,342,361,379,0,0,9,9,9,0,0,,,,,,,1,0,1,0,0,25,25,0,,,,,,,,,,,,num_2,0.7798047997057438,num_2,0.55,1.6,0.7500000000000002,0.9,28.65413,34.38495,return,3.955774099798873,,,,,,,,,,,,,,,,,918,19,female,up_down_width,2024-10-30_13h37.15.313,exp1,2023.1.0,60.113205238325584,
,,,,,,,,,,,,,,,,4,9.25,9.75,10.25,10.75,0,0.5,0.1,0.4,1.9000000000000001,10,initial,36.05,333,351,370,388,0,9,9,9,9,0,,,,,,,1,0,1,0,0,26,26,37,,,,,,,,,,,,num_3,0.864177200011909,num_3,0.45,1.1,0.6500000000000001,0.8,24.83358,30.5644,return,2.811999100027606,,,,,,,,,,,,,,,,,918,19,female,up_down_width,2024-10-30_13h37.15.313,exp1,2023.1.0,60.113205238325584,
,,,,,,,,,,,,,,,,5,9,9.5,10,10.5,11,0.5,0.1,0.4,2.4,10,initial,36.05,324,342,361,379,397,9,9,9,9,9,,,,,,,1,0,1,0,0,27,27,46,,,,,,,,,,,,num_4,0.8520051997620612,num_4,0.2,1.0,0.65,0.8,24.83358,30.5644,return,5.7706851998809725,,,,,,,,,,,,,,,,,918,19,female,up_down_width,2024-10-30_13h37.15.313,exp1,2023.1.0,60.113205238325584,
,,,,,,,,,,,,,,,,3,9.5,10,10.5,0,0,0.5,0.1,0.4,1.4000000000000001,10,initial,36.05,342,361,379,0,0,9,9,9,0,0,,,,,,,1,0,1,0,0,28,28,27,,,,,,,,,,,,num_3,1.0720275999046862,num_3,0.5,1.2,0.6000000000000001,0.75,22.9233,28.65413,return,5.0703214998357,,,,,,,,,,,,,,,,,918,19,female,up_down_width,2024-10-30_13h37.15.313,exp1,2023.1.0,60.113205238325584,
,,,,,,,,,,,,,,,,4,9.25,9.75,10.25,10.75,0,0.5,0.1,0.4,1.9000000000000001,10,initial,36.05,333,351,370,388,0,9,9,9,9,0,,,,,,,1,0,1,0,0,29,29,43,,,,,,,,,,,,num_4,0.8223723999690264,num_4,0.5,0.9,0.6000000000000001,0.7,22.9233,26.74385,return,2.7238100999966264,,,,,,,,,,,,,,,,,918,19,female,up_down_width,2024-10-30_13h37.15.313,exp1,2023.1.0,60.113205238325584,
,,,,,,,,,,,,,,,,4,9.25,9.75,10.25,10.75,0,0.5,0.1,0.4,1.9000000000000001,10,initial,36.05,333,351,370,388,0,9,9,9,9,0,,,,,,,1,0,1,0,0,30,30,15,,,,,,,,,,,,num_3,0.9702676997985691,num_3,0.45,1.3,0.6000000000000001,0.75,22.9233,28.65413,return,5.089568199822679,,,,,,,,,,,,,,,,,918,19,female,up_down_width,2024-10-30_13h37.15.313,exp1,2023.1.0,60.113205238325584,
,,,,,,,,,,,,,,,,5,9,9.5,10,10.5,11,0.5,0.1,0.4,2.4,10,initial,36.05,324,342,361,379,397,9,9,9,9,9,,,,,,,1,0,1,0,0,31,31,53,,,,,,,,,,,,num_5,1.1136950999498367,num_5,0.2,0.4,0.49999999999999994,0.6,19.10275,22.9233,return,4.971876399824396,,,,,,,,,,,,,,,,,918,19,female,up_down_width,2024-10-30_13h37.15.313,exp1,2023.1.0,60.113205238325584,
,,,,,,,,,,,,,,,,4,9.25,9.75,10.25,10.75,0,0.5,0.1,0.4,1.9000000000000001,10,initial,36.05,333,351,370,388,0,9,9,9,9,0,,,,,,,1,0,1,0,0,32,32,16,,,,,,,,,,,,num_3,1.4806965999305248,num_3,0.45,0.7,0.6000000000000001,0.8,22.9233,30.5644,return,3.0921415998600423,,,,,,,,,,,,,,,,,918,19,female,up_down_width,2024-10-30_13h37.15.313,exp1,2023.1.0,60.113205238325584,
,,,,,,,,,,,,,,,,5,9,9.5,10,10.5,11,0.5,0.1,0.4,2.4,10,initial,36.05,324,342,361,379,397,9,9,9,9,9,,,,,,,1,0,1,0,0,33,33,20,,,,,,,,,,,,num_5,0.8397061999421567,num_5,0.45,1.3,0.6000000000000001,0.85,22.9233,32.47468,return,4.752098799683154,,,,,,,,,,,,,,,,,918,19,female,up_down_width,2024-10-30_13h37.15.313,exp1,2023.1.0,60.113205238325584,
,,,,,,,,,,,,,,,,3,9.5,10,10.5,0,0,0.5,0.1,0.4,1.4000000000000001,10,initial,36.05,342,361,379,0,0,9,9,9,0,0,,,,,,,1,0,1,0,0,34,34,2,,,,,,,,,,,,num_2,1.1444302997551858,num_2,0.4,1.2,0.55,0.8,21.01303,30.5644,return,3.3542286998126656,,,,,,,,,,,,,,,,,918,19,female,up_down_width,2024-10-30_13h37.15.313,exp1,2023.1.0,60.113205238325584,
,,,,,,,,,,,,,,,,3,9.5,10,10.5,0,0,0.5,0.1,0.4,1.4000000000000001,10,initial,36.05,342,361,379,0,0,9,9,9,0,0,,,,,,,1,0,1,0,0,35,35,5,,,,,,,,,,,,num_2,0.8185984999872744,num_2,0.55,1.6,0.7500000000000002,1.0,28.65413,38.2055,return,2.9122777997981757,,,,,,,,,,,,,,,,,918,19,female,up_down_width,2024-10-30_13h37.15.313,exp1,2023.1.0,60.113205238325584,
,,,,,,,,,,,,,,,,3,9.5,10,10.5,0,0,0.5,0.1,0.4,1.4000000000000001,10,initial,36.05,342,361,379,0,0,9,9,9,0,0,,,,,,,1,0,1,0,0,36,36,35,,,,,,,,,,,,num_2,0.8352127999532968,num_2,0.55,0.6,0.6500000000000001,0.9,24.83358,34.38495,return,6.28473459975794,,,,,,,,,,,,,,,,,918,19,female,up_down_width,2024-10-30_13h37.15.313,exp1,2023.1.0,60.113205238325584,
,,,,,,,,,,,,,,,,5,9,9.5,10,10.5,11,0.5,0.1,0.4,2.4,10,initial,36.05,324,342,361,379,397,9,9,9,9,9,,,,,,,1,0,1,0,0,37,37,47,,,,,,,,,,,,num_4,1.0704131997190416,num_4,0.3,1.3,0.44999999999999996,0.6,17.19248,22.9233,return,3.999279899755493,,,,,,,,,,,,,,,,,918,19,female,up_down_width,2024-10-30_13h37.15.313,exp1,2023.1.0,60.113205238325584,
,,,,,,,,,,,,,,,,5,9,9.5,10,10.5,11,0.5,0.1,0.4,2.4,10,initial,36.05,324,342,361,379,397,9,9,9,9,9,,,,,,,1,0,1,0,0,38,38,21,,,,,,,,,,,,num_5,0.9923706997651607,num_5,0.4,1.2,0.6000000000000001,0.7,22.9233,26.74385,return,4.65904499986209,,,,,,,,,,,,,,,,,918,19,female,up_down_width,2024-10-30_13h37.15.313,exp1,2023.1.0,60.113205238325584,
,,,,,,,,,,,,,,,,4,9.25,9.75,10.25,10.75,0,0.5,0.1,0.4,1.9000000000000001,10,initial,36.05,333,351,370,388,0,9,9,9,9,0,,,,,,,1,0,1,0,0,39,39,42,,,,,,,,,,,,num_4,1.012412599986419,num_4,0.3,0.3,0.44999999999999996,0.6,17.19248,22.9233,return,8.794741399819031,,,,,,,,,,,,,,,,,918,19,female,up_down_width,2024-10-30_13h37.15.313,exp1,2023.1.0,60.113205238325584,
,,,,,,,,,,,,,,,,3,9.5,10,10.5,0,0,0.5,0.1,0.4,1.4000000000000001,10,initial,36.05,342,361,379,0,0,9,9,9,0,0,,,,,,,1,0,1,0,0,40,40,33,,,,,,,,,,,,num_2,0.8303236998617649,num_2,0.2,1.0,0.49999999999999994,0.7,19.10275,26.74385,return,4.7315293999854475,,,,,,,,,,,,,,,,,918,19,female,up_down_width,2024-10-30_13h37.15.313,exp1,2023.1.0,60.113205238325584,
,,,,,,,,,,,,,,,,5,9,9.5,10,10.5,11,0.5,0.1,0.4,2.4,10,initial,36.05,324,342,361,379,397,9,9,9,9,9,,,,,,,1,0,1,0,0,41,41,51,,,,,,,,,,,,num_4,1.0099314998369664,num_4,0.2,0.5,0.35,0.5,13.37193,19.10275,return,2.2292064998764545,,,,,,,,,,,,,,,,,918,19,female,up_down_width,2024-10-30_13h37.15.313,exp1,2023.1.0,60.113205238325584,
,,,,,,,,,,,,,,,,4,9.25,9.75,10.25,10.75,0,0.5,0.1,0.4,1.9000000000000001,10,initial,36.05,333,351,370,388,0,9,9,9,9,0,,,,,,,1,0,1,0,0,42,42,44,,,,,,,,,,,,num_3,0.9025971000082791,num_3,0.4,0.7,0.45,0.7,17.19248,26.74385,return,1.632646800018847,,,,,,,,,,,,,,,,,918,19,female,up_down_width,2024-10-30_13h37.15.313,exp1,2023.1.0,60.113205238325584,
,,,,,,,,,,,,,,,,4,9.25,9.75,10.25,10.75,0,0.5,0.1,0.4,1.9000000000000001,10,initial,36.05,333,351,370,388,0,9,9,9,9,0,,,,,,,1,0,1,0,0,43,43,13,,,,,,,,,,,,num_3,0.7528170999139547,num_3,0.2,1,0.6,0.85,22.9233,32.47468,return,3.5676653997506946,,,,,,,,,,,,,,,,,918,19,female,up_down_width,2024-10-30_13h37.15.313,exp1,2023.1.0,60.113205238325584,
,,,,,,,,,,,,,,,,3,9.5,10,10.5,0,0,0.5,0.1,0.4,1.4000000000000001,10,initial,36.05,342,361,379,0,0,9,9,9,0,0,,,,,,,1,0,1,0,0,44,44,4,,,,,,,,,,,,num_2,0.7578550998587161,num_2,0.3,1.0,0.5499999999999999,0.7,21.01303,26.74385,return,2.5826478998642415,,,,,,,,,,,,,,,,,918,19,female,up_down_width,2024-10-30_13h37.15.313,exp1,2023.1.0,60.113205238325584,
,,,,,,,,,,,,,,,,3,9.5,10,10.5,0,0,0.5,0.1,0.4,1.4000000000000001,10,initial,36.05,342,361,379,0,0,9,9,9,0,0,,,,,,,1,0,1,0,0,45,45,32,,,,,,,,,,,,num_2,0.7599537998903543,num_2,0.45,0.8,0.6000000000000001,0.8,22.9233,30.5644,return,2.2325937999412417,,,,,,,,,,,,,,,,,918,19,female,up_down_width,2024-10-30_13h37.15.313,exp1,2023.1.0,60.113205238325584,
,,,,,,,,,,,,,,,,3,9.5,10,10.5,0,0,0.5,0.1,0.4,1.4000000000000001,10,initial,36.05,342,361,379,0,0,9,9,9,0,0,,,,,,,1,0,1,0,0,46,46,8,,,,,,,,,,,,num_2,0.7260457999072969,num_2,0.4,1.6,0.7000000000000002,0.9,26.74385,34.38495,return,3.4282199000008404,,,,,,,,,,,,,,,,,918,19,female,up_down_width,2024-10-30_13h37.15.313,exp1,2023.1.0,60.113205238325584,
,,,,,,,,,,,,,,,,4,9.25,9.75,10.25,10.75,0,0.5,0.1,0.4,1.9000000000000001,10,initial,36.05,333,351,370,388,0,9,9,9,9,0,,,,,,,1,0,1,0,0,47,47,12,,,,,,,,,,,,num_3,0.902720799902454,num_3,0.3,0.7,0.5499999999999999,0.7,21.01303,26.74385,return,2.617973499931395,,,,,,,,,,,,,,,,,918,19,female,up_down_width,2024-10-30_13h37.15.313,exp1,2023.1.0,60.113205238325584,
,,,,,,,,,,,,,,,,5,9,9.5,10,10.5,11,0.5,0.1,0.4,2.4,10,initial,36.05,324,342,361,379,397,9,9,9,9,9,,,,,,,1,0,1,0,0,48,48,52,,,,,,,,,,,,num_4,0.9016996999271214,num_4,0.25,1.1,0.6,0.8,22.9233,30.5644,return,4.990542699815705,,,,,,,,,,,,,,,,,918,19,female,up_down_width,2024-10-30_13h37.15.313,exp1,2023.1.0,60.113205238325584,
,,,,,,,,,,,,,,,,4,9.25,9.75,10.25,10.75,0,0.5,0.1,0.4,1.9000000000000001,10,initial,36.05,333,351,370,388,0,9,9,9,9,0,,,,,,,1,0,1,0,0,49,49,17,,,,,,,,,,,,num_3,0.9367821998894215,num_3,0.5,1.3,0.45,0.75,17.19248,28.65413,return,5.282438599970192,,,,,,,,,,,,,,,,,918,19,female,up_down_width,2024-10-30_13h37.15.313,exp1,2023.1.0,60.113205238325584,
,,,,,,,,,,,,,,,,5,9,9.5,10,10.5,11,0.5,0.1,0.4,2.4,10,initial,36.05,324,342,361,379,397,9,9,9,9,9,,,,,,,1,0,1,0,0,50,50,19,,,,,,,,,,,,num_4,1.2983756999019533,num_4,0.5,0.7,0.45,0.6,17.19248,22.9233,return,4.793302400037646,,,,,,,,,,,,,,,,,918,19,female,up_down_width,2024-10-30_13h37.15.313,exp1,2023.1.0,60.113205238325584,
,,,,,,,,,,,,,,,,4,9.25,9.75,10.25,10.75,0,0.5,0.1,0.4,1.9000000000000001,10,initial,36.05,333,351,370,388,0,9,9,9,9,0,,,,,,,1,0,1,0,0,51,51,40,,,,,,,,,,,,num_3,0.9970177998766303,num_3,0.4,0.5,0.55,0.7,21.01303,26.74385,return,4.731217799941078,,,,,,,,,,,,,,,,,918,19,female,up_down_width,2024-10-30_13h37.15.313,exp1,2023.1.0,60.113205238325584,
,,,,,,,,,,,,,,,,5,9,9.5,10,10.5,11,0.5,0.1,0.4,2.4,10,initial,36.05,324,342,361,379,397,9,9,9,9,9,,,,,,,1,0,1,0,0,52,52,45,,,,,,,,,,,,num_4,1.0245370001066476,num_4,0.3,1.3,0.5499999999999999,0.7,21.01303,26.74385,return,5.526194099802524,,,,,,,,,,,,,,,,,918,19,female,up_down_width,2024-10-30_13h37.15.313,exp1,2023.1.0,60.113205238325584,
,,,,,,,,,,,,,,,,4,9.25,9.75,10.25,10.75,0,0.5,0.1,0.4,1.9000000000000001,10,initial,36.05,333,351,370,388,0,9,9,9,9,0,,,,,,,1,0,1,0,0,53,53,11,,,,,,,,,,,,num_3,0.8693140000104904,num_3,0.45,0.9,0.55,0.8,21.01303,30.5644,return,4.065828700084239,,,,,,,,,,,,,,,,,918,19,female,up_down_width,2024-10-30_13h37.15.313,exp1,2023.1.0,60.113205238325584,
,,,,,,,,,,,,,,,,,,,,,,,,,,,,,,,,,,,,,,,,,,,,,1,0,1,0,,,,,,,,,,,,,,,,,,,,,,,,,,,,,1161.2276006999891,1161.2276006999891,1161.2276006999891,,,,,,,,,,,,918,19,female,up_down_width,2024-10-30_13h37.15.313,exp1,2023.1.0,60.113205238325584,
,,,,,,,,,,,,,,,,4,8.65,9.55,10.45,11.35,0,0.9,0.35,0.55,3.25,10,initial,36.05,312,344,377,409,0,9,9,9,9,0,,,,,,,2,0,2,0,0,0,0,41,,,,,,,,,,,,num_3,0.9502156998496503,num_3,0.4,0.9,0.5,1.15,19.10275,43.93633,return,5.438515899935737,,,,,,,,,,,,,,,,,918,19,female,up_down_width,2024-10-30_13h37.15.313,exp1,2023.1.0,60.113205238325584,
,,,,,,,,,,,,,,,,5,8.2,9.1,10,10.9,11.8,0.9,0.35,0.55,4.15,10,initial,36.05,296,328,361,393,425,9,9,9,9,9,,,,,,,2,0,2,0,0,1,1,47,,,,,,,,,,,,num_5,0.9254198998678476,num_5,0.55,0.8,0.6000000000000001,1.15,22.9233,43.93633,return,3.957938199862838,,,,,,,,,,,,,,,,,918,19,female,up_down_width,2024-10-30_13h37.15.313,exp1,2023.1.0,60.113205238325584,
,,,,,,,,,,,,,,,,4,8.65,9.55,10.45,11.35,0,0.9,0.35,0.55,3.25,10,initial,36.05,312,344,377,409,0,9,9,9,9,0,,,,,,,2,0,2,0,0,2,2,13,,,,,,,,,,,,num_4,1.26333409990184,num_4,0.55,1.0,0.45,1.2,17.19248,45.8466,return,3.4611630998551846,,,,,,,,,,,,,,,,,918,19,female,up_down_width,2024-10-30_13h37.15.313,exp1,2023.1.0,60.113205238325584,
,,,,,,,,,,,,,,,,4,8.65,9.55,10.45,11.35,0,0.9,0.35,0.55,3.25,10,initial,36.05,312,344,377,409,0,9,9,9,9,0,,,,,,,2,0,2,0,0,3,3,12,,,,,,,,,,,,num_4,0.9521057000383735,num_4,0.4,1.1,0.5,1.3,19.10275,49.66716,return,2.7306769997812808,,,,,,,,,,,,,,,,,918,19,female,up_down_width,2024-10-30_13h37.15.313,exp1,2023.1.0,60.113205238325584,
,,,,,,,,,,,,,,,,4,8.65,9.55,10.45,11.35,0,0.9,0.35,0.55,3.25,10,initial,36.05,312,344,377,409,0,9,9,9,9,0,,,,,,,2,0,2,0,0,4,4,9,,,,,,,,,,,,num_4,0.9492456999141723,num_4,0.4,1.1,0.45,1.3,17.19248,49.66716,return,2.7659861997235566,,,,,,,,,,,,,,,,,918,19,female,up_down_width,2024-10-30_13h37.15.313,exp1,2023.1.0,60.113205238325584,
,,,,,,,,,,,,,,,,5,8.2,9.1,10,10.9,11.8,0.9,0.35,0.55,4.15,10,initial,36.05,296,328,361,393,425,9,9,9,9,9,,,,,,,2,0,2,0,0,5,5,20,,,,,,,,,,,,num_5,1.4892295999452472,num_5,0.45,0.7,0.5,1.05,19.10275,40.11578,return,4.847292899852619,,,,,,,,,,,,,,,,,918,19,female,up_down_width,2024-10-30_13h37.15.313,exp1,2023.1.0,60.113205238325584,
,,,,,,,,,,,,,,,,4,8.65,9.55,10.45,11.35,0,0.9,0.35,0.55,3.25,10,initial,36.05,312,344,377,409,0,9,9,9,9,0,,,,,,,2,0,2,0,0,6,6,43,,,,,,,,,,,,num_4,1.0646122999023646,num_4,0.35,0.9,0.39999999999999997,1.0,15.2822,38.2055,return,2.365858499892056,,,,,,,,,,,,,,,,,918,19,female,up_down_width,2024-10-30_13h37.15.313,exp1,2023.1.0,60.113205238325584,
,,,,,,,,,,,,,,,,3,9.1,10,10.9,0,0,0.9,0.35,0.55,2.35,10,initial,36.05,328,361,393,0,0,9,9,9,0,0,,,,,,,2,0,2,0,0,7,7,29,,,,,,,,,,,,num_3,1.1290289997123182,num_3,0.25,1.1,0.49999999999999994,1.25,19.10275,47.75688,return,3.86596589977853,,,,,,,,,,,,,,,,,918,19,female,up_down_width,2024-10-30_13h37.15.313,exp1,2023.1.0,60.113205238325584,
,,,,,,,,,,,,,,,,5,8.2,9.1,10,10.9,11.8,0.9,0.35,0.55,4.15,10,initial,36.05,296,328,361,393,425,9,9,9,9,9,,,,,,,2,0,2,0,0,8,8,53,,,,,,,,,,,,num_5,1.1182558999862522,num_5,0.25,0.7,0.39999999999999997,1.05,15.2822,40.11578,return,4.206688799895346,,,,,,,,,,,,,,,,,918,19,female,up_down_width,2024-10-30_13h37.15.313,exp1,2023.1.0,60.113205238325584,
,,,,,,,,,,,,,,,,3,9.1,10,10.9,0,0,0.9,0.35,0.55,2.35,10,initial,36.05,328,361,393,0,0,9,9,9,0,0,,,,,,,2,0,2,0,0,9,9,27,,,,,,,,,,,,num_3,1.1126610999926925,num_3,0.35,0.4,0.35,0.95,13.37193,36.29523,return,8.374806399922818,,,,,,,,,,,,,,,,,918,19,female,up_down_width,2024-10-30_13h37.15.313,exp1,2023.1.0,60.113205238325584,
,,,,,,,,,,,,,,,,3,9.1,10,10.9,0,0,0.9,0.35,0.55,2.35,10,initial,36.05,328,361,393,0,0,9,9,9,0,0,,,,,,,2,0,2,0,0,10,10,3,,,,,,,,,,,,num_3,1.1330299000255764,num_3,0.25,1.3,0.49999999999999994,1.35,19.10275,51.57743,return,3.7259752999525517,,,,,,,,,,,,,,,,,918,19,female,up_down_width,2024-10-30_13h37.15.313,exp1,2023.1.0,60.113205238325584,
,,,,,,,,,,,,,,,,3,9.1,10,10.9,0,0,0.9,0.35,0.55,2.35,10,initial,36.05,328,361,393,0,0,9,9,9,0,0,,,,,,,2,0,2,0,0,11,11,35,,,,,,,,,,,,num_2,1.1553646998945624,num_2,0.55,1.4,0.6000000000000001,1.4,22.9233,53.48771,return,1.3805113998241723,,,,,,,,,,,,,,,,,918,19,female,up_down_width,2024-10-30_13h37.15.313,exp1,2023.1.0,60.113205238325584,
,,,,,,,,,,,,,,,,5,8.2,9.1,10,10.9,11.8,0.9,0.35,0.55,4.15,10,initial,36.05,296,328,361,393,425,9,9,9,9,9,,,,,,,2,0,2,0,0,12,12,51,,,,,,,,,,,,num_5,0.9150024997070432,num_5,0.3,0.7,0.44999999999999996,1.0,17.19248,38.2055,return,3.997875499771908,,,,,,,,,,,,,,,,,918,19,female,up_down_width,2024-10-30_13h37.15.313,exp1,2023.1.0,60.113205238325584,
,,,,,,,,,,,,,,,,4,8.65,9.55,10.45,11.35,0,0.9,0.35,0.55,3.25,10,initial,36.05,312,344,377,409,0,9,9,9,9,0,,,,,,,2,0,2,0,0,13,13,14,,,,,,,,,,,,num_4,1.024531499715522,num_4,0.3,0.7,0.39999999999999997,0.9,15.2822,34.38495,return,2.9668359998613596,,,,,,,,,,,,,,,,,918,19,female,up_down_width,2024-10-30_13h37.15.313,exp1,2023.1.0,60.113205238325584,
,,,,,,,,,,,,,,,,3,9.1,10,10.9,0,0,0.9,0.35,0.55,2.35,10,initial,36.05,328,361,393,0,0,9,9,9,0,0,,,,,,,2,0,2,0,0,14,14,33,,,,,,,,,,,,num_2,0.8204564996995032,num_2,0.5,1.4,0.5,1.9,19.10275,72.59046,return,3.426123899873346,,,,,,,,,,,,,,,,,918,19,female,up_down_width,2024-10-30_13h37.15.313,exp1,2023.1.0,60.113205238325584,
,,,,,,,,,,,,,,,,5,8.2,9.1,10,10.9,11.8,0.9,0.35,0.55,4.15,10,initial,36.05,296,328,361,393,425,9,9,9,9,9,,,,,,,2,0,2,0,0,15,15,50,,,,,,,,,,,,num_5,0.8900242999661714,num_5,0.3,0.4,0.35,1.0,13.37193,38.2055,return,6.399608099833131,,,,,,,,,,,,,,,,,918,19,female,up_down_width,2024-10-30_13h37.15.313,exp1,2023.1.0,60.113205238325584,
,,,,,,,,,,,,,,,,5,8.2,9.1,10,10.9,11.8,0.9,0.35,0.55,4.15,10,initial,36.05,296,328,361,393,425,9,9,9,9,9,,,,,,,2,0,2,0,0,16,16,23,,,,,,,,,,,,num_5,0.8128911997191608,num_5,0.4,0.6,0.4,1.0,15.2822,38.2055,return,3.76999199972488,,,,,,,,,,,,,,,,,918,19,female,up_down_width,2024-10-30_13h37.15.313,exp1,2023.1.0,60.113205238325584,
,,,,,,,,,,,,,,,,4,8.65,9.55,10.45,11.35,0,0.9,0.35,0.55,3.25,10,initial,36.05,312,344,377,409,0,9,9,9,9,0,,,,,,,2,0,2,0,0,17,17,16,,,,,,,,,,,,num_5,0.827322999946773,num_5,0.45,0.5,0.4,1.0,15.2822,38.2055,return,4.360745299840346,,,,,,,,,,,,,,,,,918,19,female,up_down_width,2024-10-30_13h37.15.313,exp1,2023.1.0,60.113205238325584,
,,,,,,,,,,,,,,,,3,9.1,10,10.9,0,0,0.9,0.35,0.55,2.35,10,initial,36.05,328,361,393,0,0,9,9,9,0,0,,,,,,,2,0,2,0,0,18,18,34,,,,,,,,,,,,num_2,1.3185554000083357,num_2,0.35,1.6,0.5499999999999999,1.7,21.01303,64.94936,return,2.7047041000332683,,,,,,,,,,,,,,,,,918,19,female,up_down_width,2024-10-30_13h37.15.313,exp1,2023.1.0,60.113205238325584,
,,,,,,,,,,,,,,,,3,9.1,10,10.9,0,0,0.9,0.35,0.55,2.35,10,initial,36.05,328,361,393,0,0,9,9,9,0,0,,,,,,,2,0,2,0,0,19,19,30,,,,,,,,,,,,num_2,0.8121168999932706,num_2,0.25,0.6,0.5499999999999999,2.0,21.01303,76.41101,return,7.333185299998149,,,,,,,,,,,,,,,,,918,19,female,up_down_width,2024-10-30_13h37.15.313,exp1,2023.1.0,60.113205238325584,
,,,,,,,,,,,,,,,,5,8.2,9.1,10,10.9,11.8,0.9,0.35,0.55,4.15,10,initial,36.05,296,328,361,393,425,9,9,9,9,9,,,,,,,2,0,2,0,0,20,20,26,,,,,,,,,,,,num_5,0.8019289998337626,num_5,0.45,1.0,0.5,1.05,19.10275,40.11578,return,2.3480756001081318,,,,,,,,,,,,,,,,,918,19,female,up_down_width,2024-10-30_13h37.15.313,exp1,2023.1.0,60.113205238325584,
,,,,,,,,,,,,,,,,4,8.65,9.55,10.45,11.35,0,0.9,0.35,0.55,3.25,10,initial,36.05,312,344,377,409,0,9,9,9,9,0,,,,,,,2,0,2,0,0,21,21,10,,,,,,,,,,,,num_4,0.9984518000856042,num_4,0.35,1.3,0.44999999999999996,1.4,17.19248,53.48771,return,3.01933899987489,,,,,,,,,,,,,,,,,918,19,female,up_down_width,2024-10-30_13h37.15.313,exp1,2023.1.0,60.113205238325584,
,,,,,,,,,,,,,,,,3,9.1,10,10.9,0,0,0.9,0.35,0.55,2.35,10,initial,36.05,328,361,393,0,0,9,9,9,0,0,,,,,,,2,0,2,0,0,22,22,1,,,,,,,,,,,,num_2,0.95605059992522,num_2,0.25,1.4,0.44999999999999996,1.5,17.19248,57.30826,return,2.365805800072849,,,,,,,,,,,,,,,,,918,19,female,up_down_width,2024-10-30_13h37.15.313,exp1,2023.1.0,60.113205238325584,
,,,,,,,,,,,,,,,,3,9.1,10,10.9,0,0,0.9,0.35,0.55,2.35,10,initial,36.05,328,361,393,0,0,9,9,9,0,0,,,,,,,2,0,2,0,0,23,23,31,,,,,,,,,,,,num_2,0.7293999998364598,num_2,0.35,1.4,0.49999999999999994,1.6,19.10275,61.12881,return,2.922346899751574,,,,,,,,,,,,,,,,,918,19,female,up_down_width,2024-10-30_13h37.15.313,exp1,2023.1.0,60.113205238325584,
,,,,,,,,,,,,,,,,4,8.65,9.55,10.45,11.35,0,0.9,0.35,0.55,3.25,10,initial,36.05,312,344,377,409,0,9,9,9,9,0,,,,,,,2,0,2,0,0,24,24,37,,,,,,,,,,,,num_3,0.9366391999647021,num_3,0.55,1,0.5,1.4,19.10275,53.48771,return,3.5149775000754744,,,,,,,,,,,,,,,,,918,19,female,up_down_width,2024-10-30_13h37.15.313,exp1,2023.1.0,60.113205238325584,
,,,,,,,,,,,,,,,,4,8.65,9.55,10.45,11.35,0,0.9,0.35,0.55,3.25,10,initial,36.05,312,344,377,409,0,9,9,9,9,0,,,,,,,2,0,2,0,0,25,25,17,,,,,,,,,,,,num_3,0.8541373999323696,num_3,0.3,0.8,0.39999999999999997,1.15,15.2822,43.93633,return,4.130922599928454,,,,,,,,,,,,,,,,,918,19,female,up_down_width,2024-10-30_13h37.15.313,exp1,2023.1.0,60.113205238325584,
,,,,,,,,,,,,,,,,4,8.65,9.55,10.45,11.35,0,0.9,0.35,0.55,3.25,10,initial,36.05,312,344,377,409,0,9,9,9,9,0,,,,,,,2,0,2,0,0,26,26,11,,,,,,,,,,,,num_3,0.8789837998338044,num_3,0.45,0.7,0.4,1.15,15.2822,43.93633,return,5.658796899719164,,,,,,,,,,,,,,,,,918,19,female,up_down_width,2024-10-30_13h37.15.313,exp1,2023.1.0,60.113205238325584,
,,,,,,,,,,,,,,,,5,8.2,9.1,10,10.9,11.8,0.9,0.35,0.55,4.15,10,initial,36.05,296,328,361,393,425,9,9,9,9,9,,,,,,,2,0,2,0,0,27,27,25,,,,,,,,,,,,num_5,0.7478918000124395,num_5,0.4,0.6,0.35000000000000003,0.9,13.37193,34.38495,return,3.578276999760419,,,,,,,,,,,,,,,,,918,19,female,up_down_width,2024-10-30_13h37.15.313,exp1,2023.1.0,60.113205238325584,
,,,,,,,,,,,,,,,,4,8.65,9.55,10.45,11.35,0,0.9,0.35,0.55,3.25,10,initial,36.05,312,344,377,409,0,9,9,9,9,0,,,,,,,2,0,2,0,0,28,28,15,,,,,,,,,,,,num_4,1.1208621999248862,num_4,0.2,0.4,0.5499999999999999,1.0,21.01303,38.2055,return,4.85101730003953,,,,,,,,,,,,,,,,,918,19,female,up_down_width,2024-10-30_13h37.15.313,exp1,2023.1.0,60.113205238325584,
,,,,,,,,,,,,,,,,4,8.65,9.55,10.45,11.35,0,0.9,0.35,0.55,3.25,10,initial,36.05,312,344,377,409,0,9,9,9,9,0,,,,,,,2,0,2,0,0,29,29,38,,,,,,,,,,,,num_5,0.8991930999327451,num_5,0.3,1.1,0.44999999999999996,1.15,17.19248,43.93633,return,5.021509799873456,,,,,,,,,,,,,,,,,918,19,female,up_down_width,2024-10-30_13h37.15.313,exp1,2023.1.0,60.113205238325584,
,,,,,,,,,,,,,,,,3,9.1,10,10.9,0,0,0.9,0.35,0.55,2.35,10,initial,36.05,328,361,393,0,0,9,9,9,0,0,,,,,,,2,0,2,0,0,30,30,32,,,,,,,,,,,,num_3,1.1057173998560756,num_3,0.5,1.2,0.4,1.25,15.2822,47.75688,return,2.915867299772799,,,,,,,,,,,,,,,,,918,19,female,up_down_width,2024-10-30_13h37.15.313,exp1,2023.1.0,60.113205238325584,
,,,,,,,,,,,,,,,,4,8.65,9.55,10.45,11.35,0,0.9,0.35,0.55,3.25,10,initial,36.05,312,344,377,409,0,9,9,9,9,0,,,,,,,2,0,2,0,0,31,31,36,,,,,,,,,,,,num_4,1.001434399979189,num_4,0.45,1.3,0.7000000000000002,1.3,26.74385,49.66716,return,4.472492399858311,,,,,,,,,,,,,,,,,918,19,female,up_down_width,2024-10-30_13h37.15.313,exp1,2023.1.0,60.113205238325584,
,,,,,,,,,,,,,,,,5,8.2,9.1,10,10.9,11.8,0.9,0.35,0.55,4.15,10,initial,36.05,296,328,361,393,425,9,9,9,9,9,,,,,,,2,0,2,0,0,32,32,49,,,,,,,,,,,,num_5,1.0557880999986082,num_5,0.25,1.3,0.5499999999999999,1.35,21.01303,51.57743,return,3.49110440001823,,,,,,,,,,,,,,,,,918,19,female,up_down_width,2024-10-30_13h37.15.313,exp1,2023.1.0,60.113205238325584,
,,,,,,,,,,,,,,,,5,8.2,9.1,10,10.9,11.8,0.9,0.35,0.55,4.15,10,initial,36.05,296,328,361,393,425,9,9,9,9,9,,,,,,,2,0,2,0,0,33,33,45,,,,,,,,,,,,num_5,0.7454877998679876,num_5,0.25,1.3,0.49999999999999994,1.35,19.10275,51.57743,return,2.7526898998767138,,,,,,,,,,,,,,,,,918,19,female,up_down_width,2024-10-30_13h37.15.313,exp1,2023.1.0,60.113205238325584,
,,,,,,,,,,,,,,,,3,9.1,10,10.9,0,0,0.9,0.35,0.55,2.35,10,initial,36.05,328,361,393,0,0,9,9,9,0,0,,,,,,,2,0,2,0,0,34,34,4,,,,,,,,,,,,num_3,0.9492722998838872,num_3,0.35,1.2,0.5499999999999999,1.25,21.01303,47.75688,return,2.139636099804193,,,,,,,,,,,,,,,,,918,19,female,up_down_width,2024-10-30_13h37.15.313,exp1,2023.1.0,60.113205238325584,
,,,,,,,,,,,,,,,,5,8.2,9.1,10,10.9,11.8,0.9,0.35,0.55,4.15,10,initial,36.05,296,328,361,393,425,9,9,9,9,9,,,,,,,2,0,2,0,0,35,35,21,,,,,,,,,,,,num_5,0.8123381999321282,num_5,0.25,0.3,0.44999999999999996,0.7,17.19248,26.74385,return,5.349319200031459,,,,,,,,,,,,,,,,,918,19,female,up_down_width,2024-10-30_13h37.15.313,exp1,2023.1.0,60.113205238325584,
,,,,,,,,,,,,,,,,4,8.65,9.55,10.45,11.35,0,0.9,0.35,0.55,3.25,10,initial,36.05,312,344,377,409,0,9,9,9,9,0,,,,,,,2,0,2,0,0,36,36,42,,,,,,,,,,,,num_4,1.0460154998581856,num_4,0.25,0.4,0.3,0.6,11.46165,22.9233,return,1.866606199881062,,,,,,,,,,,,,,,,,918,19,female,up_down_width,2024-10-30_13h37.15.313,exp1,2023.1.0,60.113205238325584,
,,,,,,,,,,,,,,,,4,8.65,9.55,10.45,11.35,0,0.9,0.35,0.55,3.25,10,initial,36.05,312,344,377,409,0,9,9,9,9,0,,,,,,,2,0,2,0,0,37,37,40,,,,,,,,,,,,num_4,1.2738989000208676,num_4,0.4,0.6,0.7500000000000002,1.1,28.65413,42.02605,return,6.11631829990074,,,,,,,,,,,,,,,,,918,19,female,up_down_width,2024-10-30_13h37.15.313,exp1,2023.1.0,60.113205238325584,
,,,,,,,,,,,,,,,,5,8.2,9.1,10,10.9,11.8,0.9,0.35,0.55,4.15,10,initial,36.05,296,328,361,393,425,9,9,9,9,9,,,,,,,2,0,2,0,0,38,38,18,,,,,,,,,,,,num_5,0.9422834999859333,num_5,0.25,0.4,0.39999999999999997,0.7,15.2822,26.74385,return,5.703684699721634,,,,,,,,,,,,,,,,,918,19,female,up_down_width,2024-10-30_13h37.15.313,exp1,2023.1.0,60.113205238325584,
,,,,,,,,,,,,,,,,3,9.1,10,10.9,0,0,0.9,0.35,0.55,2.35,10,initial,36.05,328,361,393,0,0,9,9,9,0,0,,,,,,,2,0,2,0,0,39,39,8,,,,,,,,,,,,num_3,0.8971476999577135,num_3,0.3,1.2,0.7500000000000001,1.25,28.65413,47.75688,return,3.2749131999444216,,,,,,,,,,,,,,,,,918,19,female,up_down_width,2024-10-30_13h37.15.313,exp1,2023.1.0,60.113205238325584,
,,,,,,,,,,,,,,,,3,9.1,10,10.9,0,0,0.9,0.35,0.55,2.35,10,initial,36.05,328,361,393,0,0,9,9,9,0,0,,,,,,,2,0,2,0,0,40,40,5,,,,,,,,,,,,num_2,1.2325508000794798,num_2,0.35,0.4,0.9000000000000002,1.3,34.38495,49.66716,return,7.213554399786517,,,,,,,,,,,,,,,,,918,19,female,up_down_width,2024-10-30_13h37.15.313,exp1,2023.1.0,60.113205238325584,
,,,,,,,,,,,,,,,,3,9.1,10,10.9,0,0,0.9,0.35,0.55,2.35,10,initial,36.05,328,361,393,0,0,9,9,9,0,0,,,,,,,2,0,2,0,0,41,41,0,,,,,,,,,,,,num_3,1.0927300998009741,num_3,0.25,1.2,0.7000000000000001,1.1,26.74385,42.02605,return,4.962605600012466,,,,,,,,,,,,,,,,,918,19,female,up_down_width,2024-10-30_13h37.15.313,exp1,2023.1.0,60.113205238325584,
,,,,,,,,,,,,,,,,5,8.2,9.1,10,10.9,11.8,0.9,0.35,0.55,4.15,10,initial,36.05,296,328,361,393,425,9,9,9,9,9,,,,,,,2,0,2,0,0,42,42,48,,,,,,,,,,,,num_5,0.7228241998236626,num_5,0.55,0.7,0.6000000000000001,0.85,22.9233,32.47468,return,3.454179299995303,,,,,,,,,,,,,,,,,918,19,female,up_down_width,2024-10-30_13h37.15.313,exp1,2023.1.0,60.113205238325584,
,,,,,,,,,,,,,,,,5,8.2,9.1,10,10.9,11.8,0.9,0.35,0.55,4.15,10,initial,36.05,296,328,361,393,425,9,9,9,9,9,,,,,,,2,0,2,0,0,43,43,22,,,,,,,,,,,,num_5,0.8861458997707814,num_5,0.55,1.0,0.6500000000000001,1.05,24.83358,40.11578,return,2.0904478000011295,,,,,,,,,,,,,,,,,918,19,female,up_down_width,2024-10-30_13h37.15.313,exp1,2023.1.0,60.113205238325584,
,,,,,,,,,,,,,,,,4,8.65,9.55,10.45,11.35,0,0.9,0.35,0.55,3.25,10,initial,36.05,312,344,377,409,0,9,9,9,9,0,,,,,,,2,0,2,0,0,44,44,39,,,,,,,,,,,,num_4,0.8851455000694841,num_4,0.3,0.7,0.49999999999999994,0.8,19.10275,30.5644,return,3.3556842997204512,,,,,,,,,,,,,,,,,918,19,female,up_down_width,2024-10-30_13h37.15.313,exp1,2023.1.0,60.113205238325584,
,,,,,,,,,,,,,,,,5,8.2,9.1,10,10.9,11.8,0.9,0.35,0.55,4.15,10,initial,36.05,296,328,361,393,425,9,9,9,9,9,,,,,,,2,0,2,0,0,45,45,24,,,,,,,,,,,,num_5,0.7958091998007149,num_5,0.2,1.1,0.6,1.15,22.9233,43.93633,return,3.347346300026402,,,,,,,,,,,,,,,,,918,19,female,up_down_width,2024-10-30_13h37.15.313,exp1,2023.1.0,60.113205238325584,
,,,,,,,,,,,,,,,,5,8.2,9.1,10,10.9,11.8,0.9,0.35,0.55,4.15,10,initial,36.05,296,328,361,393,425,9,9,9,9,9,,,,,,,2,0,2,0,0,46,46,46,,,,,,,,,,,,num_5,0.7960627998691052,num_5,0.5,0.6,0.6000000000000001,0.85,22.9233,32.47468,return,5.322193099884316,,,,,,,,,,,,,,,,,918,19,female,up_down_width,2024-10-30_13h37.15.313,exp1,2023.1.0,60.113205238325584,
,,,,,,,,,,,,,,,,4,8.65,9.55,10.45,11.35,0,0.9,0.35,0.55,3.25,10,initial,36.05,312,344,377,409,0,9,9,9,9,0,,,,,,,2,0,2,0,0,47,47,44,,,,,,,,,,,,num_3,0.7663008000236005,num_3,0.2,0.7,0.49999999999999994,0.8,19.10275,30.5644,return,4.1427276998292655,,,,,,,,,,,,,,,,,918,19,female,up_down_width,2024-10-30_13h37.15.313,exp1,2023.1.0,60.113205238325584,
,,,,,,,,,,,,,,,,3,9.1,10,10.9,0,0,0.9,0.35,0.55,2.35,10,initial,36.05,328,361,393,0,0,9,9,9,0,0,,,,,,,2,0,2,0,0,48,48,2,,,,,,,,,,,,num_3,0.7866654999088496,num_3,0.25,1,0.6,1.05,22.9233,40.11578,return,2.785892399959266,,,,,,,,,,,,,,,,,918,19,female,up_down_width,2024-10-30_13h37.15.313,exp1,2023.1.0,60.113205238325584,
,,,,,,,,,,,,,,,,5,8.2,9.1,10,10.9,11.8,0.9,0.35,0.55,4.15,10,initial,36.05,296,328,361,393,425,9,9,9,9,9,,,,,,,2,0,2,0,0,49,49,19,,,,,,,,,,,,num_5,0.7903413998428732,num_5,0.4,1.2,0.6500000000000001,1.25,24.83358,47.75688,return,2.6303266000468284,,,,,,,,,,,,,,,,,918,19,female,up_down_width,2024-10-30_13h37.15.313,exp1,2023.1.0,60.113205238325584,
,,,,,,,,,,,,,,,,3,9.1,10,10.9,0,0,0.9,0.35,0.55,2.35,10,initial,36.05,328,361,393,0,0,9,9,9,0,0,,,,,,,2,0,2,0,0,50,50,28,,,,,,,,,,,,num_3,0.765393499750644,num_3,0.4,0.5,0.6000000000000001,0.8,22.9233,30.5644,return,5.499388499883935,,,,,,,,,,,,,,,,,918,19,female,up_down_width,2024-10-30_13h37.15.313,exp1,2023.1.0,60.113205238325584,
,,,,,,,,,,,,,,,,3,9.1,10,10.9,0,0,0.9,0.35,0.55,2.35,10,initial,36.05,328,361,393,0,0,9,9,9,0,0,,,,,,,2,0,2,0,0,51,51,7,,,,,,,,,,,,num_3,0.7792752999812365,num_3,0.5,1.3,0.8500000000000003,1.3,32.47468,49.66716,return,2.251972099998966,,,,,,,,,,,,,,,,,918,19,female,up_down_width,2024-10-30_13h37.15.313,exp1,2023.1.0,60.113205238325584,
,,,,,,,,,,,,,,,,3,9.1,10,10.9,0,0,0.9,0.35,0.55,2.35,10,initial,36.05,328,361,393,0,0,9,9,9,0,0,,,,,,,2,0,2,0,0,52,52,6,,,,,,,,,,,,num_3,0.8683481998741627,num_3,0.45,0.5,0.6500000000000001,0.95,24.83358,36.29523,return,7.456634399946779,,,,,,,,,,,,,,,,,918,19,female,up_down_width,2024-10-30_13h37.15.313,exp1,2023.1.0,60.113205238325584,
,,,,,,,,,,,,,,,,5,8.2,9.1,10,10.9,11.8,0.9,0.35,0.55,4.15,10,initial,36.05,296,328,361,393,425,9,9,9,9,9,,,,,,,2,0,2,0,0,53,53,52,,,,,,,,,,,,num_5,1.0079506998881698,num_5,0.2,1.1,0.6,0.9,22.9233,34.38495,return,4.723167499760166,,,,,,,,,,,,,,,,,918,19,female,up_down_width,2024-10-30_13h37.15.313,exp1,2023.1.0,60.113205238325584,
,,,,,,,,,,,,,,,,,,,,,,,,,,,,,,,,,,,,,,,,,,,,,2,0,2,0,,,,,,,,,,,,,,,,,,,,,,,,,,,,,1528.993513399968,1528.993513399968,1528.993513399968,,,,,,,,,,,,918,19,female,up_down_width,2024-10-30_13h37.15.313,exp1,2023.1.0,60.113205238325584,
,,,,,,,,,,,,,,,,4,9.25,9.75,10.25,10.75,0,0.5,0.25,0.25,1.75,10,initial,36.05,333,351,370,388,0,9,9,9,9,0,,,,,,,3,0,3,0,0,0,0,37,,,,,,,,,,,,num_3,1.2094898999202996,num_3,0.25,0.9,0.2,0.85,7.6411,32.47468,return,3.457700500031933,,,,,,,,,,,,,,,,,918,19,female,up_down_width,2024-10-30_13h37.15.313,exp1,2023.1.0,60.113205238325584,
,,,,,,,,,,,,,,,,5,9,9.5,10,10.5,11,0.5,0.25,0.25,2.25,10,initial,36.05,324,342,361,379,397,9,9,9,9,9,,,,,,,3,0,3,0,0,1,1,52,,,,,,,,,,,,num_5,0.8587018998805434,num_5,0.4,0.9,0.20000000000000007,0.85,7.6411,32.47468,return,3.1175406998954713,,,,,,,,,,,,,,,,,918,19,female,up_down_width,2024-10-30_13h37.15.313,exp1,2023.1.0,60.113205238325584,
,,,,,,,,,,,,,,,,5,9,9.5,10,10.5,11,0.5,0.25,0.25,2.25,10,initial,36.05,324,342,361,379,397,9,9,9,9,9,,,,,,,3,0,3,0,0,2,2,24,,,,,,,,,,,,num_5,0.9699193998239934,num_5,0.3,1.2,0.10000000000000002,0.55,3.82055,21.01303,return,5.554179299855605,,,,,,,,,,,,,,,,,918,19,female,up_down_width,2024-10-30_13h37.15.313,exp1,2023.1.0,60.113205238325584,
,,,,,,,,,,,,,,,,4,9.25,9.75,10.25,10.75,0,0.5,0.25,0.25,1.75,10,initial,36.05,333,351,370,388,0,9,9,9,9,0,,,,,,,3,0,3,0,0,3,3,44,,,,,,,,,,,,num_4,0.9979499997571111,num_4,0.55,0.9,0.20000000000000007,0.6,7.6411,22.9233,return,3.986056299880147,,,,,,,,,,,,,,,,,918,19,female,up_down_width,2024-10-30_13h37.15.313,exp1,2023.1.0,60.113205238325584,
,,,,,,,,,,,,,,,,5,9,9.5,10,10.5,11,0.5,0.25,0.25,2.25,10,initial,36.05,324,342,361,379,397,9,9,9,9,9,,,,,,,3,0,3,0,0,4,4,45,,,,,,,,,,,,num_5,0.880065499804914,num_5,0.3,1.3,0.2,0.55,7.6411,21.01303,return,4.155391599982977,,,,,,,,,,,,,,,,,918,19,female,up_down_width,2024-10-30_13h37.15.313,exp1,2023.1.0,60.113205238325584,
,,,,,,,,,,,,,,,,4,9.25,9.75,10.25,10.75,0,0.5,0.25,0.25,1.75,10,initial,36.05,333,351,370,388,0,9,9,9,9,0,,,,,,,3,0,3,0,0,5,5,15,,,,,,,,,,,,num_4,0.9907823998946697,num_4,0.45,0.5,0.25000000000000006,0.5,9.55138,19.10275,return,3.653223800007254,,,,,,,,,,,,,,,,,918,19,female,up_down_width,2024-10-30_13h37.15.313,exp1,2023.1.0,60.113205238325584,
,,,,,,,,,,,,,,,,3,9.5,10,10.5,0,0,0.5,0.25,0.25,1.25,10,initial,36.05,342,361,379,0,0,9,9,9,0,0,,,,,,,3,0,3,0,0,6,6,0,,,,,,,,,,,,num_3,0.8121005999855697,num_3,0.35,0.7,0.25,0.5,9.55138,19.10275,return,2.921149600064382,,,,,,,,,,,,,,,,,918,19,female,up_down_width,2024-10-30_13h37.15.313,exp1,2023.1.0,60.113205238325584,
,,,,,,,,,,,,,,,,4,9.25,9.75,10.25,10.75,0,0.5,0.25,0.25,1.75,10,initial,36.05,333,351,370,388,0,9,9,9,9,0,,,,,,,3,0,3,0,0,7,7,17,,,,,,,,,,,,num_4,1.160601699957624,num_4,0.35,0.6,0.25,0.5,9.55138,19.10275,return,3.3291106997057796,,,,,,,,,,,,,,,,,918,19,female,up_down_width,2024-10-30_13h37.15.313,exp1,2023.1.0,60.113205238325584,
,,,,,,,,,,,,,,,,4,9.25,9.75,10.25,10.75,0,0.5,0.25,0.25,1.75,10,initial,36.05,333,351,370,388,0,9,9,9,9,0,,,,,,,3,0,3,0,0,8,8,16,,,,,,,,,,,,num_4,0.8431964998599142,num_4,0.2,0.8,0.25,0.5,9.55138,19.10275,return,2.5176239998545498,,,,,,,,,,,,,,,,,918,19,female,up_down_width,2024-10-30_13h37.15.313,exp1,2023.1.0,60.113205238325584,
,,,,,,,,,,,,,,,,4,9.25,9.75,10.25,10.75,0,0.5,0.25,0.25,1.75,10,initial,36.05,333,351,370,388,0,9,9,9,9,0,,,,,,,3,0,3,0,0,9,9,39,,,,,,,,,,,,num_5,0.9447267998475581,num_5,0.5,0.7,0.25000000000000006,0.6,9.55138,22.9233,return,2.948474199976772,,,,,,,,,,,,,,,,,918,19,female,up_down_width,2024-10-30_13h37.15.313,exp1,2023.1.0,60.113205238325584,
,,,,,,,,,,,,,,,,5,9,9.5,10,10.5,11,0.5,0.25,0.25,2.25,10,initial,36.05,324,342,361,379,397,9,9,9,9,9,,,,,,,3,0,3,0,0,10,10,18,,,,,,,,,,,,num_5,0.8215976997744292,num_5,0.4,0.5,0.20000000000000007,0.35,7.6411,13.37193,return,4.243532400112599,,,,,,,,,,,,,,,,,918,19,female,up_down_width,2024-10-30_13h37.15.313,exp1,2023.1.0,60.113205238325584,
,,,,,,,,,,,,,,,,5,9,9.5,10,10.5,11,0.5,0.25,0.25,2.25,10,initial,36.05,324,342,361,379,397,9,9,9,9,9,,,,,,,3,0,3,0,0,11,11,48,,,,,,,,,,,,num_5,0.9956152997910976,num_5,0.4,0.7,0.20000000000000007,0.55,7.6411,21.01303,return,3.14742249972187,,,,,,,,,,,,,,,,,918,19,female,up_down_width,2024-10-30_13h37.15.313,exp1,2023.1.0,60.113205238325584,
,,,,,,,,,,,,,,,,3,9.5,10,10.5,0,0,0.5,0.25,0.25,1.25,10,initial,36.05,342,361,379,0,0,9,9,9,0,0,,,,,,,3,0,3,0,0,12,12,5,,,,,,,,,,,,num_3,0.8141112998127937,num_3,0.55,0.8,0.20000000000000007,0.4,7.6411,15.2822,return,3.976429699920118,,,,,,,,,,,,,,,,,918,19,female,up_down_width,2024-10-30_13h37.15.313,exp1,2023.1.0,60.113205238325584,
,,,,,,,,,,,,,,,,5,9,9.5,10,10.5,11,0.5,0.25,0.25,2.25,10,initial,36.05,324,342,361,379,397,9,9,9,9,9,,,,,,,3,0,3,0,0,13,13,21,,,,,,,,,,,,num_5,0.8267730998340994,num_5,0.35,1.3,0.2,0.45,7.6411,17.19248,return,6.131888099946082,,,,,,,,,,,,,,,,,918,19,female,up_down_width,2024-10-30_13h37.15.313,exp1,2023.1.0,60.113205238325584,
,,,,,,,,,,,,,,,,4,9.25,9.75,10.25,10.75,0,0.5,0.25,0.25,1.75,10,initial,36.05,333,351,370,388,0,9,9,9,9,0,,,,,,,3,0,3,0,0,14,14,38,,,,,,,,,,,,num_4,0.9572610999457538,num_4,0.35,0.6,0.2,0.4,7.6411,15.2822,return,2.4355031999293715,,,,,,,,,,,,,,,,,918,19,female,up_down_width,2024-10-30_13h37.15.313,exp1,2023.1.0,60.113205238325584,
,,,,,,,,,,,,,,,,5,9,9.5,10,10.5,11,0.5,0.25,0.25,2.25,10,initial,36.05,324,342,361,379,397,9,9,9,9,9,,,,,,,3,0,3,0,0,15,15,22,,,,,,,,,,,,num_5,1.1370741000864655,num_5,0.55,0.6,0.20000000000000007,0.4,7.6411,15.2822,return,3.907193999970332,,,,,,,,,,,,,,,,,918,19,female,up_down_width,2024-10-30_13h37.15.313,exp1,2023.1.0,60.113205238325584,
,,,,,,,,,,,,,,,,3,9.5,10,10.5,0,0,0.5,0.25,0.25,1.25,10,initial,36.05,342,361,379,0,0,9,9,9,0,0,,,,,,,3,0,3,0,0,16,16,6,,,,,,,,,,,,num_3,1.246870799921453,num_3,0.25,1,0.3,0.6,11.46165,22.9233,return,2.9979139000643045,,,,,,,,,,,,,,,,,918,19,female,up_down_width,2024-10-30_13h37.15.313,exp1,2023.1.0,60.113205238325584,
,,,,,,,,,,,,,,,,4,9.25,9.75,10.25,10.75,0,0.5,0.25,0.25,1.75,10,initial,36.05,333,351,370,388,0,9,9,9,9,0,,,,,,,3,0,3,0,0,17,17,36,,,,,,,,,,,,num_4,1.5433338999282569,num_4,0.35,1.2,0.25,0.4,9.55138,15.2822,return,3.5409754998981953,,,,,,,,,,,,,,,,,918,19,female,up_down_width,2024-10-30_13h37.15.313,exp1,2023.1.0,60.113205238325584,
,,,,,,,,,,,,,,,,4,9.25,9.75,10.25,10.75,0,0.5,0.25,0.25,1.75,10,initial,36.05,333,351,370,388,0,9,9,9,9,0,,,,,,,3,0,3,0,0,18,18,11,,,,,,,,,,,,num_3,0.9303583998698741,num_3,0.35,0.9,0.25,0.45,9.55138,17.19248,return,4.378595599904656,,,,,,,,,,,,,,,,,918,19,female,up_down_width,2024-10-30_13h37.15.313,exp1,2023.1.0,60.113205238325584,
,,,,,,,,,,,,,,,,4,9.25,9.75,10.25,10.75,0,0.5,0.25,0.25,1.75,10,initial,36.05,333,351,370,388,0,9,9,9,9,0,,,,,,,3,0,3,0,0,19,19,13,,,,,,,,,,,,num_5,2.276209599804133,num_5,0.3,1.1,0.3,0.65,11.46165,24.83358,return,4.180357899982482,,,,,,,,,,,,,,,,,918,19,female,up_down_width,2024-10-30_13h37.15.313,exp1,2023.1.0,60.113205238325584,
,,,,,,,,,,,,,,,,4,9.25,9.75,10.25,10.75,0,0.5,0.25,0.25,1.75,10,initial,36.05,333,351,370,388,0,9,9,9,9,0,,,,,,,3,0,3,0,0,20,20,9,,,,,,,,,,,,num_4,0.8266384999733418,num_4,0.45,1.0,0.35000000000000003,0.6,13.37193,22.9233,return,4.616317899897695,,,,,,,,,,,,,,,,,918,19,female,up_down_width,2024-10-30_13h37.15.313,exp1,2023.1.0,60.113205238325584,
,,,,,,,,,,,,,,,,3,9.5,10,10.5,0,0,0.5,0.25,0.25,1.25,10,initial,36.05,342,361,379,0,0,9,9,9,0,0,,,,,,,3,0,3,0,0,21,21,4,,,,,,,,,,,,num_2,0.8667419999837875,num_2,0.4,0.6,0.30000000000000004,0.7,11.46165,26.74385,return,3.0515653998591006,,,,,,,,,,,,,,,,,918,19,female,up_down_width,2024-10-30_13h37.15.313,exp1,2023.1.0,60.113205238325584,
,,,,,,,,,,,,,,,,3,9.5,10,10.5,0,0,0.5,0.25,0.25,1.25,10,initial,36.05,342,361,379,0,0,9,9,9,0,0,,,,,,,3,0,3,0,0,22,22,35,,,,,,,,,,,,num_2,0.8886680998839438,num_2,0.25,1.2,0.3,0.5,11.46165,19.10275,return,5.937345099868253,,,,,,,,,,,,,,,,,918,19,female,up_down_width,2024-10-30_13h37.15.313,exp1,2023.1.0,60.113205238325584,
,,,,,,,,,,,,,,,,3,9.5,10,10.5,0,0,0.5,0.25,0.25,1.25,10,initial,36.05,342,361,379,0,0,9,9,9,0,0,,,,,,,3,0,3,0,0,23,23,1,,,,,,,,,,,,num_2,1.0010284997988492,num_2,0.45,1.2,0.25000000000000006,0.4,9.55138,15.2822,return,3.8387897997163236,,,,,,,,,,,,,,,,,918,19,female,up_down_width,2024-10-30_13h37.15.313,exp1,2023.1.0,60.113205238325584,
,,,,,,,,,,,,,,,,5,9,9.5,10,10.5,11,0.5,0.25,0.25,2.25,10,initial,36.05,324,342,361,379,397,9,9,9,9,9,,,,,,,3,0,3,0,0,24,24,50,,,,,,,,,,,,num_4,1.2664605998434126,num_4,0.3,1.1,0.3,0.5,11.46165,19.10275,return,4.719709299737588,,,,,,,,,,,,,,,,,918,19,female,up_down_width,2024-10-30_13h37.15.313,exp1,2023.1.0,60.113205238325584,
,,,,,,,,,,,,,,,,5,9,9.5,10,10.5,11,0.5,0.25,0.25,2.25,10,initial,36.05,324,342,361,379,397,9,9,9,9,9,,,,,,,3,0,3,0,0,25,25,26,,,,,,,,,,,,num_5,0.8163236000109464,num_5,0.45,0.5,0.30000000000000004,0.45,11.46165,17.19248,return,2.510417199926451,,,,,,,,,,,,,,,,,918,19,female,up_down_width,2024-10-30_13h37.15.313,exp1,2023.1.0,60.113205238325584,
,,,,,,,,,,,,,,,,4,9.25,9.75,10.25,10.75,0,0.5,0.25,0.25,1.75,10,initial,36.05,333,351,370,388,0,9,9,9,9,0,,,,,,,3,0,3,0,0,26,26,42,,,,,,,,,,,,num_5,0.9518775998149067,num_5,0.25,0.7,0.2,0.35,7.6411,13.37193,return,3.809187299804762,,,,,,,,,,,,,,,,,918,19,female,up_down_width,2024-10-30_13h37.15.313,exp1,2023.1.0,60.113205238325584,
,,,,,,,,,,,,,,,,3,9.5,10,10.5,0,0,0.5,0.25,0.25,1.25,10,initial,36.05,342,361,379,0,0,9,9,9,0,0,,,,,,,3,0,3,0,0,27,27,28,,,,,,,,,,,,num_3,1.135603199712932,num_3,0.2,1.1,0.25,0.55,9.55138,21.01303,return,4.687621999764815,,,,,,,,,,,,,,,,,918,19,female,up_down_width,2024-10-30_13h37.15.313,exp1,2023.1.0,60.113205238325584,
,,,,,,,,,,,,,,,,5,9,9.5,10,10.5,11,0.5,0.25,0.25,2.25,10,initial,36.05,324,342,361,379,397,9,9,9,9,9,,,,,,,3,0,3,0,0,28,28,25,,,,,,,,,,,,num_5,0.9077901998534799,num_5,0.55,0.6,0.30000000000000004,0.55,11.46165,21.01303,return,3.6976429999340326,,,,,,,,,,,,,,,,,918,19,female,up_down_width,2024-10-30_13h37.15.313,exp1,2023.1.0,60.113205238325584,
,,,,,,,,,,,,,,,,3,9.5,10,10.5,0,0,0.5,0.25,0.25,1.25,10,initial,36.05,342,361,379,0,0,9,9,9,0,0,,,,,,,3,0,3,0,0,29,29,30,,,,,,,,,,,,num_3,1.0141783999279141,num_3,0.2,1.1,0.3,0.55,11.46165,21.01303,return,3.9968266000505537,,,,,,,,,,,,,,,,,918,19,female,up_down_width,2024-10-30_13h37.15.313,exp1,2023.1.0,60.113205238325584,
,,,,,,,,,,,,,,,,4,9.25,9.75,10.25,10.75,0,0.5,0.25,0.25,1.75,10,initial,36.05,333,351,370,388,0,9,9,9,9,0,,,,,,,3,0,3,0,0,30,30,43,,,,,,,,,,,,num_4,1.352756599895656,num_4,0.25,1.0,0.25,0.5,9.55138,19.10275,return,3.328456799732521,,,,,,,,,,,,,,,,,918,19,female,up_down_width,2024-10-30_13h37.15.313,exp1,2023.1.0,60.113205238325584,
,,,,,,,,,,,,,,,,4,9.25,9.75,10.25,10.75,0,0.5,0.25,0.25,1.75,10,initial,36.05,333,351,370,388,0,9,9,9,9,0,,,,,,,3,0,3,0,0,31,31,40,,,,,,,,,,,,num_3,0.9012961997650564,num_3,0.4,1.3,0.30000000000000004,0.6,11.46165,22.9233,return,4.801372499903664,,,,,,,,,,,,,,,,,918,19,female,up_down_width,2024-10-30_13h37.15.313,exp1,2023.1.0,60.113205238325584,
,,,,,,,,,,,,,,,,5,9,9.5,10,10.5,11,0.5,0.25,0.25,2.25,10,initial,36.05,324,342,361,379,397,9,9,9,9,9,,,,,,,3,0,3,0,0,32,32,51,,,,,,,,,,,,num_5,1.2677005999721587,num_5,0.25,0.4,0.25,0.45,9.55138,17.19248,return,5.1955405997578055,,,,,,,,,,,,,,,,,918,19,female,up_down_width,2024-10-30_13h37.15.313,exp1,2023.1.0,60.113205238325584,
,,,,,,,,,,,,,,,,4,9.25,9.75,10.25,10.75,0,0.5,0.25,0.25,1.75,10,initial,36.05,333,351,370,388,0,9,9,9,9,0,,,,,,,3,0,3,0,0,33,33,41,,,,,,,,,,,,num_4,0.9687764998525381,num_4,0.3,0.4,0.25,0.5,9.55138,19.10275,return,3.234528999775648,,,,,,,,,,,,,,,,,918,19,female,up_down_width,2024-10-30_13h37.15.313,exp1,2023.1.0,60.113205238325584,
,,,,,,,,,,,,,,,,3,9.5,10,10.5,0,0,0.5,0.25,0.25,1.25,10,initial,36.05,342,361,379,0,0,9,9,9,0,0,,,,,,,3,0,3,0,0,34,34,27,,,,,,,,,,,,num_3,0.9847201998345554,num_3,0.25,0.8,0.3,0.5,11.46165,19.10275,return,2.7808077998925,,,,,,,,,,,,,,,,,918,19,female,up_down_width,2024-10-30_13h37.15.313,exp1,2023.1.0,60.113205238325584,
,,,,,,,,,,,,,,,,5,9,9.5,10,10.5,11,0.5,0.25,0.25,2.25,10,initial,36.05,324,342,361,379,397,9,9,9,9,9,,,,,,,3,0,3,0,0,35,35,49,,,,,,,,,,,,num_5,0.895540300058201,num_5,0.45,0.5,0.25000000000000006,0.4,9.55138,15.2822,return,5.33281259983778,,,,,,,,,,,,,,,,,918,19,female,up_down_width,2024-10-30_13h37.15.313,exp1,2023.1.0,60.113205238325584,
,,,,,,,,,,,,,,,,4,9.25,9.75,10.25,10.75,0,0.5,0.25,0.25,1.75,10,initial,36.05,333,351,370,388,0,9,9,9,9,0,,,,,,,3,0,3,0,0,36,36,12,,,,,,,,,,,,num_4,1.0216787999961525,num_4,0.55,0.7,0.30000000000000004,0.5,11.46165,19.10275,return,3.107088999822736,,,,,,,,,,,,,,,,,918,19,female,up_down_width,2024-10-30_13h37.15.313,exp1,2023.1.0,60.113205238325584,
,,,,,,,,,,,,,,,,5,9,9.5,10,10.5,11,0.5,0.25,0.25,2.25,10,initial,36.05,324,342,361,379,397,9,9,9,9,9,,,,,,,3,0,3,0,0,37,37,53,,,,,,,,,,,,num_4,1.0657744999043643,num_4,0.55,0.6,0.35000000000000003,0.5,13.37193,19.10275,return,2.6691531997639686,,,,,,,,,,,,,,,,,918,19,female,up_down_width,2024-10-30_13h37.15.313,exp1,2023.1.0,60.113205238325584,
,,,,,,,,,,,,,,,,3,9.5,10,10.5,0,0,0.5,0.25,0.25,1.25,10,initial,36.05,342,361,379,0,0,9,9,9,0,0,,,,,,,3,0,3,0,0,38,38,29,,,,,,,,,,,,num_2,0.7909784000366926,num_2,0.55,0.6,0.4,0.6,15.2822,22.9233,return,4.869250999996439,,,,,,,,,,,,,,,,,918,19,female,up_down_width,2024-10-30_13h37.15.313,exp1,2023.1.0,60.113205238325584,
,,,,,,,,,,,,,,,,3,9.5,10,10.5,0,0,0.5,0.25,0.25,1.25,10,initial,36.05,342,361,379,0,0,9,9,9,0,0,,,,,,,3,0,3,0,0,39,39,34,,,,,,,,,,,,num_2,0.836994000012055,num_2,0.25,0.6,0.39999999999999997,0.6,15.2822,22.9233,return,2.350249799899757,,,,,,,,,,,,,,,,,918,19,female,up_down_width,2024-10-30_13h37.15.313,exp1,2023.1.0,60.113205238325584,
,,,,,,,,,,,,,,,,3,9.5,10,10.5,0,0,0.5,0.25,0.25,1.25,10,initial,36.05,342,361,379,0,0,9,9,9,0,0,,,,,,,3,0,3,0,0,40,40,2,,,,,,,,,,,,num_2,0.9226633999496698,num_2,0.25,1.4,0.3,0.5,11.46165,19.10275,return,3.732326899887994,,,,,,,,,,,,,,,,,918,19,female,up_down_width,2024-10-30_13h37.15.313,exp1,2023.1.0,60.113205238325584,
,,,,,,,,,,,,,,,,3,9.5,10,10.5,0,0,0.5,0.25,0.25,1.25,10,initial,36.05,342,361,379,0,0,9,9,9,0,0,,,,,,,3,0,3,0,0,41,41,33,,,,,,,,,,,,num_2,0.691013699863106,num_2,0.5,0.6,0.35000000000000003,0.7,13.37193,26.74385,return,3.4616545997560024,,,,,,,,,,,,,,,,,918,19,female,up_down_width,2024-10-30_13h37.15.313,exp1,2023.1.0,60.113205238325584,
,,,,,,,,,,,,,,,,5,9,9.5,10,10.5,11,0.5,0.25,0.25,2.25,10,initial,36.05,324,342,361,379,397,9,9,9,9,9,,,,,,,3,0,3,0,0,42,42,23,,,,,,,,,,,,num_4,0.9114269998390228,num_4,0.2,0.3,0.3,0.6,11.46165,22.9233,return,4.405683199875057,,,,,,,,,,,,,,,,,918,19,female,up_down_width,2024-10-30_13h37.15.313,exp1,2023.1.0,60.113205238325584,
,,,,,,,,,,,,,,,,4,9.25,9.75,10.25,10.75,0,0.5,0.25,0.25,1.75,10,initial,36.05,333,351,370,388,0,9,9,9,9,0,,,,,,,3,0,3,0,0,43,43,14,,,,,,,,,,,,num_4,0.8856985997408628,num_4,0.2,1.0,0.3,0.6,11.46165,22.9233,return,4.304565500002354,,,,,,,,,,,,,,,,,918,19,female,up_down_width,2024-10-30_13h37.15.313,exp1,2023.1.0,60.113205238325584,
,,,,,,,,,,,,,,,,3,9.5,10,10.5,0,0,0.5,0.25,0.25,1.25,10,initial,36.05,342,361,379,0,0,9,9,9,0,0,,,,,,,3,0,3,0,0,44,44,8,,,,,,,,,,,,num_2,0.706751799909398,num_2,0.55,0.6,0.45,0.7,17.19248,26.74385,return,3.3325309997890145,,,,,,,,,,,,,,,,,918,19,female,up_down_width,2024-10-30_13h37.15.313,exp1,2023.1.0,60.113205238325584,
,,,,,,,,,,,,,,,,5,9,9.5,10,10.5,11,0.5,0.25,0.25,2.25,10,initial,36.05,324,342,361,379,397,9,9,9,9,9,,,,,,,3,0,3,0,0,45,45,20,,,,,,,,,,,,num_5,0.8889945996925235,num_5,0.45,1.0,0.35000000000000003,0.6,13.37193,22.9233,return,4.350758400047198,,,,,,,,,,,,,,,,,918,19,female,up_down_width,2024-10-30_13h37.15.313,exp1,2023.1.0,60.113205238325584,
,,,,,,,,,,,,,,,,3,9.5,10,10.5,0,0,0.5,0.25,0.25,1.25,10,initial,36.05,342,361,379,0,0,9,9,9,0,0,,,,,,,3,0,3,0,0,46,46,32,,,,,,,,,,,,num_2,0.8091792997438461,num_2,0.5,1.0,0.35000000000000003,0.7,13.37193,26.74385,return,2.6561606999021024,,,,,,,,,,,,,,,,,918,19,female,up_down_width,2024-10-30_13h37.15.313,exp1,2023.1.0,60.113205238325584,
,,,,,,,,,,,,,,,,5,9,9.5,10,10.5,11,0.5,0.25,0.25,2.25,10,initial,36.05,324,342,361,379,397,9,9,9,9,9,,,,,,,3,0,3,0,0,47,47,47,,,,,,,,,,,,num_5,1.0989251998253167,num_5,0.55,0.8,0.4,0.75,15.2822,28.65413,return,4.573118000058457,,,,,,,,,,,,,,,,,918,19,female,up_down_width,2024-10-30_13h37.15.313,exp1,2023.1.0,60.113205238325584,
,,,,,,,,,,,,,,,,5,9,9.5,10,10.5,11,0.5,0.25,0.25,2.25,10,initial,36.05,324,342,361,379,397,9,9,9,9,9,,,,,,,3,0,3,0,0,48,48,19,,,,,,,,,,,,num_5,1.6160450999159366,num_5,0.45,1.2,0.4,0.75,15.2822,28.65413,return,3.2134642999153584,,,,,,,,,,,,,,,,,918,19,female,up_down_width,2024-10-30_13h37.15.313,exp1,2023.1.0,60.113205238325584,
,,,,,,,,,,,,,,,,3,9.5,10,10.5,0,0,0.5,0.25,0.25,1.25,10,initial,36.05,342,361,379,0,0,9,9,9,0,0,,,,,,,3,0,3,0,0,49,49,7,,,,,,,,,,,,num_2,0.9976870999671519,num_2,0.2,1.2,0.3,0.7,11.46165,26.74385,return,2.4215027997270226,,,,,,,,,,,,,,,,,918,19,female,up_down_width,2024-10-30_13h37.15.313,exp1,2023.1.0,60.113205238325584,
,,,,,,,,,,,,,,,,4,9.25,9.75,10.25,10.75,0,0.5,0.25,0.25,1.75,10,initial,36.05,333,351,370,388,0,9,9,9,9,0,,,,,,,3,0,3,0,0,50,50,10,,,,,,,,,,,,num_4,1.0766295997891575,num_4,0.3,1.0,0.3,0.5,11.46165,19.10275,return,3.4446024999488145,,,,,,,,,,,,,,,,,918,19,female,up_down_width,2024-10-30_13h37.15.313,exp1,2023.1.0,60.113205238325584,
,,,,,,,,,,,,,,,,5,9,9.5,10,10.5,11,0.5,0.25,0.25,2.25,10,initial,36.05,324,342,361,379,397,9,9,9,9,9,,,,,,,3,0,3,0,0,51,51,46,,,,,,,,,,,,num_4,1.0033789998851717,num_4,0.5,1.0,0.45,0.8,17.19248,30.5644,return,2.2386251997668296,,,,,,,,,,,,,,,,,918,19,female,up_down_width,2024-10-30_13h37.15.313,exp1,2023.1.0,60.113205238325584,
,,,,,,,,,,,,,,,,3,9.5,10,10.5,0,0,0.5,0.25,0.25,1.25,10,initial,36.05,342,361,379,0,0,9,9,9,0,0,,,,,,,3,0,3,0,0,52,52,3,,,,,,,,,,,,num_2,0.8423733997624367,num_2,0.35,0.6,0.35,0.8,13.37193,30.5644,return,2.4960174998268485,,,,,,,,,,,,,,,,,918,19,female,up_down_width,2024-10-30_13h37.15.313,exp1,2023.1.0,60.113205238325584,
,,,,,,,,,,,,,,,,3,9.5,10,10.5,0,0,0.5,0.25,0.25,1.25,10,initial,36.05,342,361,379,0,0,9,9,9,0,0,,,,,,,3,0,3,0,0,53,53,31,,,,,,,,,,,,num_2,0.7739124000072479,num_2,0.35,0.6,0.35,0.8,13.37193,30.5644,return,1.7985630999319255,,,,,,,,,,,,,,,,,918,19,female,up_down_width,2024-10-30_13h37.15.313,exp1,2023.1.0,60.113205238325584,
,,,,,,,,,,,,,,,,,,,,,,,,,,,,,,,,,,,,,,,,,,,,,3,0,3,0,,,,,,,,,,,,,,,,,,,,,,,,,,,,,1892.4594237001147,1892.4594237001147,1892.4594237001147,,,,,,,,,,,,918,19,female,up_down_width,2024-10-30_13h37.15.313,exp1,2023.1.0,60.113205238325584,
,,,,,,,,,,,,,,,,4,8.65,9.55,10.45,11.35,0,0.9,0.35,0.55,3.25,10,initial,36.05,312,344,377,409,0,9,9,9,9,0,,,,,,,4,0,4,0,0,0,0,36,,,,,,,,,,,,num_3,1.106921099824831,num_3,0.3,0.5,0.6,0.8,22.9233,30.5644,return,4.100830499781296,,,,,,,,,,,,,,,,,918,19,female,up_down_width,2024-10-30_13h37.15.313,exp1,2023.1.0,60.113205238325584,
,,,,,,,,,,,,,,,,5,8.2,9.1,10,10.9,11.8,0.9,0.35,0.55,4.15,10,initial,36.05,296,328,361,393,425,9,9,9,9,9,,,,,,,4,0,4,0,0,1,1,25,,,,,,,,,,,,num_5,0.9146251997444779,num_5,0.25,0.3,0.49999999999999994,0.75,19.10275,28.65413,return,6.3014685998205096,,,,,,,,,,,,,,,,,918,19,female,up_down_width,2024-10-30_13h37.15.313,exp1,2023.1.0,60.113205238325584,
,,,,,,,,,,,,,,,,3,9.1,10,10.9,0,0,0.9,0.35,0.55,2.35,10,initial,36.05,328,361,393,0,0,9,9,9,0,0,,,,,,,4,0,4,0,0,2,2,27,,,,,,,,,,,,num_3,0.8780988999642432,num_3,0.4,1.1,0.6500000000000001,1.05,24.83358,40.11578,return,2.3577198998536915,,,,,,,,,,,,,,,,,918,19,female,up_down_width,2024-10-30_13h37.15.313,exp1,2023.1.0,60.113205238325584,
,,,,,,,,,,,,,,,,4,8.65,9.55,10.45,11.35,0,0.9,0.35,0.55,3.25,10,initial,36.05,312,344,377,409,0,9,9,9,9,0,,,,,,,4,0,4,0,0,3,3,16,,,,,,,,,,,,num_3,0.9683602000586689,num_3,0.2,0.6,0.49999999999999994,0.7,19.10275,26.74385,return,3.200324499979615,,,,,,,,,,,,,,,,,918,19,female,up_down_width,2024-10-30_13h37.15.313,exp1,2023.1.0,60.113205238325584,
,,,,,,,,,,,,,,,,5,8.2,9.1,10,10.9,11.8,0.9,0.35,0.55,4.15,10,initial,36.05,296,328,361,393,425,9,9,9,9,9,,,,,,,4,0,4,0,0,4,4,19,,,,,,,,,,,,num_5,0.7828911999240518,num_5,0.55,1.2,0.6500000000000001,1.05,24.83358,40.11578,return,2.7129831998609006,,,,,,,,,,,,,,,,,918,19,female,up_down_width,2024-10-30_13h37.15.313,exp1,2023.1.0,60.113205238325584,
,,,,,,,,,,,,,,,,3,9.1,10,10.9,0,0,0.9,0.35,0.55,2.35,10,initial,36.05,328,361,393,0,0,9,9,9,0,0,,,,,,,4,0,4,0,0,5,5,29,,,,,,,,,,,,num_3,0.8029533999506384,num_3,0.2,0.9,0.5499999999999999,0.9,21.01303,34.38495,return,2.0453956997953355,,,,,,,,,,,,,,,,,918,19,female,up_down_width,2024-10-30_13h37.15.313,exp1,2023.1.0,60.113205238325584,
,,,,,,,,,,,,,,,,5,8.2,9.1,10,10.9,11.8,0.9,0.35,0.55,4.15,10,initial,36.05,296,328,361,393,425,9,9,9,9,9,,,,,,,4,0,4,0,0,6,6,50,,,,,,,,,,,,num_5,0.8973085999023169,num_5,0.45,0.5,0.55,0.85,21.01303,32.47468,return,4.071702999761328,,,,,,,,,,,,,,,,,918,19,female,up_down_width,2024-10-30_13h37.15.313,exp1,2023.1.0,60.113205238325584,
,,,,,,,,,,,,,,,,5,8.2,9.1,10,10.9,11.8,0.9,0.35,0.55,4.15,10,initial,36.05,296,328,361,393,425,9,9,9,9,9,,,,,,,4,0,4,0,0,7,7,46,,,,,,,,,,,,num_5,0.7420134998392314,num_5,0.4,1.2,0.6000000000000001,1.1,22.9233,42.02605,return,1.9716841999907047,,,,,,,,,,,,,,,,,918,19,female,up_down_width,2024-10-30_13h37.15.313,exp1,2023.1.0,60.113205238325584,
,,,,,,,,,,,,,,,,4,8.65,9.55,10.45,11.35,0,0.9,0.35,0.55,3.25,10,initial,36.05,312,344,377,409,0,9,9,9,9,0,,,,,,,4,0,4,0,0,8,8,39,,,,,,,,,,,,num_4,0.7940720999613404,num_4,0.4,0.5,0.5,0.8,19.10275,30.5644,return,3.1446472997777164,,,,,,,,,,,,,,,,,918,19,female,up_down_width,2024-10-30_13h37.15.313,exp1,2023.1.0,60.113205238325584,
,,,,,,,,,,,,,,,,5,8.2,9.1,10,10.9,11.8,0.9,0.35,0.55,4.15,10,initial,36.05,296,328,361,393,425,9,9,9,9,9,,,,,,,4,0,4,0,0,9,9,53,,,,,,,,,,,,num_5,0.7444356998894364,num_5,0.5,0.6,0.55,0.7,21.01303,26.74385,return,1.7850375999696553,,,,,,,,,,,,,,,,,918,19,female,up_down_width,2024-10-30_13h37.15.313,exp1,2023.1.0,60.113205238325584,
,,,,,,,,,,,,,,,,3,9.1,10,10.9,0,0,0.9,0.35,0.55,2.35,10,initial,36.05,328,361,393,0,0,9,9,9,0,0,,,,,,,4,0,4,0,0,10,10,31,,,,,,,,,,,,num_3,0.8422661998774856,num_3,0.45,0.6,0.55,0.8,21.01303,30.5644,return,3.6071740000043064,,,,,,,,,,,,,,,,,918,19,female,up_down_width,2024-10-30_13h37.15.313,exp1,2023.1.0,60.113205238325584,
,,,,,,,,,,,,,,,,3,9.1,10,10.9,0,0,0.9,0.35,0.55,2.35,10,initial,36.05,328,361,393,0,0,9,9,9,0,0,,,,,,,4,0,4,0,0,11,11,35,,,,,,,,,,,,num_3,0.8875750997103751,num_3,0.35,0.7,0.49999999999999994,0.7,19.10275,26.74385,return,3.134415099862963,,,,,,,,,,,,,,,,,918,19,female,up_down_width,2024-10-30_13h37.15.313,exp1,2023.1.0,60.113205238325584,
,,,,,,,,,,,,,,,,5,8.2,9.1,10,10.9,11.8,0.9,0.35,0.55,4.15,10,initial,36.05,296,328,361,393,425,9,9,9,9,9,,,,,,,4,0,4,0,0,12,12,22,,,,,,,,,,,,num_4,0.8187156999483705,num_4,0.2,1.2,0.6,0.8,22.9233,30.5644,return,5.306237799813971,,,,,,,,,,,,,,,,,918,19,female,up_down_width,2024-10-30_13h37.15.313,exp1,2023.1.0,60.113205238325584,
,,,,,,,,,,,,,,,,3,9.1,10,10.9,0,0,0.9,0.35,0.55,2.35,10,initial,36.05,328,361,393,0,0,9,9,9,0,0,,,,,,,4,0,4,0,0,13,13,33,,,,,,,,,,,,num_3,0.6775882998481393,num_3,0.5,1.1,0.6500000000000001,0.95,24.83358,36.29523,return,3.0617743998300284,,,,,,,,,,,,,,,,,918,19,female,up_down_width,2024-10-30_13h37.15.313,exp1,2023.1.0,60.113205238325584,
,,,,,,,,,,,,,,,,4,8.65,9.55,10.45,11.35,0,0.9,0.35,0.55,3.25,10,initial,36.05,312,344,377,409,0,9,9,9,9,0,,,,,,,4,0,4,0,0,14,14,10,,,,,,,,,,,,num_4,0.7674544998444617,num_4,0.2,0.7,0.49999999999999994,0.7,19.10275,26.74385,return,1.8688103000167757,,,,,,,,,,,,,,,,,918,19,female,up_down_width,2024-10-30_13h37.15.313,exp1,2023.1.0,60.113205238325584,
,,,,,,,,,,,,,,,,4,8.65,9.55,10.45,11.35,0,0.9,0.35,0.55,3.25,10,initial,36.05,312,344,377,409,0,9,9,9,9,0,,,,,,,4,0,4,0,0,15,15,42,,,,,,,,,,,,num_4,0.6383147998712957,num_4,0.45,0.6,0.5,0.8,19.10275,30.5644,return,2.720386799890548,,,,,,,,,,,,,,,,,918,19,female,up_down_width,2024-10-30_13h37.15.313,exp1,2023.1.0,60.113205238325584,
,,,,,,,,,,,,,,,,5,8.2,9.1,10,10.9,11.8,0.9,0.35,0.55,4.15,10,initial,36.05,296,328,361,393,425,9,9,9,9,9,,,,,,,4,0,4,0,0,16,16,45,,,,,,,,,,,,num_5,0.6711463998071849,num_5,0.4,1.2,0.6500000000000001,0.95,24.83358,36.29523,return,2.978566899895668,,,,,,,,,,,,,,,,,918,19,female,up_down_width,2024-10-30_13h37.15.313,exp1,2023.1.0,60.113205238325584,
,,,,,,,,,,,,,,,,5,8.2,9.1,10,10.9,11.8,0.9,0.35,0.55,4.15,10,initial,36.05,296,328,361,393,425,9,9,9,9,9,,,,,,,4,0,4,0,0,17,17,20,,,,,,,,,,,,num_5,0.9947724998928607,num_5,0.35,0.4,0.6,0.8,22.9233,30.5644,return,5.465834199916571,,,,,,,,,,,,,,,,,918,19,female,up_down_width,2024-10-30_13h37.15.313,exp1,2023.1.0,60.113205238325584,
,,,,,,,,,,,,,,,,3,9.1,10,10.9,0,0,0.9,0.35,0.55,2.35,10,initial,36.05,328,361,393,0,0,9,9,9,0,0,,,,,,,4,0,4,0,0,18,18,7,,,,,,,,,,,,num_5,0.8767349999397993,num_5,0.5,1.0,0.35000000000000003,0.5,13.37193,19.10275,return,5.846121799899265,,,,,,,,,,,,,,,,,918,19,female,up_down_width,2024-10-30_13h37.15.313,exp1,2023.1.0,60.113205238325584,
,,,,,,,,,,,,,,,,4,8.65,9.55,10.45,11.35,0,0.9,0.35,0.55,3.25,10,initial,36.05,312,344,377,409,0,9,9,9,9,0,,,,,,,4,0,4,0,0,19,19,17,,,,,,,,,,,,num_4,1.0299041997641325,num_4,0.2,0.5,0.6,0.8,22.9233,30.5644,return,4.328551899874583,,,,,,,,,,,,,,,,,918,19,female,up_down_width,2024-10-30_13h37.15.313,exp1,2023.1.0,60.113205238325584,
,,,,,,,,,,,,,,,,4,8.65,9.55,10.45,11.35,0,0.9,0.35,0.55,3.25,10,initial,36.05,312,344,377,409,0,9,9,9,9,0,,,,,,,4,0,4,0,0,20,20,14,,,,,,,,,,,,num_4,0.7321107001043856,num_4,0.35,0.8,0.5499999999999999,0.8,21.01303,30.5644,return,2.3493757997639477,,,,,,,,,,,,,,,,,918,19,female,up_down_width,2024-10-30_13h37.15.313,exp1,2023.1.0,60.113205238325584,
,,,,,,,,,,,,,,,,3,9.1,10,10.9,0,0,0.9,0.35,0.55,2.35,10,initial,36.05,328,361,393,0,0,9,9,9,0,0,,,,,,,4,0,4,0,0,21,21,0,,,,,,,,,,,,num_3,0.6959304998163134,num_3,0.55,1.3,0.7500000000000002,1.25,28.65413,47.75688,return,2.97078249999322,,,,,,,,,,,,,,,,,918,19,female,up_down_width,2024-10-30_13h37.15.313,exp1,2023.1.0,60.113205238325584,
,,,,,,,,,,,,,,,,5,8.2,9.1,10,10.9,11.8,0.9,0.35,0.55,4.15,10,initial,36.05,296,328,361,393,425,9,9,9,9,9,,,,,,,4,0,4,0,0,22,22,24,,,,,,,,,,,,num_4,0.9830179999116808,num_4,0.3,0.4,0.49999999999999994,0.7,19.10275,26.74385,return,4.207467099884525,,,,,,,,,,,,,,,,,918,19,female,up_down_width,2024-10-30_13h37.15.313,exp1,2023.1.0,60.113205238325584,
,,,,,,,,,,,,,,,,4,8.65,9.55,10.45,11.35,0,0.9,0.35,0.55,3.25,10,initial,36.05,312,344,377,409,0,9,9,9,9,0,,,,,,,4,0,4,0,0,23,23,9,,,,,,,,,,,,num_3,0.7943469998426735,num_3,0.35,0.9,0.6,0.9,22.9233,34.38495,return,1.7521635999437422,,,,,,,,,,,,,,,,,918,19,female,up_down_width,2024-10-30_13h37.15.313,exp1,2023.1.0,60.113205238325584,
,,,,,,,,,,,,,,,,3,9.1,10,10.9,0,0,0.9,0.35,0.55,2.35,10,initial,36.05,328,361,393,0,0,9,9,9,0,0,,,,,,,4,0,4,0,0,24,24,34,,,,,,,,,,,,num_3,0.7268566000275314,num_3,0.25,1.3,0.65,0.9,24.83358,34.38495,return,4.376378299901262,,,,,,,,,,,,,,,,,918,19,female,up_down_width,2024-10-30_13h37.15.313,exp1,2023.1.0,60.113205238325584,
,,,,,,,,,,,,,,,,5,8.2,9.1,10,10.9,11.8,0.9,0.35,0.55,4.15,10,initial,36.05,296,328,361,393,425,9,9,9,9,9,,,,,,,4,0,4,0,0,25,25,48,,,,,,,,,,,,num_5,0.9759882998187095,num_5,0.35,0.9,0.5499999999999999,0.9,21.01303,34.38495,return,2.855288000078872,,,,,,,,,,,,,,,,,918,19,female,up_down_width,2024-10-30_13h37.15.313,exp1,2023.1.0,60.113205238325584,
,,,,,,,,,,,,,,,,3,9.1,10,10.9,0,0,0.9,0.35,0.55,2.35,10,initial,36.05,328,361,393,0,0,9,9,9,0,0,,,,,,,4,0,4,0,0,26,26,5,,,,,,,,,,,,num_2,0.6703984998166561,num_2,0.3,0.6,0.8500000000000002,1.2,32.47468,45.8466,return,5.210561599815264,,,,,,,,,,,,,,,,,918,19,female,up_down_width,2024-10-30_13h37.15.313,exp1,2023.1.0,60.113205238325584,
,,,,,,,,,,,,,,,,4,8.65,9.55,10.45,11.35,0,0.9,0.35,0.55,3.25,10,initial,36.05,312,344,377,409,0,9,9,9,9,0,,,,,,,4,0,4,0,0,27,27,37,,,,,,,,,,,,num_3,0.7163406000472605,num_3,0.2,0.7,0.65,1.0,24.83358,38.2055,return,3.8520597997121513,,,,,,,,,,,,,,,,,918,19,female,up_down_width,2024-10-30_13h37.15.313,exp1,2023.1.0,60.113205238325584,
,,,,,,,,,,,,,,,,5,8.2,9.1,10,10.9,11.8,0.9,0.35,0.55,4.15,10,initial,36.05,296,328,361,393,425,9,9,9,9,9,,,,,,,4,0,4,0,0,28,28,21,,,,,,,,,,,,num_5,0.8013879999052733,num_5,0.3,0.9,0.7500000000000001,1.05,28.65413,40.11578,return,3.6799415999557823,,,,,,,,,,,,,,,,,918,19,female,up_down_width,2024-10-30_13h37.15.313,exp1,2023.1.0,60.113205238325584,
,,,,,,,,,,,,,,,,4,8.65,9.55,10.45,11.35,0,0.9,0.35,0.55,3.25,10,initial,36.05,312,344,377,409,0,9,9,9,9,0,,,,,,,4,0,4,0,0,29,29,11,,,,,,,,,,,,num_4,0.9977364998776466,num_4,0.2,1.0,0.7000000000000001,1.1,26.74385,42.02605,return,5.501549700042233,,,,,,,,,,,,,,,,,918,19,female,up_down_width,2024-10-30_13h37.15.313,exp1,2023.1.0,60.113205238325584,
,,,,,,,,,,,,,,,,4,8.65,9.55,10.45,11.35,0,0.9,0.35,0.55,3.25,10,initial,36.05,312,344,377,409,0,9,9,9,9,0,,,,,,,4,0,4,0,0,30,30,13,,,,,,,,,,,,num_3,0.7381982998922467,num_3,0.55,1.3,0.7000000000000002,1.2,26.74385,45.8466,return,2.1162290000356734,,,,,,,,,,,,,,,,,918,19,female,up_down_width,2024-10-30_13h37.15.313,exp1,2023.1.0,60.113205238325584,
,,,,,,,,,,,,,,,,3,9.1,10,10.9,0,0,0.9,0.35,0.55,2.35,10,initial,36.05,328,361,393,0,0,9,9,9,0,0,,,,,,,4,0,4,0,0,31,31,28,,,,,,,,,,,,num_2,0.824890699936077,num_2,0.5,1.2,0.7000000000000002,1.4,26.74385,53.48771,return,2.23050589999184,,,,,,,,,,,,,,,,,918,19,female,up_down_width,2024-10-30_13h37.15.313,exp1,2023.1.0,60.113205238325584,
,,,,,,,,,,,,,,,,4,8.65,9.55,10.45,11.35,0,0.9,0.35,0.55,3.25,10,initial,36.05,312,344,377,409,0,9,9,9,9,0,,,,,,,4,0,4,0,0,32,32,44,,,,,,,,,,,,num_4,0.8946746999863535,num_4,0.3,0.7,0.49999999999999994,0.9,19.10275,34.38495,return,2.038469399791211,,,,,,,,,,,,,,,,,918,19,female,up_down_width,2024-10-30_13h37.15.313,exp1,2023.1.0,60.113205238325584,
,,,,,,,,,,,,,,,,3,9.1,10,10.9,0,0,0.9,0.35,0.55,2.35,10,initial,36.05,328,361,393,0,0,9,9,9,0,0,,,,,,,4,0,4,0,0,33,33,1,,,,,,,,,,,,num_2,0.665875299833715,num_2,0.3,1.6,0.65,1.3,24.83358,49.66716,return,3.512953999917954,,,,,,,,,,,,,,,,,918,19,female,up_down_width,2024-10-30_13h37.15.313,exp1,2023.1.0,60.113205238325584,
,,,,,,,,,,,,,,,,4,8.65,9.55,10.45,11.35,0,0.9,0.35,0.55,3.25,10,initial,36.05,312,344,377,409,0,9,9,9,9,0,,,,,,,4,0,4,0,0,34,34,43,,,,,,,,,,,,num_4,0.7305831997655332,num_4,0.45,0.5,0.6000000000000001,0.9,22.9233,34.38495,return,3.276322500081733,,,,,,,,,,,,,,,,,918,19,female,up_down_width,2024-10-30_13h37.15.313,exp1,2023.1.0,60.113205238325584,
,,,,,,,,,,,,,,,,3,9.1,10,10.9,0,0,0.9,0.35,0.55,2.35,10,initial,36.05,328,361,393,0,0,9,9,9,0,0,,,,,,,4,0,4,0,0,35,35,8,,,,,,,,,,,,num_2,0.8066671998240054,num_2,0.5,0.8,0.7000000000000002,1.5,26.74385,57.30826,return,3.166576399933547,,,,,,,,,,,,,,,,,918,19,female,up_down_width,2024-10-30_13h37.15.313,exp1,2023.1.0,60.113205238325584,
,,,,,,,,,,,,,,,,3,9.1,10,10.9,0,0,0.9,0.35,0.55,2.35,10,initial,36.05,328,361,393,0,0,9,9,9,0,0,,,,,,,4,0,4,0,0,36,36,3,,,,,,,,,,,,num_2,1.415469199884683,num_2,0.3,1.4,0.8500000000000002,1.5,32.47468,57.30826,return,3.1494299999903888,,,,,,,,,,,,,,,,,918,19,female,up_down_width,2024-10-30_13h37.15.313,exp1,2023.1.0,60.113205238325584,
,,,,,,,,,,,,,,,,5,8.2,9.1,10,10.9,11.8,0.9,0.35,0.55,4.15,10,initial,36.05,296,328,361,393,425,9,9,9,9,9,,,,,,,4,0,4,0,0,37,37,18,,,,,,,,,,,,num_5,0.7811461999081075,num_5,0.45,1.0,0.7000000000000002,1.05,26.74385,40.11578,return,2.4209473999217153,,,,,,,,,,,,,,,,,918,19,female,up_down_width,2024-10-30_13h37.15.313,exp1,2023.1.0,60.113205238325584,
,,,,,,,,,,,,,,,,4,8.65,9.55,10.45,11.35,0,0.9,0.35,0.55,3.25,10,initial,36.05,312,344,377,409,0,9,9,9,9,0,,,,,,,4,0,4,0,0,38,38,38,,,,,,,,,,,,num_3,0.73454499989748,num_3,0.5,1.2,0.7000000000000002,1.1,26.74385,42.02605,return,1.8966912997420877,,,,,,,,,,,,,,,,,918,19,female,up_down_width,2024-10-30_13h37.15.313,exp1,2023.1.0,60.113205238325584,
,,,,,,,,,,,,,,,,3,9.1,10,10.9,0,0,0.9,0.35,0.55,2.35,10,initial,36.05,328,361,393,0,0,9,9,9,0,0,,,,,,,4,0,4,0,0,39,39,32,,,,,,,,,,,,num_2,0.6209221999160945,num_2,0.35,0.6,0.7000000000000001,1.4,26.74385,53.48771,return,3.7263579999562353,,,,,,,,,,,,,,,,,918,19,female,up_down_width,2024-10-30_13h37.15.313,exp1,2023.1.0,60.113205238325584,
,,,,,,,,,,,,,,,,5,8.2,9.1,10,10.9,11.8,0.9,0.35,0.55,4.15,10,initial,36.05,296,328,361,393,425,9,9,9,9,9,,,,,,,4,0,4,0,0,40,40,51,,,,,,,,,,,,num_5,0.6727167998906225,num_5,0.45,1.3,0.7500000000000002,1.25,28.65413,47.75688,return,2.9017911998089403,,,,,,,,,,,,,,,,,918,19,female,up_down_width,2024-10-30_13h37.15.313,exp1,2023.1.0,60.113205238325584,
,,,,,,,,,,,,,,,,3,9.1,10,10.9,0,0,0.9,0.35,0.55,2.35,10,initial,36.05,328,361,393,0,0,9,9,9,0,0,,,,,,,4,0,4,0,0,41,41,6,,,,,,,,,,,,num_2,0.9262025998905301,num_2,0.45,1.0,0.7000000000000002,1.4,26.74385,53.48771,return,2.566925599705428,,,,,,,,,,,,,,,,,918,19,female,up_down_width,2024-10-30_13h37.15.313,exp1,2023.1.0,60.113205238325584,
,,,,,,,,,,,,,,,,5,8.2,9.1,10,10.9,11.8,0.9,0.35,0.55,4.15,10,initial,36.05,296,328,361,393,425,9,9,9,9,9,,,,,,,4,0,4,0,0,42,42,23,,,,,,,,,,,,num_5,0.6491155999246985,num_5,0.2,0.8,0.5499999999999999,0.95,21.01303,36.29523,return,2.5263345998246223,,,,,,,,,,,,,,,,,918,19,female,up_down_width,2024-10-30_13h37.15.313,exp1,2023.1.0,60.113205238325584,
,,,,,,,,,,,,,,,,3,9.1,10,10.9,0,0,0.9,0.35,0.55,2.35,10,initial,36.05,328,361,393,0,0,9,9,9,0,0,,,,,,,4,0,4,0,0,43,43,2,,,,,,,,,,,,num_3,0.7997114998288453,num_3,0.5,1.2,0.7000000000000002,1.15,26.74385,43.93633,return,3.5305820000357926,,,,,,,,,,,,,,,,,918,19,female,up_down_width,2024-10-30_13h37.15.313,exp1,2023.1.0,60.113205238325584,
,,,,,,,,,,,,,,,,5,8.2,9.1,10,10.9,11.8,0.9,0.35,0.55,4.15,10,initial,36.05,296,328,361,393,425,9,9,9,9,9,,,,,,,4,0,4,0,0,44,44,47,,,,,,,,,,,,num_5,0.7560993998777121,num_5,0.45,0.9,0.6500000000000001,1.15,24.83358,43.93633,return,2.894195299828425,,,,,,,,,,,,,,,,,918,19,female,up_down_width,2024-10-30_13h37.15.313,exp1,2023.1.0,60.113205238325584,
,,,,,,,,,,,,,,,,4,8.65,9.55,10.45,11.35,0,0.9,0.35,0.55,3.25,10,initial,36.05,312,344,377,409,0,9,9,9,9,0,,,,,,,4,0,4,0,0,45,45,12,,,,,,,,,,,,num_4,0.8456468998920172,num_4,0.5,1.1,0.55,1.2,21.01303,45.8466,return,2.090683599933982,,,,,,,,,,,,,,,,,918,19,female,up_down_width,2024-10-30_13h37.15.313,exp1,2023.1.0,60.113205238325584,
,,,,,,,,,,,,,,,,3,9.1,10,10.9,0,0,0.9,0.35,0.55,2.35,10,initial,36.05,328,361,393,0,0,9,9,9,0,0,,,,,,,4,0,4,0,0,46,46,30,,,,,,,,,,,,num_3,0.7946188999339938,num_3,0.35,0.9,0.49999999999999994,0.85,19.10275,32.47468,return,2.787454599980265,,,,,,,,,,,,,,,,,918,19,female,up_down_width,2024-10-30_13h37.15.313,exp1,2023.1.0,60.113205238325584,
,,,,,,,,,,,,,,,,3,9.1,10,10.9,0,0,0.9,0.35,0.55,2.35,10,initial,36.05,328,361,393,0,0,9,9,9,0,0,,,,,,,4,0,4,0,0,47,47,4,,,,,,,,,,,,num_3,0.9947881998959929,num_3,0.5,1.1,0.9000000000000004,1.25,34.38495,47.75688,return,3.6856370999012142,,,,,,,,,,,,,,,,,918,19,female,up_down_width,2024-10-30_13h37.15.313,exp1,2023.1.0,60.113205238325584,
,,,,,,,,,,,,,,,,4,8.65,9.55,10.45,11.35,0,0.9,0.35,0.55,3.25,10,initial,36.05,312,344,377,409,0,9,9,9,9,0,,,,,,,4,0,4,0,0,48,48,40,,,,,,,,,,,,num_3,0.8963226997293532,num_3,0.3,1.3,0.7500000000000001,1.25,28.65413,47.75688,return,4.645946399774402,,,,,,,,,,,,,,,,,918,19,female,up_down_width,2024-10-30_13h37.15.313,exp1,2023.1.0,60.113205238325584,
,,,,,,,,,,,,,,,,5,8.2,9.1,10,10.9,11.8,0.9,0.35,0.55,4.15,10,initial,36.05,296,328,361,393,425,9,9,9,9,9,,,,,,,4,0,4,0,0,49,49,49,,,,,,,,,,,,num_5,0.7922881997656077,num_5,0.2,0.9,0.44999999999999996,1.0,17.19248,38.2055,return,2.854102599900216,,,,,,,,,,,,,,,,,918,19,female,up_down_width,2024-10-30_13h37.15.313,exp1,2023.1.0,60.113205238325584,
,,,,,,,,,,,,,,,,4,8.65,9.55,10.45,11.35,0,0.9,0.35,0.55,3.25,10,initial,36.05,312,344,377,409,0,9,9,9,9,0,,,,,,,4,0,4,0,0,50,50,15,,,,,,,,,,,,num_4,1.0227241998072714,num_4,0.3,0.4,0.49999999999999994,0.8,19.10275,30.5644,return,3.713637199951336,,,,,,,,,,,,,,,,,918,19,female,up_down_width,2024-10-30_13h37.15.313,exp1,2023.1.0,60.113205238325584,
,,,,,,,,,,,,,,,,5,8.2,9.1,10,10.9,11.8,0.9,0.35,0.55,4.15,10,initial,36.05,296,328,361,393,425,9,9,9,9,9,,,,,,,4,0,4,0,0,51,51,52,,,,,,,,,,,,num_5,0.823710799915716,num_5,0.4,0.5,0.45,0.85,17.19248,32.47468,return,3.284830799791962,,,,,,,,,,,,,,,,,918,19,female,up_down_width,2024-10-30_13h37.15.313,exp1,2023.1.0,60.113205238325584,
,,,,,,,,,,,,,,,,4,8.65,9.55,10.45,11.35,0,0.9,0.35,0.55,3.25,10,initial,36.05,312,344,377,409,0,9,9,9,9,0,,,,,,,4,0,4,0,0,52,52,41,,,,,,,,,,,,num_4,0.8994720997288823,num_4,0.5,0.9,0.55,1.0,21.01303,38.2055,return,1.7579056997783482,,,,,,,,,,,,,,,,,918,19,female,up_down_width,2024-10-30_13h37.15.313,exp1,2023.1.0,60.113205238325584,
,,,,,,,,,,,,,,,,5,8.2,9.1,10,10.9,11.8,0.9,0.35,0.55,4.15,10,initial,36.05,296,328,361,393,425,9,9,9,9,9,,,,,,,4,0,4,0,0,53,53,26,,,,,,,,,,,,num_5,0.5968506999779493,num_5,0.3,0.9,0.6,1.0,22.9233,38.2055,return,2.219570899847895,,,,,,,,,,,,,,,,,918,19,female,up_down_width,2024-10-30_13h37.15.313,exp1,2023.1.0,60.113205238325584,
,,,,,,,,,,,,,,,,,,,,,,,,,,,,,,,,,,,,,,,,,,,,,4,0,4,0,,,,,,,,,,,,,,,,,,,,,,,,,,,,,2263.525340100052,2263.525340100052,2263.525340100052,,,,,,,,,,,,918,19,female,up_down_width,2024-10-30_13h37.15.313,exp1,2023.1.0,60.113205238325584,
,,,,,,,,,,,,,,,,5,9,9.5,10,10.5,11,0.5,0.1,0.4,2.4,10,initial,36.05,324,342,361,379,397,9,9,9,9,9,,,,,,,5,0,5,0,0,0,0,51,,,,,,,,,,,,num_4,1.134653799701482,num_4,0.2,0.4,0.44999999999999996,0.6,17.19248,22.9233,return,4.7463785000145435,,,,,,,,,,,,,,,,,918,19,female,up_down_width,2024-10-30_13h37.15.313,exp1,2023.1.0,60.113205238325584,
,,,,,,,,,,,,,,,,4,9.25,9.75,10.25,10.75,0,0.5,0.1,0.4,1.9000000000000001,10,initial,36.05,333,351,370,388,0,9,9,9,9,0,,,,,,,5,0,5,0,0,1,1,17,,,,,,,,,,,,num_4,0.9110520998947322,num_4,0.4,0.5,0.45,0.6,17.19248,22.9233,return,2.3423089997377247,,,,,,,,,,,,,,,,,918,19,female,up_down_width,2024-10-30_13h37.15.313,exp1,2023.1.0,60.113205238325584,
,,,,,,,,,,,,,,,,5,9,9.5,10,10.5,11,0.5,0.1,0.4,2.4,10,initial,36.05,324,342,361,379,397,9,9,9,9,9,,,,,,,5,0,5,0,0,2,2,18,,,,,,,,,,,,num_4,0.8947005998343229,num_4,0.5,0.6,0.5,0.6,19.10275,22.9233,return,0.9208988999016583,,,,,,,,,,,,,,,,,918,19,female,up_down_width,2024-10-30_13h37.15.313,exp1,2023.1.0,60.113205238325584,
,,,,,,,,,,,,,,,,4,9.25,9.75,10.25,10.75,0,0.5,0.1,0.4,1.9000000000000001,10,initial,36.05,333,351,370,388,0,9,9,9,9,0,,,,,,,5,0,5,0,0,3,3,15,,,,,,,,,,,,num_3,1.041942099807784,num_3,0.25,1,0.49999999999999994,0.65,19.10275,24.83358,return,3.1597464999649674,,,,,,,,,,,,,,,,,918,19,female,up_down_width,2024-10-30_13h37.15.313,exp1,2023.1.0,60.113205238325584,
,,,,,,,,,,,,,,,,5,9,9.5,10,10.5,11,0.5,0.1,0.4,2.4,10,initial,36.05,324,342,361,379,397,9,9,9,9,9,,,,,,,5,0,5,0,0,4,4,52,,,,,,,,,,,,num_4,0.9924345000181347,num_4,0.55,0.8,0.6500000000000001,0.7,24.83358,26.74385,return,2.8228189998771995,,,,,,,,,,,,,,,,,918,19,female,up_down_width,2024-10-30_13h37.15.313,exp1,2023.1.0,60.113205238325584,
,,,,,,,,,,,,,,,,3,9.5,10,10.5,0,0,0.5,0.1,0.4,1.4000000000000001,10,initial,36.05,342,361,379,0,0,9,9,9,0,0,,,,,,,5,0,5,0,0,5,5,27,,,,,,,,,,,,num_3,0.8518193999771029,num_3,0.45,0.7,0.4,0.55,15.2822,21.01303,return,2.6683326999191195,,,,,,,,,,,,,,,,,918,19,female,up_down_width,2024-10-30_13h37.15.313,exp1,2023.1.0,60.113205238325584,
,,,,,,,,,,,,,,,,3,9.5,10,10.5,0,0,0.5,0.1,0.4,1.4000000000000001,10,initial,36.05,342,361,379,0,0,9,9,9,0,0,,,,,,,5,0,5,0,0,6,6,28,,,,,,,,,,,,num_3,0.699604399735108,num_3,0.25,0.4,0.35,0.45,13.37193,17.19248,return,2.0940523999743164,,,,,,,,,,,,,,,,,918,19,female,up_down_width,2024-10-30_13h37.15.313,exp1,2023.1.0,60.113205238325584,
,,,,,,,,,,,,,,,,3,9.5,10,10.5,0,0,0.5,0.1,0.4,1.4000000000000001,10,initial,36.05,342,361,379,0,0,9,9,9,0,0,,,,,,,5,0,5,0,0,7,7,6,,,,,,,,,,,,num_3,0.7543768000323325,num_3,0.2,0.5,0.35,0.5,13.37193,19.10275,return,1.7120521997567266,,,,,,,,,,,,,,,,,918,19,female,up_down_width,2024-10-30_13h37.15.313,exp1,2023.1.0,60.113205238325584,
,,,,,,,,,,,,,,,,5,9,9.5,10,10.5,11,0.5,0.1,0.4,2.4,10,initial,36.05,324,342,361,379,397,9,9,9,9,9,,,,,,,5,0,5,0,0,8,8,50,,,,,,,,,,,,num_5,0.7103871998842806,num_5,0.3,0.4,0.35,0.45,13.37193,17.19248,return,3.716634599957615,,,,,,,,,,,,,,,,,918,19,female,up_down_width,2024-10-30_13h37.15.313,exp1,2023.1.0,60.113205238325584,
,,,,,,,,,,,,,,,,4,9.25,9.75,10.25,10.75,0,0.5,0.1,0.4,1.9000000000000001,10,initial,36.05,333,351,370,388,0,9,9,9,9,0,,,,,,,5,0,5,0,0,9,9,44,,,,,,,,,,,,num_3,0.788432199973613,num_3,0.3,0.5,0.39999999999999997,0.5,15.2822,19.10275,return,1.6956167998723686,,,,,,,,,,,,,,,,,918,19,female,up_down_width,2024-10-30_13h37.15.313,exp1,2023.1.0,60.113205238325584,
