amount_p,posx1_p,posx2_p,posx3_p,posx4_p,posx5_p,center_to_center_p,edge_to_edge_p,w_p,stim_length_p,eccentricity_p,line1_p,line2_p,line3_p,line4_p,line5_p,amount,posx1,posx2,posx3,posx4,posx5,center_to_center,edge_to_edge,w,stim_length,eccentricity,trial_type,deg_to_pix_index,posx1_in_pix,posx2_in_pix,posx3_in_pix,posx4_in_pix,posx5_in_pix,line1,line2,line3,line4,line5,posx,setsize_cobdi,trials.thisRepN,trials.thisTrialN,trials.thisN,trials.thisIndex,blocks.thisRepN,blocks.thisTrialN,blocks.thisN,blocks.thisIndex,loop.thisRepN,loop.thisTrialN,loop.thisN,loop.thisIndex,first.thisRepN,first.thisTrialN,first.thisN,first.thisIndex,second.thisRepN,second.thisTrialN,second.thisN,second.thisIndex,key_resp_3.started,key_resp_3.keys,key_resp_3.rt,key_resp.keys,key_resp.rt,response,starting_width_deg,starting_space_deg,response_width_degree,response_spacing_degree,response_width_pixel,response_spacing_pixel,next_5.keys,next_5.rt,key_resp_4.keys,key_resp_4.rt,text_3.started,text_4.started,key_resp_2.started,text_2.started,key_resp_2.keys,key_resp_2.rt,adjusting.started,next.keys,next.rt,text_control2.started,key_resp.started,key_resp.corr,text_bye.started,text_bye.stopped,participant,age,gender,resp_group,date,expName,psychopyVersion,frameRate,
,,,,,,,,,,,,,,,,,,,,,,,,,,,,,,,,,,,,,,,,,,,,,,,,,,,,,,,,,,,,,36.93370410008356,c,228.34811130003072,,,,,,,,,,,,,,,,,,,,,,,,,,,,920,21,male,up_down_width,2024-10-31_14h33.36.087,exp1,2023.1.0,60.13930668658588,
3,9.1,10,10.9,0,0,0.9,0.35,0.55,2.35,10,9,9,9,0,0,,,,,,,,,,,,,,,,,,,,,,,,,,0,0,0,3,,,,,,,,,,,,,,,,,,,,num_3,4.632105299970135,num_3,0.2,0.8,0.25,0.65,9.55138,24.83358,return,14.825517799938098,,,,,,,,,,,,,,,,,920,21,male,up_down_width,2024-10-31_14h33.36.087,exp1,2023.1.0,60.13930668658588,
5,8.2,9.1,10,10.9,11.8,0.9,0.35,0.55,4.15,10,9,9,9,9,9,,,,,,,,,,,,,,,,,,,,,,,,,,0,1,1,2,,,,,,,,,,,,,,,,,,,,num_4,2.8105136998929083,num_4,0.45,0.6,0.30000000000000004,0.6,11.46165,22.9233,return,4.436361799715087,,,,,,,,,,,,,,,,,920,21,male,up_down_width,2024-10-31_14h33.36.087,exp1,2023.1.0,60.13930668658588,
5,9,9.5,10,10.5,11,0.5,0.1,0.4,2.4,10,9,9,9,9,9,,,,,,,,,,,,,,,,,,,,,,,,,,0,2,2,5,,,,,,,,,,,,,,,,,,,,num_5,1.947504699928686,num_5,0.4,1.1,0.35000000000000003,0.55,13.37193,21.01303,return,6.760639799991623,,,,,,,,,,,,,,,,,920,21,male,up_down_width,2024-10-31_14h33.36.087,exp1,2023.1.0,60.13930668658588,
4,9.25,9.75,10.25,10.75,0,0.5,0.1,0.4,1.9000000000000001,10,9,9,9,9,0,,,,,,,,,,,,,,,,,,,,,,,,,,0,3,3,4,,,,,,,,,,,,,,,,,,,,num_4,1.990665900055319,num_4,0.45,1.1,0.25000000000000006,0.5,9.55138,19.10275,return,15.79711619974114,,,,,,,,,,,,,,,,,920,21,male,up_down_width,2024-10-31_14h33.36.087,exp1,2023.1.0,60.13930668658588,
3,9.5,10,10.5,0,0,0.5,0.25,0.25,1.25,10,9,9,9,0,0,,,,,,,,,,,,,,,,,,,,,,,,,,0,4,4,0,,,,,,,,,,,,,,,,,,,,num_3,1.6492506000213325,num_3,0.2,0.4,0.3,0.5,11.46165,19.10275,return,4.157947799889371,,,,,,,,,,,,,,,,,920,21,male,up_down_width,2024-10-31_14h33.36.087,exp1,2023.1.0,60.13930668658588,
4,9.25,9.75,10.25,10.75,0,0.5,0.25,0.25,1.75,10,9,9,9,9,0,,,,,,,,,,,,,,,,,,,,,,,,,,0,5,5,1,,,,,,,,,,,,,,,,,,,,num_4,1.3777467997279018,num_4,0.45,0.8,0.20000000000000007,0.6,7.6411,22.9233,return,4.742241999832913,,,,,,,,,,,,,,,,,920,21,male,up_down_width,2024-10-31_14h33.36.087,exp1,2023.1.0,60.13930668658588,
,,,,,,,,,,,,,,,,,,,,,,,,,,,,,,,,,,,,,,,,,,,,,,,,,,,,,,,,,,,,,,,,,,,,,,,,,,,c,275.8817234998569,,,,,,,,,,,,,,,920,21,male,up_down_width,2024-10-31_14h33.36.087,exp1,2023.1.0,60.13930668658588,
,,,,,,,,,,,,,,,,5,8.2,9.1,10,10.9,11.8,0.9,0.35,0.55,4.15,10,initial,36.05,296,328,361,393,425,9,9,9,9,9,,,,,,,0,0,0,0,0,0,0,51,,,,,,,,,,,,num_4,1.4874376999214292,num_4,0.35,0.9,0.44999999999999996,0.7,17.19248,26.74385,return,4.722136399941519,,,,,,,,,,,,,,,,,920,21,male,up_down_width,2024-10-31_14h33.36.087,exp1,2023.1.0,60.13930668658588,
,,,,,,,,,,,,,,,,3,9.1,10,10.9,0,0,0.9,0.35,0.55,2.35,10,initial,36.05,328,361,393,0,0,9,9,9,0,0,,,,,,,0,0,0,0,0,1,1,35,,,,,,,,,,,,num_3,1.36589020001702,num_3,0.35,1.1,0.35,0.65,13.37193,24.83358,return,6.559296899707988,,,,,,,,,,,,,,,,,920,21,male,up_down_width,2024-10-31_14h33.36.087,exp1,2023.1.0,60.13930668658588,
,,,,,,,,,,,,,,,,4,8.65,9.55,10.45,11.35,0,0.9,0.35,0.55,3.25,10,initial,36.05,312,344,377,409,0,9,9,9,9,0,,,,,,,0,0,0,0,0,2,2,10,,,,,,,,,,,,num_4,1.7399983999785036,num_4,0.55,0.7,0.45,0.7,17.19248,26.74385,return,11.95162869989872,,,,,,,,,,,,,,,,,920,21,male,up_down_width,2024-10-31_14h33.36.087,exp1,2023.1.0,60.13930668658588,
,,,,,,,,,,,,,,,,4,8.65,9.55,10.45,11.35,0,0.9,0.35,0.55,3.25,10,initial,36.05,312,344,377,409,0,9,9,9,9,0,,,,,,,0,0,0,0,0,3,3,11,,,,,,,,,,,,num_3,1.4645485999062657,num_3,0.5,0.8,0.45,0.7,17.19248,26.74385,return,9.61191129987128,,,,,,,,,,,,,,,,,920,21,male,up_down_width,2024-10-31_14h33.36.087,exp1,2023.1.0,60.13930668658588,
,,,,,,,,,,,,,,,,5,8.2,9.1,10,10.9,11.8,0.9,0.35,0.55,4.15,10,initial,36.05,296,328,361,393,425,9,9,9,9,9,,,,,,,0,0,0,0,0,4,4,47,,,,,,,,,,,,num_6,1.3155377998482436,num_6,0.4,0.9,0.35000000000000003,0.6,13.37193,22.9233,return,6.938964299857616,,,,,,,,,,,,,,,,,920,21,male,up_down_width,2024-10-31_14h33.36.087,exp1,2023.1.0,60.13930668658588,
,,,,,,,,,,,,,,,,4,8.65,9.55,10.45,11.35,0,0.9,0.35,0.55,3.25,10,initial,36.05,312,344,377,409,0,9,9,9,9,0,,,,,,,0,0,0,0,0,5,5,42,,,,,,,,,,,,num_3,2.3093820998910815,num_3,0.2,0.3,0.39999999999999997,0.65,15.2822,24.83358,return,10.567809199914336,,,,,,,,,,,,,,,,,920,21,male,up_down_width,2024-10-31_14h33.36.087,exp1,2023.1.0,60.13930668658588,
,,,,,,,,,,,,,,,,4,8.65,9.55,10.45,11.35,0,0.9,0.35,0.55,3.25,10,initial,36.05,312,344,377,409,0,9,9,9,9,0,,,,,,,0,0,0,0,0,6,6,39,,,,,,,,,,,,num_4,1.2685667998157442,num_4,0.2,0.4,0.39999999999999997,0.6,15.2822,22.9233,return,4.192937899846584,,,,,,,,,,,,,,,,,920,21,male,up_down_width,2024-10-31_14h33.36.087,exp1,2023.1.0,60.13930668658588,
,,,,,,,,,,,,,,,,3,9.1,10,10.9,0,0,0.9,0.35,0.55,2.35,10,initial,36.05,328,361,393,0,0,9,9,9,0,0,,,,,,,0,0,0,0,0,7,7,8,,,,,,,,,,,,num_3,0.8853596998378634,num_3,0.3,0.4,0.44999999999999996,0.65,17.19248,24.83358,return,4.285206799861044,,,,,,,,,,,,,,,,,920,21,male,up_down_width,2024-10-31_14h33.36.087,exp1,2023.1.0,60.13930668658588,
,,,,,,,,,,,,,,,,4,8.65,9.55,10.45,11.35,0,0.9,0.35,0.55,3.25,10,initial,36.05,312,344,377,409,0,9,9,9,9,0,,,,,,,0,0,0,0,0,8,8,15,,,,,,,,,,,,num_4,0.9111033000517637,num_4,0.45,0.7,0.45,0.7,17.19248,26.74385,return,5.0777974997181445,,,,,,,,,,,,,,,,,920,21,male,up_down_width,2024-10-31_14h33.36.087,exp1,2023.1.0,60.13930668658588,
,,,,,,,,,,,,,,,,4,8.65,9.55,10.45,11.35,0,0.9,0.35,0.55,3.25,10,initial,36.05,312,344,377,409,0,9,9,9,9,0,,,,,,,0,0,0,0,0,9,9,13,,,,,,,,,,,,num_4,1.1422166998963803,num_4,0.2,1.2,0.44999999999999996,0.7,17.19248,26.74385,return,3.50989199988544,,,,,,,,,,,,,,,,,920,21,male,up_down_width,2024-10-31_14h33.36.087,exp1,2023.1.0,60.13930668658588,
,,,,,,,,,,,,,,,,5,8.2,9.1,10,10.9,11.8,0.9,0.35,0.55,4.15,10,initial,36.05,296,328,361,393,425,9,9,9,9,9,,,,,,,0,0,0,0,0,10,10,48,,,,,,,,,,,,num_5,0.939393499866128,num_5,0.2,0.5,0.44999999999999996,0.65,17.19248,24.83358,return,3.249710999894887,,,,,,,,,,,,,,,,,920,21,male,up_down_width,2024-10-31_14h33.36.087,exp1,2023.1.0,60.13930668658588,
,,,,,,,,,,,,,,,,4,8.65,9.55,10.45,11.35,0,0.9,0.35,0.55,3.25,10,initial,36.05,312,344,377,409,0,9,9,9,9,0,,,,,,,0,0,0,0,0,11,11,36,,,,,,,,,,,,num_4,2.9881563999224454,num_4,0.5,0.9,0.45,0.7,17.19248,26.74385,return,7.772148699965328,,,,,,,,,,,,,,,,,920,21,male,up_down_width,2024-10-31_14h33.36.087,exp1,2023.1.0,60.13930668658588,
,,,,,,,,,,,,,,,,3,9.1,10,10.9,0,0,0.9,0.35,0.55,2.35,10,initial,36.05,328,361,393,0,0,9,9,9,0,0,,,,,,,0,0,0,0,0,12,12,28,,,,,,,,,,,,num_3,0.9580588997341692,num_3,0.55,0.7,0.5,0.75,19.10275,28.65413,return,2.5497333998791873,,,,,,,,,,,,,,,,,920,21,male,up_down_width,2024-10-31_14h33.36.087,exp1,2023.1.0,60.13930668658588,
,,,,,,,,,,,,,,,,3,9.1,10,10.9,0,0,0.9,0.35,0.55,2.35,10,initial,36.05,328,361,393,0,0,9,9,9,0,0,,,,,,,0,0,0,0,0,13,13,1,,,,,,,,,,,,num_3,0.8141599998343736,num_3,0.3,1,0.5499999999999999,0.85,21.01303,32.47468,return,4.278868400026113,,,,,,,,,,,,,,,,,920,21,male,up_down_width,2024-10-31_14h33.36.087,exp1,2023.1.0,60.13930668658588,
,,,,,,,,,,,,,,,,3,9.1,10,10.9,0,0,0.9,0.35,0.55,2.35,10,initial,36.05,328,361,393,0,0,9,9,9,0,0,,,,,,,0,0,0,0,0,14,14,31,,,,,,,,,,,,num_3,0.728023299947381,num_3,0.45,0.8,0.5,0.85,19.10275,32.47468,return,2.6661025998182595,,,,,,,,,,,,,,,,,920,21,male,up_down_width,2024-10-31_14h33.36.087,exp1,2023.1.0,60.13930668658588,
,,,,,,,,,,,,,,,,3,9.1,10,10.9,0,0,0.9,0.35,0.55,2.35,10,initial,36.05,328,361,393,0,0,9,9,9,0,0,,,,,,,0,0,0,0,0,15,15,29,,,,,,,,,,,,num_3,1.6287893000990152,num_3,0.5,1,0.45,0.85,17.19248,32.47468,return,2.772697899956256,,,,,,,,,,,,,,,,,920,21,male,up_down_width,2024-10-31_14h33.36.087,exp1,2023.1.0,60.13930668658588,
,,,,,,,,,,,,,,,,3,9.1,10,10.9,0,0,0.9,0.35,0.55,2.35,10,initial,36.05,328,361,393,0,0,9,9,9,0,0,,,,,,,0,0,0,0,0,16,16,34,,,,,,,,,,,,num_3,1.3415825997944921,num_3,0.55,0.8,0.45,0.9,17.19248,34.38495,return,2.6942429998889565,,,,,,,,,,,,,,,,,920,21,male,up_down_width,2024-10-31_14h33.36.087,exp1,2023.1.0,60.13930668658588,
,,,,,,,,,,,,,,,,4,8.65,9.55,10.45,11.35,0,0.9,0.35,0.55,3.25,10,initial,36.05,312,344,377,409,0,9,9,9,9,0,,,,,,,0,0,0,0,0,17,17,9,,,,,,,,,,,,num_4,0.8273559999652207,num_4,0.45,1.1,0.45,0.8,17.19248,30.5644,return,6.793596099829301,,,,,,,,,,,,,,,,,920,21,male,up_down_width,2024-10-31_14h33.36.087,exp1,2023.1.0,60.13930668658588,
,,,,,,,,,,,,,,,,4,8.65,9.55,10.45,11.35,0,0.9,0.35,0.55,3.25,10,initial,36.05,312,344,377,409,0,9,9,9,9,0,,,,,,,0,0,0,0,0,18,18,44,,,,,,,,,,,,num_4,1.1366554000414908,num_4,0.2,0.7,0.44999999999999996,0.8,17.19248,30.5644,return,4.220964099979028,,,,,,,,,,,,,,,,,920,21,male,up_down_width,2024-10-31_14h33.36.087,exp1,2023.1.0,60.13930668658588,
,,,,,,,,,,,,,,,,5,8.2,9.1,10,10.9,11.8,0.9,0.35,0.55,4.15,10,initial,36.05,296,328,361,393,425,9,9,9,9,9,,,,,,,0,0,0,0,0,19,19,46,,,,,,,,,,,,num_5,1.0081538998056203,num_5,0.45,0.7,0.4,0.7,15.2822,26.74385,return,1.8137799999676645,,,,,,,,,,,,,,,,,920,21,male,up_down_width,2024-10-31_14h33.36.087,exp1,2023.1.0,60.13930668658588,
,,,,,,,,,,,,,,,,4,8.65,9.55,10.45,11.35,0,0.9,0.35,0.55,3.25,10,initial,36.05,312,344,377,409,0,9,9,9,9,0,,,,,,,0,0,0,0,0,20,20,40,,,,,,,,,,,,num_4,0.9938822998665273,num_4,0.3,0.8,0.39999999999999997,0.7,15.2822,26.74385,return,2.1847697999328375,,,,,,,,,,,,,,,,,920,21,male,up_down_width,2024-10-31_14h33.36.087,exp1,2023.1.0,60.13930668658588,
,,,,,,,,,,,,,,,,5,8.2,9.1,10,10.9,11.8,0.9,0.35,0.55,4.15,10,initial,36.05,296,328,361,393,425,9,9,9,9,9,,,,,,,0,0,0,0,0,21,21,23,,,,,,,,,,,,num_6,0.9702530999202281,num_6,0.5,1.1,0.45,0.7,17.19248,26.74385,return,3.4528940999880433,,,,,,,,,,,,,,,,,920,21,male,up_down_width,2024-10-31_14h33.36.087,exp1,2023.1.0,60.13930668658588,
,,,,,,,,,,,,,,,,3,9.1,10,10.9,0,0,0.9,0.35,0.55,2.35,10,initial,36.05,328,361,393,0,0,9,9,9,0,0,,,,,,,0,0,0,0,0,22,22,4,,,,,,,,,,,,num_3,0.8256890999618918,num_3,0.2,1.2,0.44999999999999996,0.8,17.19248,30.5644,return,4.8997283997014165,,,,,,,,,,,,,,,,,920,21,male,up_down_width,2024-10-31_14h33.36.087,exp1,2023.1.0,60.13930668658588,
,,,,,,,,,,,,,,,,4,8.65,9.55,10.45,11.35,0,0.9,0.35,0.55,3.25,10,initial,36.05,312,344,377,409,0,9,9,9,9,0,,,,,,,0,0,0,0,0,23,23,17,,,,,,,,,,,,num_4,0.8050800999626517,num_4,0.4,0.6,0.4,0.7,15.2822,26.74385,return,3.410351999802515,,,,,,,,,,,,,,,,,920,21,male,up_down_width,2024-10-31_14h33.36.087,exp1,2023.1.0,60.13930668658588,
,,,,,,,,,,,,,,,,3,9.1,10,10.9,0,0,0.9,0.35,0.55,2.35,10,initial,36.05,328,361,393,0,0,9,9,9,0,0,,,,,,,0,0,0,0,0,24,24,7,,,,,,,,,,,,num_3,0.7960293998476118,num_3,0.25,0.8,0.44999999999999996,0.8,17.19248,30.5644,return,4.822549799922854,,,,,,,,,,,,,,,,,920,21,male,up_down_width,2024-10-31_14h33.36.087,exp1,2023.1.0,60.13930668658588,
,,,,,,,,,,,,,,,,5,8.2,9.1,10,10.9,11.8,0.9,0.35,0.55,4.15,10,initial,36.05,296,328,361,393,425,9,9,9,9,9,,,,,,,0,0,0,0,0,25,25,22,,,,,,,,,,,,num_5,2.384604499908164,num_5,0.4,0.6,0.45,0.75,17.19248,28.65413,return,8.272049999795854,,,,,,,,,,,,,,,,,920,21,male,up_down_width,2024-10-31_14h33.36.087,exp1,2023.1.0,60.13930668658588,
,,,,,,,,,,,,,,,,4,8.65,9.55,10.45,11.35,0,0.9,0.35,0.55,3.25,10,initial,36.05,312,344,377,409,0,9,9,9,9,0,,,,,,,0,0,0,0,0,26,26,41,,,,,,,,,,,,num_4,1.0679776996839792,num_4,0.55,0.8,0.5,0.8,19.10275,30.5644,return,4.125793899875134,,,,,,,,,,,,,,,,,920,21,male,up_down_width,2024-10-31_14h33.36.087,exp1,2023.1.0,60.13930668658588,
,,,,,,,,,,,,,,,,5,8.2,9.1,10,10.9,11.8,0.9,0.35,0.55,4.15,10,initial,36.05,296,328,361,393,425,9,9,9,9,9,,,,,,,0,0,0,0,0,27,27,24,,,,,,,,,,,,num_5,1.1453641997650266,num_5,0.2,1.1,0.39999999999999997,0.75,15.2822,28.65413,return,8.502925699809566,,,,,,,,,,,,,,,,,920,21,male,up_down_width,2024-10-31_14h33.36.087,exp1,2023.1.0,60.13930668658588,
,,,,,,,,,,,,,,,,3,9.1,10,10.9,0,0,0.9,0.35,0.55,2.35,10,initial,36.05,328,361,393,0,0,9,9,9,0,0,,,,,,,0,0,0,0,0,28,28,0,,,,,,,,,,,,num_3,0.9679015998262912,num_3,0.3,1.2,0.39999999999999997,0.9,15.2822,34.38495,return,4.001693399855867,,,,,,,,,,,,,,,,,920,21,male,up_down_width,2024-10-31_14h33.36.087,exp1,2023.1.0,60.13930668658588,
,,,,,,,,,,,,,,,,5,8.2,9.1,10,10.9,11.8,0.9,0.35,0.55,4.15,10,initial,36.05,296,328,361,393,425,9,9,9,9,9,,,,,,,0,0,0,0,0,29,29,18,,,,,,,,,,,,num_4,0.824757999740541,num_4,0.3,0.4,0.44999999999999996,0.9,17.19248,34.38495,return,6.657666499726474,,,,,,,,,,,,,,,,,920,21,male,up_down_width,2024-10-31_14h33.36.087,exp1,2023.1.0,60.13930668658588,
,,,,,,,,,,,,,,,,3,9.1,10,10.9,0,0,0.9,0.35,0.55,2.35,10,initial,36.05,328,361,393,0,0,9,9,9,0,0,,,,,,,0,0,0,0,0,30,30,2,,,,,,,,,,,,num_3,0.9954404998570681,num_3,0.3,0.6,0.44999999999999996,0.85,17.19248,32.47468,return,5.396625599823892,,,,,,,,,,,,,,,,,920,21,male,up_down_width,2024-10-31_14h33.36.087,exp1,2023.1.0,60.13930668658588,
,,,,,,,,,,,,,,,,4,8.65,9.55,10.45,11.35,0,0.9,0.35,0.55,3.25,10,initial,36.05,312,344,377,409,0,9,9,9,9,0,,,,,,,0,0,0,0,0,31,31,37,,,,,,,,,,,,num_4,1.4616304996889085,num_4,0.4,0.8,0.45,0.8,17.19248,30.5644,return,1.9618355000857264,,,,,,,,,,,,,,,,,920,21,male,up_down_width,2024-10-31_14h33.36.087,exp1,2023.1.0,60.13930668658588,
,,,,,,,,,,,,,,,,3,9.1,10,10.9,0,0,0.9,0.35,0.55,2.35,10,initial,36.05,328,361,393,0,0,9,9,9,0,0,,,,,,,0,0,0,0,0,32,32,3,,,,,,,,,,,,num_3,0.9479906999040395,num_3,0.2,1,0.5499999999999999,1,21.01303,38.2055,return,2.1902632997371256,,,,,,,,,,,,,,,,,920,21,male,up_down_width,2024-10-31_14h33.36.087,exp1,2023.1.0,60.13930668658588,
,,,,,,,,,,,,,,,,3,9.1,10,10.9,0,0,0.9,0.35,0.55,2.35,10,initial,36.05,328,361,393,0,0,9,9,9,0,0,,,,,,,0,0,0,0,0,33,33,33,,,,,,,,,,,,num_3,1.1394722999539226,num_3,0.55,0.8,0.35000000000000003,0.75,13.37193,28.65413,return,3.779094599885866,,,,,,,,,,,,,,,,,920,21,male,up_down_width,2024-10-31_14h33.36.087,exp1,2023.1.0,60.13930668658588,
,,,,,,,,,,,,,,,,4,8.65,9.55,10.45,11.35,0,0.9,0.35,0.55,3.25,10,initial,36.05,312,344,377,409,0,9,9,9,9,0,,,,,,,0,0,0,0,0,34,34,12,,,,,,,,,,,,num_4,0.8907022997736931,num_4,0.3,1.1,0.44999999999999996,0.7,17.19248,26.74385,return,7.906508799875155,,,,,,,,,,,,,,,,,920,21,male,up_down_width,2024-10-31_14h33.36.087,exp1,2023.1.0,60.13930668658588,
,,,,,,,,,,,,,,,,4,8.65,9.55,10.45,11.35,0,0.9,0.35,0.55,3.25,10,initial,36.05,312,344,377,409,0,9,9,9,9,0,,,,,,,0,0,0,0,0,35,35,43,,,,,,,,,,,,num_5,0.8639355998020619,num_5,0.5,1.0,0.45,0.75,17.19248,28.65413,return,3.448062599869445,,,,,,,,,,,,,,,,,920,21,male,up_down_width,2024-10-31_14h33.36.087,exp1,2023.1.0,60.13930668658588,
,,,,,,,,,,,,,,,,3,9.1,10,10.9,0,0,0.9,0.35,0.55,2.35,10,initial,36.05,328,361,393,0,0,9,9,9,0,0,,,,,,,0,0,0,0,0,36,36,32,,,,,,,,,,,,num_3,0.8901486999820918,num_3,0.3,0.5,0.49999999999999994,0.75,19.10275,28.65413,return,3.076607699971646,,,,,,,,,,,,,,,,,920,21,male,up_down_width,2024-10-31_14h33.36.087,exp1,2023.1.0,60.13930668658588,
,,,,,,,,,,,,,,,,3,9.1,10,10.9,0,0,0.9,0.35,0.55,2.35,10,initial,36.05,328,361,393,0,0,9,9,9,0,0,,,,,,,0,0,0,0,0,37,37,30,,,,,,,,,,,,num_3,0.7326525999233127,num_3,0.25,1,0.5499999999999999,0.95,21.01303,36.29523,return,2.0775371997151524,,,,,,,,,,,,,,,,,920,21,male,up_down_width,2024-10-31_14h33.36.087,exp1,2023.1.0,60.13930668658588,
,,,,,,,,,,,,,,,,5,8.2,9.1,10,10.9,11.8,0.9,0.35,0.55,4.15,10,initial,36.05,296,328,361,393,425,9,9,9,9,9,,,,,,,0,0,0,0,0,38,38,52,,,,,,,,,,,,num_5,0.966283299960196,num_5,0.25,0.5,0.44999999999999996,0.75,17.19248,28.65413,return,6.526224699802697,,,,,,,,,,,,,,,,,920,21,male,up_down_width,2024-10-31_14h33.36.087,exp1,2023.1.0,60.13930668658588,
,,,,,,,,,,,,,,,,4,8.65,9.55,10.45,11.35,0,0.9,0.35,0.55,3.25,10,initial,36.05,312,344,377,409,0,9,9,9,9,0,,,,,,,0,0,0,0,0,39,39,38,,,,,,,,,,,,num_4,0.9765266999602318,num_4,0.4,0.9,0.45,0.8,17.19248,30.5644,return,1.635812799911946,,,,,,,,,,,,,,,,,920,21,male,up_down_width,2024-10-31_14h33.36.087,exp1,2023.1.0,60.13930668658588,
,,,,,,,,,,,,,,,,4,8.65,9.55,10.45,11.35,0,0.9,0.35,0.55,3.25,10,initial,36.05,312,344,377,409,0,9,9,9,9,0,,,,,,,0,0,0,0,0,40,40,14,,,,,,,,,,,,num_4,1.6992617999203503,num_4,0.45,0.6,0.4,0.6,15.2822,22.9233,return,3.4020570998545736,,,,,,,,,,,,,,,,,920,21,male,up_down_width,2024-10-31_14h33.36.087,exp1,2023.1.0,60.13930668658588,
,,,,,,,,,,,,,,,,5,8.2,9.1,10,10.9,11.8,0.9,0.35,0.55,4.15,10,initial,36.05,296,328,361,393,425,9,9,9,9,9,,,,,,,0,0,0,0,0,41,41,50,,,,,,,,,,,,num_5,0.8073441998567432,num_5,0.55,1.0,0.45,0.75,17.19248,28.65413,return,3.2802779998164624,,,,,,,,,,,,,,,,,920,21,male,up_down_width,2024-10-31_14h33.36.087,exp1,2023.1.0,60.13930668658588,
,,,,,,,,,,,,,,,,5,8.2,9.1,10,10.9,11.8,0.9,0.35,0.55,4.15,10,initial,36.05,296,328,361,393,425,9,9,9,9,9,,,,,,,0,0,0,0,0,42,42,25,,,,,,,,,,,,num_5,0.9449643997941166,num_5,0.5,0.9,0.45,0.8,17.19248,30.5644,return,2.1662033998873085,,,,,,,,,,,,,,,,,920,21,male,up_down_width,2024-10-31_14h33.36.087,exp1,2023.1.0,60.13930668658588,
,,,,,,,,,,,,,,,,5,8.2,9.1,10,10.9,11.8,0.9,0.35,0.55,4.15,10,initial,36.05,296,328,361,393,425,9,9,9,9,9,,,,,,,0,0,0,0,0,43,43,53,,,,,,,,,,,,num_5,0.844023099867627,num_5,0.35,0.5,0.44999999999999996,0.7,17.19248,26.74385,return,2.131931100040674,,,,,,,,,,,,,,,,,920,21,male,up_down_width,2024-10-31_14h33.36.087,exp1,2023.1.0,60.13930668658588,
,,,,,,,,,,,,,,,,5,8.2,9.1,10,10.9,11.8,0.9,0.35,0.55,4.15,10,initial,36.05,296,328,361,393,425,9,9,9,9,9,,,,,,,0,0,0,0,0,44,44,19,,,,,,,,,,,,num_5,1.581216000020504,num_5,0.3,1.3,0.35,0.7,13.37193,26.74385,return,6.77851269999519,,,,,,,,,,,,,,,,,920,21,male,up_down_width,2024-10-31_14h33.36.087,exp1,2023.1.0,60.13930668658588,
,,,,,,,,,,,,,,,,5,8.2,9.1,10,10.9,11.8,0.9,0.35,0.55,4.15,10,initial,36.05,296,328,361,393,425,9,9,9,9,9,,,,,,,0,0,0,0,0,45,45,45,,,,,,,,,,,,num_5,0.9812207997310907,num_5,0.5,0.7,0.4,0.75,15.2822,28.65413,return,2.2151107997633517,,,,,,,,,,,,,,,,,920,21,male,up_down_width,2024-10-31_14h33.36.087,exp1,2023.1.0,60.13930668658588,
,,,,,,,,,,,,,,,,5,8.2,9.1,10,10.9,11.8,0.9,0.35,0.55,4.15,10,initial,36.05,296,328,361,393,425,9,9,9,9,9,,,,,,,0,0,0,0,0,46,46,26,,,,,,,,,,,,num_5,1.2282810998149216,num_5,0.35,0.4,0.39999999999999997,0.7,15.2822,26.74385,return,5.015775399981067,,,,,,,,,,,,,,,,,920,21,male,up_down_width,2024-10-31_14h33.36.087,exp1,2023.1.0,60.13930668658588,
,,,,,,,,,,,,,,,,3,9.1,10,10.9,0,0,0.9,0.35,0.55,2.35,10,initial,36.05,328,361,393,0,0,9,9,9,0,0,,,,,,,0,0,0,0,0,47,47,6,,,,,,,,,,,,num_3,0.7621809998527169,num_3,0.3,1.1,0.44999999999999996,0.7,17.19248,26.74385,return,4.164356099907309,,,,,,,,,,,,,,,,,920,21,male,up_down_width,2024-10-31_14h33.36.087,exp1,2023.1.0,60.13930668658588,
,,,,,,,,,,,,,,,,5,8.2,9.1,10,10.9,11.8,0.9,0.35,0.55,4.15,10,initial,36.05,296,328,361,393,425,9,9,9,9,9,,,,,,,0,0,0,0,0,48,48,49,,,,,,,,,,,,num_4,0.9181136998813599,num_4,0.35,0.7,0.44999999999999996,0.8,17.19248,30.5644,return,3.38823079993017,,,,,,,,,,,,,,,,,920,21,male,up_down_width,2024-10-31_14h33.36.087,exp1,2023.1.0,60.13930668658588,
,,,,,,,,,,,,,,,,5,8.2,9.1,10,10.9,11.8,0.9,0.35,0.55,4.15,10,initial,36.05,296,328,361,393,425,9,9,9,9,9,,,,,,,0,0,0,0,0,49,49,20,,,,,,,,,,,,num_5,1.0493846996687353,num_5,0.45,0.6,0.45,0.75,17.19248,28.65413,return,4.45890190009959,,,,,,,,,,,,,,,,,920,21,male,up_down_width,2024-10-31_14h33.36.087,exp1,2023.1.0,60.13930668658588,
,,,,,,,,,,,,,,,,5,8.2,9.1,10,10.9,11.8,0.9,0.35,0.55,4.15,10,initial,36.05,296,328,361,393,425,9,9,9,9,9,,,,,,,0,0,0,0,0,50,50,21,,,,,,,,,,,,num_5,1.4133419999852777,num_5,0.25,0.9,0.49999999999999994,0.9,19.10275,34.38495,return,4.549638099968433,,,,,,,,,,,,,,,,,920,21,male,up_down_width,2024-10-31_14h33.36.087,exp1,2023.1.0,60.13930668658588,
,,,,,,,,,,,,,,,,3,9.1,10,10.9,0,0,0.9,0.35,0.55,2.35,10,initial,36.05,328,361,393,0,0,9,9,9,0,0,,,,,,,0,0,0,0,0,51,51,5,,,,,,,,,,,,num_3,0.837194699794054,num_3,0.4,0.9,0.5,0.9,19.10275,34.38495,return,1.404521499760449,,,,,,,,,,,,,,,,,920,21,male,up_down_width,2024-10-31_14h33.36.087,exp1,2023.1.0,60.13930668658588,
,,,,,,,,,,,,,,,,4,8.65,9.55,10.45,11.35,0,0.9,0.35,0.55,3.25,10,initial,36.05,312,344,377,409,0,9,9,9,9,0,,,,,,,0,0,0,0,0,52,52,16,,,,,,,,,,,,num_4,0.8627275000326335,num_4,0.35,0.5,0.44999999999999996,0.7,17.19248,26.74385,return,2.2345336999278516,,,,,,,,,,,,,,,,,920,21,male,up_down_width,2024-10-31_14h33.36.087,exp1,2023.1.0,60.13930668658588,
,,,,,,,,,,,,,,,,3,9.1,10,10.9,0,0,0.9,0.35,0.55,2.35,10,initial,36.05,328,361,393,0,0,9,9,9,0,0,,,,,,,0,0,0,0,0,53,53,27,,,,,,,,,,,,num_3,2.4107147997710854,num_3,0.25,0.3,0.39999999999999997,0.65,15.2822,24.83358,return,3.9835180998779833,,,,,,,,,,,,,,,,,920,21,male,up_down_width,2024-10-31_14h33.36.087,exp1,2023.1.0,60.13930668658588,
,,,,,,,,,,,,,,,,,,,,,,,,,,,,,,,,,,,,,,,,,,,,,0,0,0,0,,,,,,,,,,,,,,,,,,,,,,,,,,,,,1012.8712822000962,1012.8712822000962,1012.8712822000962,,,,,,,,,,,,920,21,male,up_down_width,2024-10-31_14h33.36.087,exp1,2023.1.0,60.13930668658588,
,,,,,,,,,,,,,,,,5,9,9.5,10,10.5,11,0.5,0.1,0.4,2.4,10,initial,36.05,324,342,361,379,397,9,9,9,9,9,,,,,,,1,0,1,0,0,0,0,21,,,,,,,,,,,,num_4,1.0989068998023868,num_4,0.55,1.3,0.45,0.6,17.19248,22.9233,return,6.617900499841198,,,,,,,,,,,,,,,,,920,21,male,up_down_width,2024-10-31_14h33.36.087,exp1,2023.1.0,60.13930668658588,
,,,,,,,,,,,,,,,,5,9,9.5,10,10.5,11,0.5,0.1,0.4,2.4,10,initial,36.05,324,342,361,379,397,9,9,9,9,9,,,,,,,1,0,1,0,0,1,1,22,,,,,,,,,,,,num_5,0.9021057998761535,num_5,0.55,0.6,0.45,0.55,17.19248,21.01303,return,3.536377399927005,,,,,,,,,,,,,,,,,920,21,male,up_down_width,2024-10-31_14h33.36.087,exp1,2023.1.0,60.13930668658588,
,,,,,,,,,,,,,,,,5,9,9.5,10,10.5,11,0.5,0.1,0.4,2.4,10,initial,36.05,324,342,361,379,397,9,9,9,9,9,,,,,,,1,0,1,0,0,2,2,48,,,,,,,,,,,,num_4,1.61224259971641,num_4,0.3,0.8,0.39999999999999997,0.5,15.2822,19.10275,return,3.797495599836111,,,,,,,,,,,,,,,,,920,21,male,up_down_width,2024-10-31_14h33.36.087,exp1,2023.1.0,60.13930668658588,
,,,,,,,,,,,,,,,,4,9.25,9.75,10.25,10.75,0,0.5,0.1,0.4,1.9000000000000001,10,initial,36.05,333,351,370,388,0,9,9,9,9,0,,,,,,,1,0,1,0,0,3,3,16,,,,,,,,,,,,num_3,1.3728394997306168,num_3,0.35,1.1,0.49999999999999994,0.6,19.10275,22.9233,return,4.128681299742311,,,,,,,,,,,,,,,,,920,21,male,up_down_width,2024-10-31_14h33.36.087,exp1,2023.1.0,60.13930668658588,
,,,,,,,,,,,,,,,,5,9,9.5,10,10.5,11,0.5,0.1,0.4,2.4,10,initial,36.05,324,342,361,379,397,9,9,9,9,9,,,,,,,1,0,1,0,0,4,4,53,,,,,,,,,,,,num_4,1.0406652998644859,num_4,0.55,1.0,0.5,0.6,19.10275,22.9233,return,2.9958879998885095,,,,,,,,,,,,,,,,,920,21,male,up_down_width,2024-10-31_14h33.36.087,exp1,2023.1.0,60.13930668658588,
,,,,,,,,,,,,,,,,3,9.5,10,10.5,0,0,0.5,0.1,0.4,1.4000000000000001,10,initial,36.05,342,361,379,0,0,9,9,9,0,0,,,,,,,1,0,1,0,0,5,5,6,,,,,,,,,,,,num_3,0.7847502997610718,num_3,0.35,0.8,0.44999999999999996,0.55,17.19248,21.01303,return,2.139508199878037,,,,,,,,,,,,,,,,,920,21,male,up_down_width,2024-10-31_14h33.36.087,exp1,2023.1.0,60.13930668658588,
,,,,,,,,,,,,,,,,3,9.5,10,10.5,0,0,0.5,0.1,0.4,1.4000000000000001,10,initial,36.05,342,361,379,0,0,9,9,9,0,0,,,,,,,1,0,1,0,0,6,6,4,,,,,,,,,,,,num_3,0.8878138000145555,num_3,0.4,0.5,0.45,0.55,17.19248,21.01303,return,2.099193799775094,,,,,,,,,,,,,,,,,920,21,male,up_down_width,2024-10-31_14h33.36.087,exp1,2023.1.0,60.13930668658588,
,,,,,,,,,,,,,,,,5,9,9.5,10,10.5,11,0.5,0.1,0.4,2.4,10,initial,36.05,324,342,361,379,397,9,9,9,9,9,,,,,,,1,0,1,0,0,7,7,24,,,,,,,,,,,,num_4,1.558827699860558,num_4,0.35,0.4,0.35,0.5,13.37193,19.10275,return,2.1023982998449355,,,,,,,,,,,,,,,,,920,21,male,up_down_width,2024-10-31_14h33.36.087,exp1,2023.1.0,60.13930668658588,
,,,,,,,,,,,,,,,,5,9,9.5,10,10.5,11,0.5,0.1,0.4,2.4,10,initial,36.05,324,342,361,379,397,9,9,9,9,9,,,,,,,1,0,1,0,0,8,8,50,,,,,,,,,,,,num_4,0.7725786999799311,num_4,0.35,0.8,0.44999999999999996,0.6,17.19248,22.9233,return,2.7027301997877657,,,,,,,,,,,,,,,,,920,21,male,up_down_width,2024-10-31_14h33.36.087,exp1,2023.1.0,60.13930668658588,
,,,,,,,,,,,,,,,,3,9.5,10,10.5,0,0,0.5,0.1,0.4,1.4000000000000001,10,initial,36.05,342,361,379,0,0,9,9,9,0,0,,,,,,,1,0,1,0,0,9,9,0,,,,,,,,,,,,num_3,0.8474488998763263,num_3,0.35,0.8,0.44999999999999996,0.6,17.19248,22.9233,return,2.0918197999708354,,,,,,,,,,,,,,,,,920,21,male,up_down_width,2024-10-31_14h33.36.087,exp1,2023.1.0,60.13930668658588,
,,,,,,,,,,,,,,,,5,9,9.5,10,10.5,11,0.5,0.1,0.4,2.4,10,initial,36.05,324,342,361,379,397,9,9,9,9,9,,,,,,,1,0,1,0,0,10,10,19,,,,,,,,,,,,num_5,1.0893114998470992,num_5,0.3,0.8,0.39999999999999997,0.5,15.2822,19.10275,return,3.327828199835494,,,,,,,,,,,,,,,,,920,21,male,up_down_width,2024-10-31_14h33.36.087,exp1,2023.1.0,60.13930668658588,
,,,,,,,,,,,,,,,,5,9,9.5,10,10.5,11,0.5,0.1,0.4,2.4,10,initial,36.05,324,342,361,379,397,9,9,9,9,9,,,,,,,1,0,1,0,0,11,11,23,,,,,,,,,,,,num_5,0.9824921998661011,num_5,0.2,0.9,0.39999999999999997,0.55,15.2822,21.01303,return,4.0633337998297065,,,,,,,,,,,,,,,,,920,21,male,up_down_width,2024-10-31_14h33.36.087,exp1,2023.1.0,60.13930668658588,
,,,,,,,,,,,,,,,,4,9.25,9.75,10.25,10.75,0,0.5,0.1,0.4,1.9000000000000001,10,initial,36.05,333,351,370,388,0,9,9,9,9,0,,,,,,,1,0,1,0,0,12,12,12,,,,,,,,,,,,num_4,2.3816000998485833,num_4,0.2,0.7,0.39999999999999997,0.5,15.2822,19.10275,return,2.8580219000577927,,,,,,,,,,,,,,,,,920,21,male,up_down_width,2024-10-31_14h33.36.087,exp1,2023.1.0,60.13930668658588,
,,,,,,,,,,,,,,,,5,9,9.5,10,10.5,11,0.5,0.1,0.4,2.4,10,initial,36.05,324,342,361,379,397,9,9,9,9,9,,,,,,,1,0,1,0,0,13,13,52,,,,,,,,,,,,num_4,1.0092132999561727,num_4,0.2,1.0,0.39999999999999997,0.6,15.2822,22.9233,return,3.218897699844092,,,,,,,,,,,,,,,,,920,21,male,up_down_width,2024-10-31_14h33.36.087,exp1,2023.1.0,60.13930668658588,
,,,,,,,,,,,,,,,,5,9,9.5,10,10.5,11,0.5,0.1,0.4,2.4,10,initial,36.05,324,342,361,379,397,9,9,9,9,9,,,,,,,1,0,1,0,0,14,14,18,,,,,,,,,,,,num_5,1.1727810997981578,num_5,0.25,0.6,0.39999999999999997,0.5,15.2822,19.10275,return,2.0192926998715848,,,,,,,,,,,,,,,,,920,21,male,up_down_width,2024-10-31_14h33.36.087,exp1,2023.1.0,60.13930668658588,
,,,,,,,,,,,,,,,,5,9,9.5,10,10.5,11,0.5,0.1,0.4,2.4,10,initial,36.05,324,342,361,379,397,9,9,9,9,9,,,,,,,1,0,1,0,0,15,15,20,,,,,,,,,,,,num_5,0.7367561999708414,num_5,0.2,0.9,0.39999999999999997,0.5,15.2822,19.10275,return,4.407775099854916,,,,,,,,,,,,,,,,,920,21,male,up_down_width,2024-10-31_14h33.36.087,exp1,2023.1.0,60.13930668658588,
,,,,,,,,,,,,,,,,4,9.25,9.75,10.25,10.75,0,0.5,0.1,0.4,1.9000000000000001,10,initial,36.05,333,351,370,388,0,9,9,9,9,0,,,,,,,1,0,1,0,0,16,16,37,,,,,,,,,,,,num_4,0.7991196997463703,num_4,0.3,1.2,0.39999999999999997,0.6,15.2822,22.9233,return,3.4857236999087036,,,,,,,,,,,,,,,,,920,21,male,up_down_width,2024-10-31_14h33.36.087,exp1,2023.1.0,60.13930668658588,
,,,,,,,,,,,,,,,,4,9.25,9.75,10.25,10.75,0,0.5,0.1,0.4,1.9000000000000001,10,initial,36.05,333,351,370,388,0,9,9,9,9,0,,,,,,,1,0,1,0,0,17,17,13,,,,,,,,,,,,num_3,2.404406299814582,num_3,0.55,1,0.45,0.65,17.19248,24.83358,return,2.67206749971956,,,,,,,,,,,,,,,,,920,21,male,up_down_width,2024-10-31_14h33.36.087,exp1,2023.1.0,60.13930668658588,
,,,,,,,,,,,,,,,,4,9.25,9.75,10.25,10.75,0,0.5,0.1,0.4,1.9000000000000001,10,initial,36.05,333,351,370,388,0,9,9,9,9,0,,,,,,,1,0,1,0,0,18,18,41,,,,,,,,,,,,num_4,0.9075787998735905,num_4,0.2,0.3,0.39999999999999997,0.5,15.2822,19.10275,return,3.79343429999426,,,,,,,,,,,,,,,,,920,21,male,up_down_width,2024-10-31_14h33.36.087,exp1,2023.1.0,60.13930668658588,
,,,,,,,,,,,,,,,,4,9.25,9.75,10.25,10.75,0,0.5,0.1,0.4,1.9000000000000001,10,initial,36.05,333,351,370,388,0,9,9,9,9,0,,,,,,,1,0,1,0,0,19,19,38,,,,,,,,,,,,num_3,1.0662269999738783,num_3,0.4,0.5,0.45,0.55,17.19248,21.01303,return,1.8229772998020053,,,,,,,,,,,,,,,,,920,21,male,up_down_width,2024-10-31_14h33.36.087,exp1,2023.1.0,60.13930668658588,
,,,,,,,,,,,,,,,,3,9.5,10,10.5,0,0,0.5,0.1,0.4,1.4000000000000001,10,initial,36.05,342,361,379,0,0,9,9,9,0,0,,,,,,,1,0,1,0,0,20,20,30,,,,,,,,,,,,num_3,0.9121344999875873,num_3,0.5,0.9,0.5,0.6,19.10275,22.9233,return,3.3810541997663677,,,,,,,,,,,,,,,,,920,21,male,up_down_width,2024-10-31_14h33.36.087,exp1,2023.1.0,60.13930668658588,
,,,,,,,,,,,,,,,,4,9.25,9.75,10.25,10.75,0,0.5,0.1,0.4,1.9000000000000001,10,initial,36.05,333,351,370,388,0,9,9,9,9,0,,,,,,,1,0,1,0,0,21,21,9,,,,,,,,,,,,num_3,1.0140781998634338,num_3,0.25,1.2,0.39999999999999997,0.5,15.2822,19.10275,return,4.636248299852014,,,,,,,,,,,,,,,,,920,21,male,up_down_width,2024-10-31_14h33.36.087,exp1,2023.1.0,60.13930668658588,
,,,,,,,,,,,,,,,,5,9,9.5,10,10.5,11,0.5,0.1,0.4,2.4,10,initial,36.05,324,342,361,379,397,9,9,9,9,9,,,,,,,1,0,1,0,0,22,22,51,,,,,,,,,,,,num_4,1.0473648000042886,num_4,0.45,0.9,0.5,0.6,19.10275,22.9233,return,5.6740518999286,,,,,,,,,,,,,,,,,920,21,male,up_down_width,2024-10-31_14h33.36.087,exp1,2023.1.0,60.13930668658588,
,,,,,,,,,,,,,,,,3,9.5,10,10.5,0,0,0.5,0.1,0.4,1.4000000000000001,10,initial,36.05,342,361,379,0,0,9,9,9,0,0,,,,,,,1,0,1,0,0,23,23,35,,,,,,,,,,,,num_3,0.7485884998459369,num_3,0.25,0.5,0.49999999999999994,0.6,19.10275,22.9233,return,5.18972669984214,,,,,,,,,,,,,,,,,920,21,male,up_down_width,2024-10-31_14h33.36.087,exp1,2023.1.0,60.13930668658588,
,,,,,,,,,,,,,,,,5,9,9.5,10,10.5,11,0.5,0.1,0.4,2.4,10,initial,36.05,324,342,361,379,397,9,9,9,9,9,,,,,,,1,0,1,0,0,24,24,46,,,,,,,,,,,,num_4,0.9394467000383884,num_4,0.45,1.2,0.5,0.6,19.10275,22.9233,return,3.328769699903205,,,,,,,,,,,,,,,,,920,21,male,up_down_width,2024-10-31_14h33.36.087,exp1,2023.1.0,60.13930668658588,
,,,,,,,,,,,,,,,,4,9.25,9.75,10.25,10.75,0,0.5,0.1,0.4,1.9000000000000001,10,initial,36.05,333,351,370,388,0,9,9,9,9,0,,,,,,,1,0,1,0,0,25,25,36,,,,,,,,,,,,num_3,0.9082285000476986,num_3,0.45,1,0.5,0.6,19.10275,22.9233,return,5.942656899802387,,,,,,,,,,,,,,,,,920,21,male,up_down_width,2024-10-31_14h33.36.087,exp1,2023.1.0,60.13930668658588,
,,,,,,,,,,,,,,,,3,9.5,10,10.5,0,0,0.5,0.1,0.4,1.4000000000000001,10,initial,36.05,342,361,379,0,0,9,9,9,0,0,,,,,,,1,0,1,0,0,26,26,8,,,,,,,,,,,,num_3,0.6901910998858511,num_3,0.3,1.3,0.44999999999999996,0.55,17.19248,21.01303,return,4.7576483997981995,,,,,,,,,,,,,,,,,920,21,male,up_down_width,2024-10-31_14h33.36.087,exp1,2023.1.0,60.13930668658588,
,,,,,,,,,,,,,,,,3,9.5,10,10.5,0,0,0.5,0.1,0.4,1.4000000000000001,10,initial,36.05,342,361,379,0,0,9,9,9,0,0,,,,,,,1,0,1,0,0,27,27,5,,,,,,,,,,,,num_3,0.734710699878633,num_3,0.25,0.3,0.49999999999999994,0.6,19.10275,22.9233,return,3.388033099938184,,,,,,,,,,,,,,,,,920,21,male,up_down_width,2024-10-31_14h33.36.087,exp1,2023.1.0,60.13930668658588,
,,,,,,,,,,,,,,,,3,9.5,10,10.5,0,0,0.5,0.1,0.4,1.4000000000000001,10,initial,36.05,342,361,379,0,0,9,9,9,0,0,,,,,,,1,0,1,0,0,28,28,1,,,,,,,,,,,,num_3,0.6070575998164713,num_3,0.45,0.9,0.55,0.65,21.01303,24.83358,return,2.4151368997991085,,,,,,,,,,,,,,,,,920,21,male,up_down_width,2024-10-31_14h33.36.087,exp1,2023.1.0,60.13930668658588,
,,,,,,,,,,,,,,,,4,9.25,9.75,10.25,10.75,0,0.5,0.1,0.4,1.9000000000000001,10,initial,36.05,333,351,370,388,0,9,9,9,9,0,,,,,,,1,0,1,0,0,29,29,10,,,,,,,,,,,,num_3,0.5685041998513043,num_3,0.4,1.1,0.4,0.5,15.2822,19.10275,return,3.246048799715936,,,,,,,,,,,,,,,,,920,21,male,up_down_width,2024-10-31_14h33.36.087,exp1,2023.1.0,60.13930668658588,
,,,,,,,,,,,,,,,,3,9.5,10,10.5,0,0,0.5,0.1,0.4,1.4000000000000001,10,initial,36.05,342,361,379,0,0,9,9,9,0,0,,,,,,,1,0,1,0,0,30,30,7,,,,,,,,,,,,num_3,0.7618706999346614,num_3,0.3,0.9,0.35,0.45,13.37193,17.19248,return,2.932586000068113,,,,,,,,,,,,,,,,,920,21,male,up_down_width,2024-10-31_14h33.36.087,exp1,2023.1.0,60.13930668658588,
,,,,,,,,,,,,,,,,4,9.25,9.75,10.25,10.75,0,0.5,0.1,0.4,1.9000000000000001,10,initial,36.05,333,351,370,388,0,9,9,9,9,0,,,,,,,1,0,1,0,0,31,31,11,,,,,,,,,,,,num_3,0.7736638998612761,num_3,0.55,1,0.5,0.65,19.10275,24.83358,return,2.773126899730414,,,,,,,,,,,,,,,,,920,21,male,up_down_width,2024-10-31_14h33.36.087,exp1,2023.1.0,60.13930668658588,
,,,,,,,,,,,,,,,,3,9.5,10,10.5,0,0,0.5,0.1,0.4,1.4000000000000001,10,initial,36.05,342,361,379,0,0,9,9,9,0,0,,,,,,,1,0,1,0,0,32,32,31,,,,,,,,,,,,num_3,0.7615694999694824,num_3,0.4,1,0.35000000000000003,0.45,13.37193,17.19248,return,6.0590084998402745,,,,,,,,,,,,,,,,,920,21,male,up_down_width,2024-10-31_14h33.36.087,exp1,2023.1.0,60.13930668658588,
,,,,,,,,,,,,,,,,3,9.5,10,10.5,0,0,0.5,0.1,0.4,1.4000000000000001,10,initial,36.05,342,361,379,0,0,9,9,9,0,0,,,,,,,1,0,1,0,0,33,33,32,,,,,,,,,,,,num_3,0.8882507998496294,num_3,0.3,0.7,0.3,0.4,11.46165,15.2822,return,2.1441724998876452,,,,,,,,,,,,,,,,,920,21,male,up_down_width,2024-10-31_14h33.36.087,exp1,2023.1.0,60.13930668658588,
,,,,,,,,,,,,,,,,5,9,9.5,10,10.5,11,0.5,0.1,0.4,2.4,10,initial,36.05,324,342,361,379,397,9,9,9,9,9,,,,,,,1,0,1,0,0,34,34,25,,,,,,,,,,,,num_4,0.8527467998210341,num_4,0.3,0.7,0.35,0.5,13.37193,19.10275,return,2.8011491999495775,,,,,,,,,,,,,,,,,920,21,male,up_down_width,2024-10-31_14h33.36.087,exp1,2023.1.0,60.13930668658588,
,,,,,,,,,,,,,,,,5,9,9.5,10,10.5,11,0.5,0.1,0.4,2.4,10,initial,36.05,324,342,361,379,397,9,9,9,9,9,,,,,,,1,0,1,0,0,35,35,47,,,,,,,,,,,,num_4,0.8748570997267962,num_4,0.55,0.7,0.45,0.6,17.19248,22.9233,return,2.6712723998352885,,,,,,,,,,,,,,,,,920,21,male,up_down_width,2024-10-31_14h33.36.087,exp1,2023.1.0,60.13930668658588,
,,,,,,,,,,,,,,,,5,9,9.5,10,10.5,11,0.5,0.1,0.4,2.4,10,initial,36.05,324,342,361,379,397,9,9,9,9,9,,,,,,,1,0,1,0,0,36,36,49,,,,,,,,,,,,num_5,1.5398192999418825,num_5,0.3,1.2,0.39999999999999997,0.5,15.2822,19.10275,return,4.596114499727264,,,,,,,,,,,,,,,,,920,21,male,up_down_width,2024-10-31_14h33.36.087,exp1,2023.1.0,60.13930668658588,
,,,,,,,,,,,,,,,,4,9.25,9.75,10.25,10.75,0,0.5,0.1,0.4,1.9000000000000001,10,initial,36.05,333,351,370,388,0,9,9,9,9,0,,,,,,,1,0,1,0,0,37,37,43,,,,,,,,,,,,num_4,0.9440840999595821,num_4,0.25,1.2,0.39999999999999997,0.6,15.2822,22.9233,return,4.467152299825102,,,,,,,,,,,,,,,,,920,21,male,up_down_width,2024-10-31_14h33.36.087,exp1,2023.1.0,60.13930668658588,
,,,,,,,,,,,,,,,,3,9.5,10,10.5,0,0,0.5,0.1,0.4,1.4000000000000001,10,initial,36.05,342,361,379,0,0,9,9,9,0,0,,,,,,,1,0,1,0,0,38,38,34,,,,,,,,,,,,num_3,0.7460665998514742,num_3,0.2,0.4,0.35,0.5,13.37193,19.10275,return,4.885658700019121,,,,,,,,,,,,,,,,,920,21,male,up_down_width,2024-10-31_14h33.36.087,exp1,2023.1.0,60.13930668658588,
,,,,,,,,,,,,,,,,4,9.25,9.75,10.25,10.75,0,0.5,0.1,0.4,1.9000000000000001,10,initial,36.05,333,351,370,388,0,9,9,9,9,0,,,,,,,1,0,1,0,0,39,39,15,,,,,,,,,,,,num_4,0.8886717997957021,num_4,0.3,0.3,0.35,0.5,13.37193,19.10275,return,3.2983363000676036,,,,,,,,,,,,,,,,,920,21,male,up_down_width,2024-10-31_14h33.36.087,exp1,2023.1.0,60.13930668658588,
,,,,,,,,,,,,,,,,4,9.25,9.75,10.25,10.75,0,0.5,0.1,0.4,1.9000000000000001,10,initial,36.05,333,351,370,388,0,9,9,9,9,0,,,,,,,1,0,1,0,0,40,40,40,,,,,,,,,,,,num_4,0.8248625998385251,num_4,0.35,1.0,0.35,0.5,13.37193,19.10275,return,1.7479157999623567,,,,,,,,,,,,,,,,,920,21,male,up_down_width,2024-10-31_14h33.36.087,exp1,2023.1.0,60.13930668658588,
,,,,,,,,,,,,,,,,5,9,9.5,10,10.5,11,0.5,0.1,0.4,2.4,10,initial,36.05,324,342,361,379,397,9,9,9,9,9,,,,,,,1,0,1,0,0,41,41,26,,,,,,,,,,,,num_4,0.7988461998756975,num_4,0.35,1.3,0.35,0.5,13.37193,19.10275,return,4.25008359993808,,,,,,,,,,,,,,,,,920,21,male,up_down_width,2024-10-31_14h33.36.087,exp1,2023.1.0,60.13930668658588,
,,,,,,,,,,,,,,,,4,9.25,9.75,10.25,10.75,0,0.5,0.1,0.4,1.9000000000000001,10,initial,36.05,333,351,370,388,0,9,9,9,9,0,,,,,,,1,0,1,0,0,42,42,42,,,,,,,,,,,,num_4,0.8842635999899358,num_4,0.3,0.7,0.3,0.4,11.46165,15.2822,return,1.631912199780345,,,,,,,,,,,,,,,,,920,21,male,up_down_width,2024-10-31_14h33.36.087,exp1,2023.1.0,60.13930668658588,
,,,,,,,,,,,,,,,,5,9,9.5,10,10.5,11,0.5,0.1,0.4,2.4,10,initial,36.05,324,342,361,379,397,9,9,9,9,9,,,,,,,1,0,1,0,0,43,43,45,,,,,,,,,,,,num_5,1.5539042998570949,num_5,0.55,1.1,0.4,0.5,15.2822,19.10275,return,3.9702725999522954,,,,,,,,,,,,,,,,,920,21,male,up_down_width,2024-10-31_14h33.36.087,exp1,2023.1.0,60.13930668658588,
,,,,,,,,,,,,,,,,4,9.25,9.75,10.25,10.75,0,0.5,0.1,0.4,1.9000000000000001,10,initial,36.05,333,351,370,388,0,9,9,9,9,0,,,,,,,1,0,1,0,0,44,44,39,,,,,,,,,,,,num_4,0.9450369998812675,num_4,0.25,1.1,0.39999999999999997,0.6,15.2822,22.9233,return,3.1943002997431904,,,,,,,,,,,,,,,,,920,21,male,up_down_width,2024-10-31_14h33.36.087,exp1,2023.1.0,60.13930668658588,
,,,,,,,,,,,,,,,,3,9.5,10,10.5,0,0,0.5,0.1,0.4,1.4000000000000001,10,initial,36.05,342,361,379,0,0,9,9,9,0,0,,,,,,,1,0,1,0,0,45,45,33,,,,,,,,,,,,num_3,0.9397523999214172,num_3,0.55,1,0.45,0.6,17.19248,22.9233,return,2.292568000033498,,,,,,,,,,,,,,,,,920,21,male,up_down_width,2024-10-31_14h33.36.087,exp1,2023.1.0,60.13930668658588,
,,,,,,,,,,,,,,,,3,9.5,10,10.5,0,0,0.5,0.1,0.4,1.4000000000000001,10,initial,36.05,342,361,379,0,0,9,9,9,0,0,,,,,,,1,0,1,0,0,46,46,2,,,,,,,,,,,,num_3,0.6201849000062793,num_3,0.4,1.1,0.35000000000000003,0.5,13.37193,19.10275,return,2.571480699814856,,,,,,,,,,,,,,,,,920,21,male,up_down_width,2024-10-31_14h33.36.087,exp1,2023.1.0,60.13930668658588,
,,,,,,,,,,,,,,,,3,9.5,10,10.5,0,0,0.5,0.1,0.4,1.4000000000000001,10,initial,36.05,342,361,379,0,0,9,9,9,0,0,,,,,,,1,0,1,0,0,47,47,3,,,,,,,,,,,,num_3,0.6607010997831821,num_3,0.35,1,0.3,0.5,11.46165,19.10275,return,2.468511800048873,,,,,,,,,,,,,,,,,920,21,male,up_down_width,2024-10-31_14h33.36.087,exp1,2023.1.0,60.13930668658588,
,,,,,,,,,,,,,,,,3,9.5,10,10.5,0,0,0.5,0.1,0.4,1.4000000000000001,10,initial,36.05,342,361,379,0,0,9,9,9,0,0,,,,,,,1,0,1,0,0,48,48,28,,,,,,,,,,,,num_3,0.6794799997005612,num_3,0.35,0.4,0.39999999999999997,0.55,15.2822,21.01303,return,2.8857690000440925,,,,,,,,,,,,,,,,,920,21,male,up_down_width,2024-10-31_14h33.36.087,exp1,2023.1.0,60.13930668658588,
,,,,,,,,,,,,,,,,4,9.25,9.75,10.25,10.75,0,0.5,0.1,0.4,1.9000000000000001,10,initial,36.05,333,351,370,388,0,9,9,9,9,0,,,,,,,1,0,1,0,0,49,49,14,,,,,,,,,,,,num_4,0.9903022998478264,num_4,0.45,0.7,0.30000000000000004,0.5,11.46165,19.10275,return,3.0458420997019857,,,,,,,,,,,,,,,,,920,21,male,up_down_width,2024-10-31_14h33.36.087,exp1,2023.1.0,60.13930668658588,
,,,,,,,,,,,,,,,,3,9.5,10,10.5,0,0,0.5,0.1,0.4,1.4000000000000001,10,initial,36.05,342,361,379,0,0,9,9,9,0,0,,,,,,,1,0,1,0,0,50,50,27,,,,,,,,,,,,num_3,0.8609879999421537,num_3,0.5,1.1,0.4,0.55,15.2822,21.01303,return,3.379597899969667,,,,,,,,,,,,,,,,,920,21,male,up_down_width,2024-10-31_14h33.36.087,exp1,2023.1.0,60.13930668658588,
,,,,,,,,,,,,,,,,4,9.25,9.75,10.25,10.75,0,0.5,0.1,0.4,1.9000000000000001,10,initial,36.05,333,351,370,388,0,9,9,9,9,0,,,,,,,1,0,1,0,0,51,51,44,,,,,,,,,,,,num_4,0.9401414999738336,num_4,0.4,0.5,0.4,0.5,15.2822,19.10275,return,1.284975699847564,,,,,,,,,,,,,,,,,920,21,male,up_down_width,2024-10-31_14h33.36.087,exp1,2023.1.0,60.13930668658588,
,,,,,,,,,,,,,,,,4,9.25,9.75,10.25,10.75,0,0.5,0.1,0.4,1.9000000000000001,10,initial,36.05,333,351,370,388,0,9,9,9,9,0,,,,,,,1,0,1,0,0,52,52,17,,,,,,,,,,,,num_3,0.7027896998915821,num_3,0.55,0.9,0.5,0.6,19.10275,22.9233,return,2.034345899708569,,,,,,,,,,,,,,,,,920,21,male,up_down_width,2024-10-31_14h33.36.087,exp1,2023.1.0,60.13930668658588,
,,,,,,,,,,,,,,,,3,9.5,10,10.5,0,0,0.5,0.1,0.4,1.4000000000000001,10,initial,36.05,342,361,379,0,0,9,9,9,0,0,,,,,,,1,0,1,0,0,53,53,29,,,,,,,,,,,,num_2,1.672171900048852,num_2,0.55,1.2,0.5,0.7,19.10275,26.74385,return,3.024393899831921,,,,,,,,,,,,,,,,,920,21,male,up_down_width,2024-10-31_14h33.36.087,exp1,2023.1.0,60.13930668658588,
,,,,,,,,,,,,,,,,,,,,,,,,,,,,,,,,,,,,,,,,,,,,,1,0,1,0,,,,,,,,,,,,,,,,,,,,,,,,,,,,,1403.253852300113,1403.253852300113,1403.253852300113,,,,,,,,,,,,920,21,male,up_down_width,2024-10-31_14h33.36.087,exp1,2023.1.0,60.13930668658588,
,,,,,,,,,,,,,,,,3,9.5,10,10.5,0,0,0.5,0.25,0.25,1.25,10,initial,36.05,342,361,379,0,0,9,9,9,0,0,,,,,,,2,0,2,0,0,0,0,33,,,,,,,,,,,,num_3,1.3514611998107284,num_3,0.3,1.3,0.25,0.55,9.55138,21.01303,return,3.984532699920237,,,,,,,,,,,,,,,,,920,21,male,up_down_width,2024-10-31_14h33.36.087,exp1,2023.1.0,60.13930668658588,
,,,,,,,,,,,,,,,,4,9.25,9.75,10.25,10.75,0,0.5,0.25,0.25,1.75,10,initial,36.05,333,351,370,388,0,9,9,9,9,0,,,,,,,2,0,2,0,0,1,1,36,,,,,,,,,,,,num_4,0.8883525999262929,num_4,0.3,0.4,0.25,0.5,9.55138,19.10275,return,2.2915994997601956,,,,,,,,,,,,,,,,,920,21,male,up_down_width,2024-10-31_14h33.36.087,exp1,2023.1.0,60.13930668658588,
,,,,,,,,,,,,,,,,4,9.25,9.75,10.25,10.75,0,0.5,0.25,0.25,1.75,10,initial,36.05,333,351,370,388,0,9,9,9,9,0,,,,,,,2,0,2,0,0,2,2,39,,,,,,,,,,,,num_4,0.9396628998219967,num_4,0.25,0.7,0.2,0.5,7.6411,19.10275,return,1.6495605998206884,,,,,,,,,,,,,,,,,920,21,male,up_down_width,2024-10-31_14h33.36.087,exp1,2023.1.0,60.13930668658588,
,,,,,,,,,,,,,,,,5,9,9.5,10,10.5,11,0.5,0.25,0.25,2.25,10,initial,36.05,324,342,361,379,397,9,9,9,9,9,,,,,,,2,0,2,0,0,3,3,47,,,,,,,,,,,,num_5,0.88579440000467,num_5,0.2,1.3,0.15000000000000002,0.5,5.73083,19.10275,return,4.640552299795672,,,,,,,,,,,,,,,,,920,21,male,up_down_width,2024-10-31_14h33.36.087,exp1,2023.1.0,60.13930668658588,
,,,,,,,,,,,,,,,,3,9.5,10,10.5,0,0,0.5,0.25,0.25,1.25,10,initial,36.05,342,361,379,0,0,9,9,9,0,0,,,,,,,2,0,2,0,0,4,4,0,,,,,,,,,,,,num_3,0.84910609992221,num_3,0.25,0.9,0.15000000000000002,0.65,5.73083,24.83358,return,1.8638022998347878,,,,,,,,,,,,,,,,,920,21,male,up_down_width,2024-10-31_14h33.36.087,exp1,2023.1.0,60.13930668658588,
,,,,,,,,,,,,,,,,4,9.25,9.75,10.25,10.75,0,0.5,0.25,0.25,1.75,10,initial,36.05,333,351,370,388,0,9,9,9,9,0,,,,,,,2,0,2,0,0,5,5,44,,,,,,,,,,,,num_4,0.8102490997407585,num_4,0.55,1.3,0.15000000000000008,0.5,5.73083,19.10275,return,5.076956099830568,,,,,,,,,,,,,,,,,920,21,male,up_down_width,2024-10-31_14h33.36.087,exp1,2023.1.0,60.13930668658588,
,,,,,,,,,,,,,,,,4,9.25,9.75,10.25,10.75,0,0.5,0.25,0.25,1.75,10,initial,36.05,333,351,370,388,0,9,9,9,9,0,,,,,,,2,0,2,0,0,6,6,41,,,,,,,,,,,,num_4,0.811991399852559,num_4,0.25,0.7,0.15000000000000002,0.6,5.73083,22.9233,return,1.236987299984321,,,,,,,,,,,,,,,,,920,21,male,up_down_width,2024-10-31_14h33.36.087,exp1,2023.1.0,60.13930668658588,
,,,,,,,,,,,,,,,,4,9.25,9.75,10.25,10.75,0,0.5,0.25,0.25,1.75,10,initial,36.05,333,351,370,388,0,9,9,9,9,0,,,,,,,2,0,2,0,0,7,7,12,,,,,,,,,,,,num_4,0.8277814998291433,num_4,0.3,0.9,0.2,0.6,7.6411,22.9233,return,6.439067799830809,,,,,,,,,,,,,,,,,920,21,male,up_down_width,2024-10-31_14h33.36.087,exp1,2023.1.0,60.13930668658588,
,,,,,,,,,,,,,,,,3,9.5,10,10.5,0,0,0.5,0.25,0.25,1.25,10,initial,36.05,342,361,379,0,0,9,9,9,0,0,,,,,,,2,0,2,0,0,8,8,5,,,,,,,,,,,,num_3,0.8580972999334335,num_3,0.2,1.1,0.2,0.7,7.6411,26.74385,return,4.167617499828339,,,,,,,,,,,,,,,,,920,21,male,up_down_width,2024-10-31_14h33.36.087,exp1,2023.1.0,60.13930668658588,
,,,,,,,,,,,,,,,,4,9.25,9.75,10.25,10.75,0,0.5,0.25,0.25,1.75,10,initial,36.05,333,351,370,388,0,9,9,9,9,0,,,,,,,2,0,2,0,0,9,9,40,,,,,,,,,,,,num_4,0.9780142998788506,num_4,0.55,1.2,0.20000000000000007,0.6,7.6411,22.9233,return,3.5755507999565452,,,,,,,,,,,,,,,,,920,21,male,up_down_width,2024-10-31_14h33.36.087,exp1,2023.1.0,60.13930668658588,
,,,,,,,,,,,,,,,,4,9.25,9.75,10.25,10.75,0,0.5,0.25,0.25,1.75,10,initial,36.05,333,351,370,388,0,9,9,9,9,0,,,,,,,2,0,2,0,0,10,10,37,,,,,,,,,,,,num_5,0.9625065999571234,num_5,0.45,0.9,0.15000000000000008,0.65,5.73083,24.83358,return,3.2225634998176247,,,,,,,,,,,,,,,,,920,21,male,up_down_width,2024-10-31_14h33.36.087,exp1,2023.1.0,60.13930668658588,
,,,,,,,,,,,,,,,,5,9,9.5,10,10.5,11,0.5,0.25,0.25,2.25,10,initial,36.05,324,342,361,379,397,9,9,9,9,9,,,,,,,2,0,2,0,0,11,11,48,,,,,,,,,,,,num_5,0.934388600056991,num_5,0.5,1.1,0.10000000000000007,0.55,3.82055,21.01303,return,6.621432299958542,,,,,,,,,,,,,,,,,920,21,male,up_down_width,2024-10-31_14h33.36.087,exp1,2023.1.0,60.13930668658588,
,,,,,,,,,,,,,,,,3,9.5,10,10.5,0,0,0.5,0.25,0.25,1.25,10,initial,36.05,342,361,379,0,0,9,9,9,0,0,,,,,,,2,0,2,0,0,12,12,32,,,,,,,,,,,,num_4,1.0325019001029432,num_4,0.5,0.7,0.15000000000000008,0.6,5.73083,22.9233,return,2.4615757998544723,,,,,,,,,,,,,,,,,920,21,male,up_down_width,2024-10-31_14h33.36.087,exp1,2023.1.0,60.13930668658588,
,,,,,,,,,,,,,,,,5,9,9.5,10,10.5,11,0.5,0.25,0.25,2.25,10,initial,36.05,324,342,361,379,397,9,9,9,9,9,,,,,,,2,0,2,0,0,13,13,50,,,,,,,,,,,,num_5,0.9052707999944687,num_5,0.35,0.9,0.15000000000000002,0.5,5.73083,19.10275,return,3.104227199917659,,,,,,,,,,,,,,,,,920,21,male,up_down_width,2024-10-31_14h33.36.087,exp1,2023.1.0,60.13930668658588,
,,,,,,,,,,,,,,,,5,9,9.5,10,10.5,11,0.5,0.25,0.25,2.25,10,initial,36.05,324,342,361,379,397,9,9,9,9,9,,,,,,,2,0,2,0,0,14,14,19,,,,,,,,,,,,num_5,1.0289500998333097,num_5,0.4,1.2,0.20000000000000007,0.55,7.6411,21.01303,return,4.163968599867076,,,,,,,,,,,,,,,,,920,21,male,up_down_width,2024-10-31_14h33.36.087,exp1,2023.1.0,60.13930668658588,
,,,,,,,,,,,,,,,,3,9.5,10,10.5,0,0,0.5,0.25,0.25,1.25,10,initial,36.05,342,361,379,0,0,9,9,9,0,0,,,,,,,2,0,2,0,0,15,15,30,,,,,,,,,,,,num_3,0.773136799922213,num_3,0.35,1.2,0.25,0.65,9.55138,24.83358,return,3.855736800003797,,,,,,,,,,,,,,,,,920,21,male,up_down_width,2024-10-31_14h33.36.087,exp1,2023.1.0,60.13930668658588,
,,,,,,,,,,,,,,,,4,9.25,9.75,10.25,10.75,0,0.5,0.25,0.25,1.75,10,initial,36.05,333,351,370,388,0,9,9,9,9,0,,,,,,,2,0,2,0,0,16,16,43,,,,,,,,,,,,num_4,0.8496683998964727,num_4,0.25,1.0,0.2,0.5,7.6411,19.10275,return,2.4946515997871757,,,,,,,,,,,,,,,,,920,21,male,up_down_width,2024-10-31_14h33.36.087,exp1,2023.1.0,60.13930668658588,
,,,,,,,,,,,,,,,,3,9.5,10,10.5,0,0,0.5,0.25,0.25,1.25,10,initial,36.05,342,361,379,0,0,9,9,9,0,0,,,,,,,2,0,2,0,0,17,17,4,,,,,,,,,,,,num_3,0.715627099853009,num_3,0.4,1.2,0.20000000000000007,0.65,7.6411,24.83358,return,4.6509602998849005,,,,,,,,,,,,,,,,,920,21,male,up_down_width,2024-10-31_14h33.36.087,exp1,2023.1.0,60.13930668658588,
,,,,,,,,,,,,,,,,3,9.5,10,10.5,0,0,0.5,0.25,0.25,1.25,10,initial,36.05,342,361,379,0,0,9,9,9,0,0,,,,,,,2,0,2,0,0,18,18,8,,,,,,,,,,,,num_3,0.747440799837932,num_3,0.3,1,0.2,0.65,7.6411,24.83358,return,2.941650499822572,,,,,,,,,,,,,,,,,920,21,male,up_down_width,2024-10-31_14h33.36.087,exp1,2023.1.0,60.13930668658588,
,,,,,,,,,,,,,,,,5,9,9.5,10,10.5,11,0.5,0.25,0.25,2.25,10,initial,36.05,324,342,361,379,397,9,9,9,9,9,,,,,,,2,0,2,0,0,19,19,18,,,,,,,,,,,,num_4,0.8648858999367803,num_4,0.55,0.6,0.15000000000000008,0.5,5.73083,19.10275,return,4.9827455000486225,,,,,,,,,,,,,,,,,920,21,male,up_down_width,2024-10-31_14h33.36.087,exp1,2023.1.0,60.13930668658588,
,,,,,,,,,,,,,,,,4,9.25,9.75,10.25,10.75,0,0.5,0.25,0.25,1.75,10,initial,36.05,333,351,370,388,0,9,9,9,9,0,,,,,,,2,0,2,0,0,20,20,9,,,,,,,,,,,,num_5,1.7359295999631286,num_5,0.45,1.1,0.15000000000000008,0.4,5.73083,15.2822,return,5.005287299863994,,,,,,,,,,,,,,,,,920,21,male,up_down_width,2024-10-31_14h33.36.087,exp1,2023.1.0,60.13930668658588,
,,,,,,,,,,,,,,,,4,9.25,9.75,10.25,10.75,0,0.5,0.25,0.25,1.75,10,initial,36.05,333,351,370,388,0,9,9,9,9,0,,,,,,,2,0,2,0,0,21,21,10,,,,,,,,,,,,num_4,1.762877999804914,num_4,0.35,0.7,0.2,0.6,7.6411,22.9233,return,2.408052999759093,,,,,,,,,,,,,,,,,920,21,male,up_down_width,2024-10-31_14h33.36.087,exp1,2023.1.0,60.13930668658588,
,,,,,,,,,,,,,,,,3,9.5,10,10.5,0,0,0.5,0.25,0.25,1.25,10,initial,36.05,342,361,379,0,0,9,9,9,0,0,,,,,,,2,0,2,0,0,22,22,34,,,,,,,,,,,,num_4,1.035531299887225,num_4,0.3,1.0,0.2,0.6,7.6411,22.9233,return,5.132984800031409,,,,,,,,,,,,,,,,,920,21,male,up_down_width,2024-10-31_14h33.36.087,exp1,2023.1.0,60.13930668658588,
,,,,,,,,,,,,,,,,3,9.5,10,10.5,0,0,0.5,0.25,0.25,1.25,10,initial,36.05,342,361,379,0,0,9,9,9,0,0,,,,,,,2,0,2,0,0,23,23,27,,,,,,,,,,,,num_3,0.8607160998508334,num_3,0.5,0.8,0.25000000000000006,0.65,9.55138,24.83358,return,3.8321773998904973,,,,,,,,,,,,,,,,,920,21,male,up_down_width,2024-10-31_14h33.36.087,exp1,2023.1.0,60.13930668658588,
,,,,,,,,,,,,,,,,5,9,9.5,10,10.5,11,0.5,0.25,0.25,2.25,10,initial,36.05,324,342,361,379,397,9,9,9,9,9,,,,,,,2,0,2,0,0,24,24,45,,,,,,,,,,,,num_5,0.9826583000831306,num_5,0.55,0.6,0.20000000000000007,0.5,7.6411,19.10275,return,7.5279264997225255,,,,,,,,,,,,,,,,,920,21,male,up_down_width,2024-10-31_14h33.36.087,exp1,2023.1.0,60.13930668658588,
,,,,,,,,,,,,,,,,5,9,9.5,10,10.5,11,0.5,0.25,0.25,2.25,10,initial,36.05,324,342,361,379,397,9,9,9,9,9,,,,,,,2,0,2,0,0,25,25,52,,,,,,,,,,,,num_5,1.1030630997847766,num_5,0.2,1.1,0.15000000000000002,0.5,5.73083,19.10275,return,6.145026099868119,,,,,,,,,,,,,,,,,920,21,male,up_down_width,2024-10-31_14h33.36.087,exp1,2023.1.0,60.13930668658588,
,,,,,,,,,,,,,,,,5,9,9.5,10,10.5,11,0.5,0.25,0.25,2.25,10,initial,36.05,324,342,361,379,397,9,9,9,9,9,,,,,,,2,0,2,0,0,26,26,46,,,,,,,,,,,,num_6,1.0389449999202043,num_6,0.5,0.8,0.25000000000000006,0.5,9.55138,19.10275,return,5.902413599891588,,,,,,,,,,,,,,,,,920,21,male,up_down_width,2024-10-31_14h33.36.087,exp1,2023.1.0,60.13930668658588,
,,,,,,,,,,,,,,,,5,9,9.5,10,10.5,11,0.5,0.25,0.25,2.25,10,initial,36.05,324,342,361,379,397,9,9,9,9,9,,,,,,,2,0,2,0,0,27,27,26,,,,,,,,,,,,num_6,1.135063299909234,num_6,0.5,0.7,0.20000000000000007,0.5,7.6411,19.10275,return,4.976680299732834,,,,,,,,,,,,,,,,,920,21,male,up_down_width,2024-10-31_14h33.36.087,exp1,2023.1.0,60.13930668658588,
,,,,,,,,,,,,,,,,3,9.5,10,10.5,0,0,0.5,0.25,0.25,1.25,10,initial,36.05,342,361,379,0,0,9,9,9,0,0,,,,,,,2,0,2,0,0,28,28,29,,,,,,,,,,,,num_3,1.9962421997915953,num_3,0.3,0.6,0.25,0.65,9.55138,24.83358,return,2.810698499903083,,,,,,,,,,,,,,,,,920,21,male,up_down_width,2024-10-31_14h33.36.087,exp1,2023.1.0,60.13930668658588,
,,,,,,,,,,,,,,,,4,9.25,9.75,10.25,10.75,0,0.5,0.25,0.25,1.75,10,initial,36.05,333,351,370,388,0,9,9,9,9,0,,,,,,,2,0,2,0,0,29,29,13,,,,,,,,,,,,num_4,0.9685168999712914,num_4,0.35,0.7,0.25,0.6,9.55138,22.9233,return,1.8533820998854935,,,,,,,,,,,,,,,,,920,21,male,up_down_width,2024-10-31_14h33.36.087,exp1,2023.1.0,60.13930668658588,
,,,,,,,,,,,,,,,,3,9.5,10,10.5,0,0,0.5,0.25,0.25,1.25,10,initial,36.05,342,361,379,0,0,9,9,9,0,0,,,,,,,2,0,2,0,0,30,30,7,,,,,,,,,,,,num_3,0.8615449997596443,num_3,0.55,0.6,0.15000000000000008,0.6,5.73083,22.9233,return,2.4211591999046504,,,,,,,,,,,,,,,,,920,21,male,up_down_width,2024-10-31_14h33.36.087,exp1,2023.1.0,60.13930668658588,
,,,,,,,,,,,,,,,,5,9,9.5,10,10.5,11,0.5,0.25,0.25,2.25,10,initial,36.05,324,342,361,379,397,9,9,9,9,9,,,,,,,2,0,2,0,0,31,31,53,,,,,,,,,,,,num_4,0.7936631999909878,num_4,0.45,0.8,0.20000000000000007,0.5,7.6411,19.10275,return,2.7254149997606874,,,,,,,,,,,,,,,,,920,21,male,up_down_width,2024-10-31_14h33.36.087,exp1,2023.1.0,60.13930668658588,
,,,,,,,,,,,,,,,,3,9.5,10,10.5,0,0,0.5,0.25,0.25,1.25,10,initial,36.05,342,361,379,0,0,9,9,9,0,0,,,,,,,2,0,2,0,0,32,32,35,,,,,,,,,,,,num_3,0.8826803998090327,num_3,0.3,0.4,0.25,0.55,9.55138,21.01303,return,3.533625500043854,,,,,,,,,,,,,,,,,920,21,male,up_down_width,2024-10-31_14h33.36.087,exp1,2023.1.0,60.13930668658588,
,,,,,,,,,,,,,,,,4,9.25,9.75,10.25,10.75,0,0.5,0.25,0.25,1.75,10,initial,36.05,333,351,370,388,0,9,9,9,9,0,,,,,,,2,0,2,0,0,33,33,14,,,,,,,,,,,,num_4,1.608817699830979,num_4,0.2,0.7,0.25,0.6,9.55138,22.9233,return,2.5506646998692304,,,,,,,,,,,,,,,,,920,21,male,up_down_width,2024-10-31_14h33.36.087,exp1,2023.1.0,60.13930668658588,
,,,,,,,,,,,,,,,,4,9.25,9.75,10.25,10.75,0,0.5,0.25,0.25,1.75,10,initial,36.05,333,351,370,388,0,9,9,9,9,0,,,,,,,2,0,2,0,0,34,34,38,,,,,,,,,,,,num_4,0.8687326000072062,num_4,0.2,0.6,0.25,0.6,9.55138,22.9233,return,2.909535299986601,,,,,,,,,,,,,,,,,920,21,male,up_down_width,2024-10-31_14h33.36.087,exp1,2023.1.0,60.13930668658588,
,,,,,,,,,,,,,,,,3,9.5,10,10.5,0,0,0.5,0.25,0.25,1.25,10,initial,36.05,342,361,379,0,0,9,9,9,0,0,,,,,,,2,0,2,0,0,35,35,28,,,,,,,,,,,,num_3,1.8053192000370473,num_3,0.5,1,0.25000000000000006,0.7,9.55138,26.74385,return,4.228125099791214,,,,,,,,,,,,,,,,,920,21,male,up_down_width,2024-10-31_14h33.36.087,exp1,2023.1.0,60.13930668658588,
,,,,,,,,,,,,,,,,5,9,9.5,10,10.5,11,0.5,0.25,0.25,2.25,10,initial,36.05,324,342,361,379,397,9,9,9,9,9,,,,,,,2,0,2,0,0,36,36,22,,,,,,,,,,,,num_5,1.2094335998408496,num_5,0.2,0.3,0.25,0.55,9.55138,21.01303,return,2.737131499685347,,,,,,,,,,,,,,,,,920,21,male,up_down_width,2024-10-31_14h33.36.087,exp1,2023.1.0,60.13930668658588,
,,,,,,,,,,,,,,,,5,9,9.5,10,10.5,11,0.5,0.25,0.25,2.25,10,initial,36.05,324,342,361,379,397,9,9,9,9,9,,,,,,,2,0,2,0,0,37,37,20,,,,,,,,,,,,num_5,0.84977119974792,num_5,0.45,1.2,0.30000000000000004,0.7,11.46165,26.74385,return,5.849609399912879,,,,,,,,,,,,,,,,,920,21,male,up_down_width,2024-10-31_14h33.36.087,exp1,2023.1.0,60.13930668658588,
,,,,,,,,,,,,,,,,3,9.5,10,10.5,0,0,0.5,0.25,0.25,1.25,10,initial,36.05,342,361,379,0,0,9,9,9,0,0,,,,,,,2,0,2,0,0,38,38,3,,,,,,,,,,,,num_3,0.7426372999325395,num_3,0.55,0.6,0.25000000000000006,0.7,9.55138,26.74385,return,3.892047700006515,,,,,,,,,,,,,,,,,920,21,male,up_down_width,2024-10-31_14h33.36.087,exp1,2023.1.0,60.13930668658588,
,,,,,,,,,,,,,,,,4,9.25,9.75,10.25,10.75,0,0.5,0.25,0.25,1.75,10,initial,36.05,333,351,370,388,0,9,9,9,9,0,,,,,,,2,0,2,0,0,39,39,15,,,,,,,,,,,,num_4,0.9488368998281658,num_4,0.4,1.0,0.25000000000000006,0.6,9.55138,22.9233,return,3.622375799808651,,,,,,,,,,,,,,,,,920,21,male,up_down_width,2024-10-31_14h33.36.087,exp1,2023.1.0,60.13930668658588,
,,,,,,,,,,,,,,,,5,9,9.5,10,10.5,11,0.5,0.25,0.25,2.25,10,initial,36.05,324,342,361,379,397,9,9,9,9,9,,,,,,,2,0,2,0,0,40,40,21,,,,,,,,,,,,num_5,0.9269310997333378,num_5,0.35,0.9,0.25,0.6,9.55138,22.9233,return,3.28530739992857,,,,,,,,,,,,,,,,,920,21,male,up_down_width,2024-10-31_14h33.36.087,exp1,2023.1.0,60.13930668658588,
,,,,,,,,,,,,,,,,3,9.5,10,10.5,0,0,0.5,0.25,0.25,1.25,10,initial,36.05,342,361,379,0,0,9,9,9,0,0,,,,,,,2,0,2,0,0,41,41,2,,,,,,,,,,,,num_3,0.7493566998746246,num_3,0.25,0.4,0.3,0.55,11.46165,21.01303,return,2.4727415998931974,,,,,,,,,,,,,,,,,920,21,male,up_down_width,2024-10-31_14h33.36.087,exp1,2023.1.0,60.13930668658588,
,,,,,,,,,,,,,,,,4,9.25,9.75,10.25,10.75,0,0.5,0.25,0.25,1.75,10,initial,36.05,333,351,370,388,0,9,9,9,9,0,,,,,,,2,0,2,0,0,42,42,17,,,,,,,,,,,,num_4,0.9371001997496933,num_4,0.45,1.2,0.20000000000000007,0.5,7.6411,19.10275,return,2.9885223996825516,,,,,,,,,,,,,,,,,920,21,male,up_down_width,2024-10-31_14h33.36.087,exp1,2023.1.0,60.13930668658588,
,,,,,,,,,,,,,,,,5,9,9.5,10,10.5,11,0.5,0.25,0.25,2.25,10,initial,36.05,324,342,361,379,397,9,9,9,9,9,,,,,,,2,0,2,0,0,43,43,51,,,,,,,,,,,,num_5,0.9349796997848898,num_5,0.35,1.1,0.25,0.5,9.55138,19.10275,return,4.49734459980391,,,,,,,,,,,,,,,,,920,21,male,up_down_width,2024-10-31_14h33.36.087,exp1,2023.1.0,60.13930668658588,
,,,,,,,,,,,,,,,,4,9.25,9.75,10.25,10.75,0,0.5,0.25,0.25,1.75,10,initial,36.05,333,351,370,388,0,9,9,9,9,0,,,,,,,2,0,2,0,0,44,44,16,,,,,,,,,,,,num_4,0.9984204999636859,num_4,0.35,0.5,0.3,0.6,11.46165,22.9233,return,2.4584025000222027,,,,,,,,,,,,,,,,,920,21,male,up_down_width,2024-10-31_14h33.36.087,exp1,2023.1.0,60.13930668658588,
,,,,,,,,,,,,,,,,5,9,9.5,10,10.5,11,0.5,0.25,0.25,2.25,10,initial,36.05,324,342,361,379,397,9,9,9,9,9,,,,,,,2,0,2,0,0,45,45,23,,,,,,,,,,,,num_4,0.8922137999907136,num_4,0.55,0.9,0.35000000000000003,0.7,13.37193,26.74385,return,4.945438199909404,,,,,,,,,,,,,,,,,920,21,male,up_down_width,2024-10-31_14h33.36.087,exp1,2023.1.0,60.13930668658588,
,,,,,,,,,,,,,,,,4,9.25,9.75,10.25,10.75,0,0.5,0.25,0.25,1.75,10,initial,36.05,333,351,370,388,0,9,9,9,9,0,,,,,,,2,0,2,0,0,46,46,42,,,,,,,,,,,,num_5,2.507651299936697,num_5,0.3,0.6,0.15000000000000002,0.65,5.73083,24.83358,return,2.196953000035137,,,,,,,,,,,,,,,,,920,21,male,up_down_width,2024-10-31_14h33.36.087,exp1,2023.1.0,60.13930668658588,
,,,,,,,,,,,,,,,,5,9,9.5,10,10.5,11,0.5,0.25,0.25,2.25,10,initial,36.05,324,342,361,379,397,9,9,9,9,9,,,,,,,2,0,2,0,0,47,47,25,,,,,,,,,,,,num_5,0.8800581998657435,num_5,0.25,1.1,0.15000000000000002,0.7,5.73083,26.74385,return,3.848728799726814,,,,,,,,,,,,,,,,,920,21,male,up_down_width,2024-10-31_14h33.36.087,exp1,2023.1.0,60.13930668658588,
,,,,,,,,,,,,,,,,3,9.5,10,10.5,0,0,0.5,0.25,0.25,1.25,10,initial,36.05,342,361,379,0,0,9,9,9,0,0,,,,,,,2,0,2,0,0,48,48,1,,,,,,,,,,,,num_3,0.8448399000335485,num_3,0.55,0.7,0.15000000000000008,0.65,5.73083,24.83358,return,2.243413799908012,,,,,,,,,,,,,,,,,920,21,male,up_down_width,2024-10-31_14h33.36.087,exp1,2023.1.0,60.13930668658588,
,,,,,,,,,,,,,,,,3,9.5,10,10.5,0,0,0.5,0.25,0.25,1.25,10,initial,36.05,342,361,379,0,0,9,9,9,0,0,,,,,,,2,0,2,0,0,49,49,31,,,,,,,,,,,,num_3,1.161040199920535,num_3,0.55,0.7,0.15000000000000008,0.5,5.73083,19.10275,return,4.9372284999117255,,,,,,,,,,,,,,,,,920,21,male,up_down_width,2024-10-31_14h33.36.087,exp1,2023.1.0,60.13930668658588,
,,,,,,,,,,,,,,,,5,9,9.5,10,10.5,11,0.5,0.25,0.25,2.25,10,initial,36.05,324,342,361,379,397,9,9,9,9,9,,,,,,,2,0,2,0,0,50,50,49,,,,,,,,,,,,num_5,1.1270053000189364,num_5,0.35,0.6,0.2,0.5,7.6411,19.10275,return,2.691846099914983,,,,,,,,,,,,,,,,,920,21,male,up_down_width,2024-10-31_14h33.36.087,exp1,2023.1.0,60.13930668658588,
,,,,,,,,,,,,,,,,3,9.5,10,10.5,0,0,0.5,0.25,0.25,1.25,10,initial,36.05,342,361,379,0,0,9,9,9,0,0,,,,,,,2,0,2,0,0,51,51,6,,,,,,,,,,,,num_3,0.7728118000086397,num_3,0.45,1,0.25000000000000006,0.6,9.55138,22.9233,return,7.453645299887285,,,,,,,,,,,,,,,,,920,21,male,up_down_width,2024-10-31_14h33.36.087,exp1,2023.1.0,60.13930668658588,
,,,,,,,,,,,,,,,,4,9.25,9.75,10.25,10.75,0,0.5,0.25,0.25,1.75,10,initial,36.05,333,351,370,388,0,9,9,9,9,0,,,,,,,2,0,2,0,0,52,52,11,,,,,,,,,,,,num_4,1.079050299944356,num_4,0.5,1.2,0.30000000000000004,0.5,11.46165,19.10275,return,3.8827190997544676,,,,,,,,,,,,,,,,,920,21,male,up_down_width,2024-10-31_14h33.36.087,exp1,2023.1.0,60.13930668658588,
,,,,,,,,,,,,,,,,5,9,9.5,10,10.5,11,0.5,0.25,0.25,2.25,10,initial,36.05,324,342,361,379,397,9,9,9,9,9,,,,,,,2,0,2,0,0,53,53,24,,,,,,,,,,,,num_5,1.1757789999246597,num_5,0.5,0.8,0.25000000000000006,0.5,9.55138,19.10275,return,3.9367961997631937,,,,,,,,,,,,,,,,,920,21,male,up_down_width,2024-10-31_14h33.36.087,exp1,2023.1.0,60.13930668658588,
,,,,,,,,,,,,,,,,,,,,,,,,,,,,,,,,,,,,,,,,,,,,,2,0,2,0,,,,,,,,,,,,,,,,,,,,,,,,,,,,,1798.4863309999928,1798.4863309999928,1798.4863309999928,,,,,,,,,,,,920,21,male,up_down_width,2024-10-31_14h33.36.087,exp1,2023.1.0,60.13930668658588,
,,,,,,,,,,,,,,,,5,8.2,9.1,10,10.9,11.8,0.9,0.35,0.55,4.15,10,initial,36.05,296,328,361,393,425,9,9,9,9,9,,,,,,,3,0,3,0,0,0,0,50,,,,,,,,,,,,num_5,1.4461889998055995,num_5,0.35,1.2,0.6,1.0,22.9233,38.2055,return,3.64212269987911,,,,,,,,,,,,,,,,,920,21,male,up_down_width,2024-10-31_14h33.36.087,exp1,2023.1.0,60.13930668658588,
,,,,,,,,,,,,,,,,3,9.1,10,10.9,0,0,0.9,0.35,0.55,2.35,10,initial,36.05,328,361,393,0,0,9,9,9,0,0,,,,,,,3,0,3,0,0,1,1,1,,,,,,,,,,,,num_3,0.8658509000670165,num_3,0.2,0.8,0.49999999999999994,0.85,19.10275,32.47468,return,2.3616088998969644,,,,,,,,,,,,,,,,,920,21,male,up_down_width,2024-10-31_14h33.36.087,exp1,2023.1.0,60.13930668658588,
,,,,,,,,,,,,,,,,4,8.65,9.55,10.45,11.35,0,0.9,0.35,0.55,3.25,10,initial,36.05,312,344,377,409,0,9,9,9,9,0,,,,,,,3,0,3,0,0,2,2,43,,,,,,,,,,,,num_4,0.8779321999754757,num_4,0.35,1.1,0.5499999999999999,1.1,21.01303,42.02605,return,2.215254799928516,,,,,,,,,,,,,,,,,920,21,male,up_down_width,2024-10-31_14h33.36.087,exp1,2023.1.0,60.13930668658588,
,,,,,,,,,,,,,,,,4,8.65,9.55,10.45,11.35,0,0.9,0.35,0.55,3.25,10,initial,36.05,312,344,377,409,0,9,9,9,9,0,,,,,,,3,0,3,0,0,3,3,41,,,,,,,,,,,,num_4,0.9134887000545859,num_4,0.4,1.0,0.55,1.2,21.01303,45.8466,return,1.5099354998674244,,,,,,,,,,,,,,,,,920,21,male,up_down_width,2024-10-31_14h33.36.087,exp1,2023.1.0,60.13930668658588,
,,,,,,,,,,,,,,,,4,8.65,9.55,10.45,11.35,0,0.9,0.35,0.55,3.25,10,initial,36.05,312,344,377,409,0,9,9,9,9,0,,,,,,,3,0,3,0,0,4,4,36,,,,,,,,,,,,num_4,1.111662199953571,num_4,0.45,0.9,0.5,1.0,19.10275,38.2055,return,1.3031509998254478,,,,,,,,,,,,,,,,,920,21,male,up_down_width,2024-10-31_14h33.36.087,exp1,2023.1.0,60.13930668658588,
,,,,,,,,,,,,,,,,3,9.1,10,10.9,0,0,0.9,0.35,0.55,2.35,10,initial,36.05,328,361,393,0,0,9,9,9,0,0,,,,,,,3,0,3,0,0,5,5,3,,,,,,,,,,,,num_3,0.7454077999573201,num_3,0.35,0.5,0.49999999999999994,1.0,19.10275,38.2055,return,3.4973101997748017,,,,,,,,,,,,,,,,,920,21,male,up_down_width,2024-10-31_14h33.36.087,exp1,2023.1.0,60.13930668658588,
,,,,,,,,,,,,,,,,4,8.65,9.55,10.45,11.35,0,0.9,0.35,0.55,3.25,10,initial,36.05,312,344,377,409,0,9,9,9,9,0,,,,,,,3,0,3,0,0,6,6,9,,,,,,,,,,,,num_4,1.6533136998768896,num_4,0.3,1.0,0.49999999999999994,1.0,19.10275,38.2055,return,2.557716599898413,,,,,,,,,,,,,,,,,920,21,male,up_down_width,2024-10-31_14h33.36.087,exp1,2023.1.0,60.13930668658588,
,,,,,,,,,,,,,,,,3,9.1,10,10.9,0,0,0.9,0.35,0.55,2.35,10,initial,36.05,328,361,393,0,0,9,9,9,0,0,,,,,,,3,0,3,0,0,7,7,4,,,,,,,,,,,,num_3,0.7228071999270469,num_3,0.45,0.9,0.6000000000000001,1.0,22.9233,38.2055,return,2.1776103999000043,,,,,,,,,,,,,,,,,920,21,male,up_down_width,2024-10-31_14h33.36.087,exp1,2023.1.0,60.13930668658588,
,,,,,,,,,,,,,,,,4,8.65,9.55,10.45,11.35,0,0.9,0.35,0.55,3.25,10,initial,36.05,312,344,377,409,0,9,9,9,9,0,,,,,,,3,0,3,0,0,8,8,15,,,,,,,,,,,,num_3,0.7901407997123897,num_3,0.35,0.6,0.6,1.05,22.9233,40.11578,return,4.244716999819502,,,,,,,,,,,,,,,,,920,21,male,up_down_width,2024-10-31_14h33.36.087,exp1,2023.1.0,60.13930668658588,
,,,,,,,,,,,,,,,,4,8.65,9.55,10.45,11.35,0,0.9,0.35,0.55,3.25,10,initial,36.05,312,344,377,409,0,9,9,9,9,0,,,,,,,3,0,3,0,0,9,9,13,,,,,,,,,,,,num_4,0.8595113998744637,num_4,0.35,0.9,0.5499999999999999,1.1,21.01303,42.02605,return,2.248143799835816,,,,,,,,,,,,,,,,,920,21,male,up_down_width,2024-10-31_14h33.36.087,exp1,2023.1.0,60.13930668658588,
,,,,,,,,,,,,,,,,4,8.65,9.55,10.45,11.35,0,0.9,0.35,0.55,3.25,10,initial,36.05,312,344,377,409,0,9,9,9,9,0,,,,,,,3,0,3,0,0,10,10,42,,,,,,,,,,,,num_4,0.9340363999363035,num_4,0.2,0.9,0.5499999999999999,1.1,21.01303,42.02605,return,3.0550626998301595,,,,,,,,,,,,,,,,,920,21,male,up_down_width,2024-10-31_14h33.36.087,exp1,2023.1.0,60.13930668658588,
,,,,,,,,,,,,,,,,3,9.1,10,10.9,0,0,0.9,0.35,0.55,2.35,10,initial,36.05,328,361,393,0,0,9,9,9,0,0,,,,,,,3,0,3,0,0,11,11,35,,,,,,,,,,,,num_3,0.7366686000023037,num_3,0.4,0.5,0.55,0.95,21.01303,36.29523,return,3.5222893997561187,,,,,,,,,,,,,,,,,920,21,male,up_down_width,2024-10-31_14h33.36.087,exp1,2023.1.0,60.13930668658588,
,,,,,,,,,,,,,,,,5,8.2,9.1,10,10.9,11.8,0.9,0.35,0.55,4.15,10,initial,36.05,296,328,361,393,425,9,9,9,9,9,,,,,,,3,0,3,0,0,12,12,45,,,,,,,,,,,,num_5,1.015956899849698,num_5,0.55,1.1,0.6000000000000001,1.1,22.9233,42.02605,return,4.365564600098878,,,,,,,,,,,,,,,,,920,21,male,up_down_width,2024-10-31_14h33.36.087,exp1,2023.1.0,60.13930668658588,
,,,,,,,,,,,,,,,,4,8.65,9.55,10.45,11.35,0,0.9,0.35,0.55,3.25,10,initial,36.05,312,344,377,409,0,9,9,9,9,0,,,,,,,3,0,3,0,0,13,13,10,,,,,,,,,,,,num_4,0.8069316998589784,num_4,0.25,0.7,0.5499999999999999,1.1,21.01303,42.02605,return,5.0295847998932,,,,,,,,,,,,,,,,,920,21,male,up_down_width,2024-10-31_14h33.36.087,exp1,2023.1.0,60.13930668658588,
,,,,,,,,,,,,,,,,5,8.2,9.1,10,10.9,11.8,0.9,0.35,0.55,4.15,10,initial,36.05,296,328,361,393,425,9,9,9,9,9,,,,,,,3,0,3,0,0,14,14,22,,,,,,,,,,,,num_5,1.278189699864015,num_5,0.4,1.3,0.6500000000000001,1.3,24.83358,49.66716,return,3.1250277997460216,,,,,,,,,,,,,,,,,920,21,male,up_down_width,2024-10-31_14h33.36.087,exp1,2023.1.0,60.13930668658588,
,,,,,,,,,,,,,,,,4,8.65,9.55,10.45,11.35,0,0.9,0.35,0.55,3.25,10,initial,36.05,312,344,377,409,0,9,9,9,9,0,,,,,,,3,0,3,0,0,15,15,14,,,,,,,,,,,,num_4,0.8016249998472631,num_4,0.35,0.9,0.6,1.2,22.9233,45.8466,return,2.6974716999102384,,,,,,,,,,,,,,,,,920,21,male,up_down_width,2024-10-31_14h33.36.087,exp1,2023.1.0,60.13930668658588,
,,,,,,,,,,,,,,,,5,8.2,9.1,10,10.9,11.8,0.9,0.35,0.55,4.15,10,initial,36.05,296,328,361,393,425,9,9,9,9,9,,,,,,,3,0,3,0,0,16,16,24,,,,,,,,,,,,num_5,0.8485508998855948,num_5,0.3,0.4,0.5499999999999999,1.05,21.01303,40.11578,return,5.400262199807912,,,,,,,,,,,,,,,,,920,21,male,up_down_width,2024-10-31_14h33.36.087,exp1,2023.1.0,60.13930668658588,
,,,,,,,,,,,,,,,,5,8.2,9.1,10,10.9,11.8,0.9,0.35,0.55,4.15,10,initial,36.05,296,328,361,393,425,9,9,9,9,9,,,,,,,3,0,3,0,0,17,17,52,,,,,,,,,,,,num_5,0.7388547998853028,num_5,0.2,0.8,0.65,1.15,24.83358,43.93633,return,4.099139899946749,,,,,,,,,,,,,,,,,920,21,male,up_down_width,2024-10-31_14h33.36.087,exp1,2023.1.0,60.13930668658588,
,,,,,,,,,,,,,,,,5,8.2,9.1,10,10.9,11.8,0.9,0.35,0.55,4.15,10,initial,36.05,296,328,361,393,425,9,9,9,9,9,,,,,,,3,0,3,0,0,18,18,49,,,,,,,,,,,,num_5,0.7755408999510109,num_5,0.4,0.8,0.55,1.1,21.01303,42.02605,return,2.790708299726248,,,,,,,,,,,,,,,,,920,21,male,up_down_width,2024-10-31_14h33.36.087,exp1,2023.1.0,60.13930668658588,
,,,,,,,,,,,,,,,,4,8.65,9.55,10.45,11.35,0,0.9,0.35,0.55,3.25,10,initial,36.05,312,344,377,409,0,9,9,9,9,0,,,,,,,3,0,3,0,0,19,19,17,,,,,,,,,,,,num_4,0.8047753998544067,num_4,0.45,0.8,0.6500000000000001,1.2,24.83358,45.8466,return,3.699640399776399,,,,,,,,,,,,,,,,,920,21,male,up_down_width,2024-10-31_14h33.36.087,exp1,2023.1.0,60.13930668658588,
,,,,,,,,,,,,,,,,3,9.1,10,10.9,0,0,0.9,0.35,0.55,2.35,10,initial,36.05,328,361,393,0,0,9,9,9,0,0,,,,,,,3,0,3,0,0,20,20,7,,,,,,,,,,,,num_3,0.9352192999795079,num_3,0.3,0.7,0.5499999999999999,1.0,21.01303,38.2055,return,3.6110713998787105,,,,,,,,,,,,,,,,,920,21,male,up_down_width,2024-10-31_14h33.36.087,exp1,2023.1.0,60.13930668658588,
,,,,,,,,,,,,,,,,3,9.1,10,10.9,0,0,0.9,0.35,0.55,2.35,10,initial,36.05,328,361,393,0,0,9,9,9,0,0,,,,,,,3,0,3,0,0,21,21,32,,,,,,,,,,,,num_3,0.8493484000209719,num_3,0.25,1.3,0.5499999999999999,1.05,21.01303,40.11578,return,4.495996899902821,,,,,,,,,,,,,,,,,920,21,male,up_down_width,2024-10-31_14h33.36.087,exp1,2023.1.0,60.13930668658588,
,,,,,,,,,,,,,,,,3,9.1,10,10.9,0,0,0.9,0.35,0.55,2.35,10,initial,36.05,328,361,393,0,0,9,9,9,0,0,,,,,,,3,0,3,0,0,22,22,27,,,,,,,,,,,,num_3,0.7719955998472869,num_3,0.2,1.1,0.5499999999999999,1.0,21.01303,38.2055,return,4.04500039992854,,,,,,,,,,,,,,,,,920,21,male,up_down_width,2024-10-31_14h33.36.087,exp1,2023.1.0,60.13930668658588,
,,,,,,,,,,,,,,,,3,9.1,10,10.9,0,0,0.9,0.35,0.55,2.35,10,initial,36.05,328,361,393,0,0,9,9,9,0,0,,,,,,,3,0,3,0,0,23,23,33,,,,,,,,,,,,num_3,0.7967913998290896,num_3,0.3,0.5,0.65,0.9,24.83358,34.38495,return,5.3233582999091595,,,,,,,,,,,,,,,,,920,21,male,up_down_width,2024-10-31_14h33.36.087,exp1,2023.1.0,60.13930668658588,
,,,,,,,,,,,,,,,,3,9.1,10,10.9,0,0,0.9,0.35,0.55,2.35,10,initial,36.05,328,361,393,0,0,9,9,9,0,0,,,,,,,3,0,3,0,0,24,24,6,,,,,,,,,,,,num_3,0.8993681999854743,num_3,0.25,1,0.7000000000000001,1.1,26.74385,42.02605,return,5.4540580997709185,,,,,,,,,,,,,,,,,920,21,male,up_down_width,2024-10-31_14h33.36.087,exp1,2023.1.0,60.13930668658588,
,,,,,,,,,,,,,,,,4,8.65,9.55,10.45,11.35,0,0.9,0.35,0.55,3.25,10,initial,36.05,312,344,377,409,0,9,9,9,9,0,,,,,,,3,0,3,0,0,25,25,11,,,,,,,,,,,,num_4,0.9781311999540776,num_4,0.35,0.5,0.6,0.9,22.9233,34.38495,return,3.891164899803698,,,,,,,,,,,,,,,,,920,21,male,up_down_width,2024-10-31_14h33.36.087,exp1,2023.1.0,60.13930668658588,
,,,,,,,,,,,,,,,,5,8.2,9.1,10,10.9,11.8,0.9,0.35,0.55,4.15,10,initial,36.05,296,328,361,393,425,9,9,9,9,9,,,,,,,3,0,3,0,0,26,26,20,,,,,,,,,,,,num_5,1.0701548997312784,num_5,0.25,1.1,0.7000000000000001,1.05,26.74385,40.11578,return,5.59955279994756,,,,,,,,,,,,,,,,,920,21,male,up_down_width,2024-10-31_14h33.36.087,exp1,2023.1.0,60.13930668658588,
,,,,,,,,,,,,,,,,3,9.1,10,10.9,0,0,0.9,0.35,0.55,2.35,10,initial,36.05,328,361,393,0,0,9,9,9,0,0,,,,,,,3,0,3,0,0,27,27,29,,,,,,,,,,,,num_3,0.8041621998418123,num_3,0.4,0.5,0.6000000000000001,0.9,22.9233,34.38495,return,5.2317501998040825,,,,,,,,,,,,,,,,,920,21,male,up_down_width,2024-10-31_14h33.36.087,exp1,2023.1.0,60.13930668658588,
,,,,,,,,,,,,,,,,3,9.1,10,10.9,0,0,0.9,0.35,0.55,2.35,10,initial,36.05,328,361,393,0,0,9,9,9,0,0,,,,,,,3,0,3,0,0,28,28,2,,,,,,,,,,,,num_3,0.8371287998743355,num_3,0.55,1.1,0.6500000000000001,1.05,24.83358,40.11578,return,2.6264551000203937,,,,,,,,,,,,,,,,,920,21,male,up_down_width,2024-10-31_14h33.36.087,exp1,2023.1.0,60.13930668658588,
,,,,,,,,,,,,,,,,3,9.1,10,10.9,0,0,0.9,0.35,0.55,2.35,10,initial,36.05,328,361,393,0,0,9,9,9,0,0,,,,,,,3,0,3,0,0,29,29,31,,,,,,,,,,,,num_3,0.7745846000034362,num_3,0.55,1.1,0.5,0.85,19.10275,32.47468,return,3.057041099993512,,,,,,,,,,,,,,,,,920,21,male,up_down_width,2024-10-31_14h33.36.087,exp1,2023.1.0,60.13930668658588,
,,,,,,,,,,,,,,,,5,8.2,9.1,10,10.9,11.8,0.9,0.35,0.55,4.15,10,initial,36.05,296,328,361,393,425,9,9,9,9,9,,,,,,,3,0,3,0,0,30,30,48,,,,,,,,,,,,num_5,1.0130143999122083,num_5,0.55,1.1,0.5,0.95,19.10275,36.29523,return,3.880212699761614,,,,,,,,,,,,,,,,,920,21,male,up_down_width,2024-10-31_14h33.36.087,exp1,2023.1.0,60.13930668658588,
,,,,,,,,,,,,,,,,5,8.2,9.1,10,10.9,11.8,0.9,0.35,0.55,4.15,10,initial,36.05,296,328,361,393,425,9,9,9,9,9,,,,,,,3,0,3,0,0,31,31,23,,,,,,,,,,,,num_5,0.985284399939701,num_5,0.5,0.7,0.5,0.85,19.10275,32.47468,return,2.84954069997184,,,,,,,,,,,,,,,,,920,21,male,up_down_width,2024-10-31_14h33.36.087,exp1,2023.1.0,60.13930668658588,
,,,,,,,,,,,,,,,,5,8.2,9.1,10,10.9,11.8,0.9,0.35,0.55,4.15,10,initial,36.05,296,328,361,393,425,9,9,9,9,9,,,,,,,3,0,3,0,0,32,32,19,,,,,,,,,,,,num_6,1.2069027000106871,num_6,0.35,0.5,0.49999999999999994,0.9,19.10275,34.38495,return,3.6378198999445885,,,,,,,,,,,,,,,,,920,21,male,up_down_width,2024-10-31_14h33.36.087,exp1,2023.1.0,60.13930668658588,
,,,,,,,,,,,,,,,,5,8.2,9.1,10,10.9,11.8,0.9,0.35,0.55,4.15,10,initial,36.05,296,328,361,393,425,9,9,9,9,9,,,,,,,3,0,3,0,0,33,33,21,,,,,,,,,,,,num_5,0.8323244999628514,num_5,0.35,1.1,0.6,0.95,22.9233,36.29523,return,4.072683499893174,,,,,,,,,,,,,,,,,920,21,male,up_down_width,2024-10-31_14h33.36.087,exp1,2023.1.0,60.13930668658588,
,,,,,,,,,,,,,,,,4,8.65,9.55,10.45,11.35,0,0.9,0.35,0.55,3.25,10,initial,36.05,312,344,377,409,0,9,9,9,9,0,,,,,,,3,0,3,0,0,34,34,39,,,,,,,,,,,,num_4,1.4446355998516083,num_4,0.45,1.0,0.5,0.9,19.10275,34.38495,return,2.185162700014189,,,,,,,,,,,,,,,,,920,21,male,up_down_width,2024-10-31_14h33.36.087,exp1,2023.1.0,60.13930668658588,
,,,,,,,,,,,,,,,,3,9.1,10,10.9,0,0,0.9,0.35,0.55,2.35,10,initial,36.05,328,361,393,0,0,9,9,9,0,0,,,,,,,3,0,3,0,0,35,35,28,,,,,,,,,,,,num_3,0.8675126999150962,num_3,0.25,1.2,0.49999999999999994,0.9,19.10275,34.38495,return,5.436775999842212,,,,,,,,,,,,,,,,,920,21,male,up_down_width,2024-10-31_14h33.36.087,exp1,2023.1.0,60.13930668658588,
,,,,,,,,,,,,,,,,3,9.1,10,10.9,0,0,0.9,0.35,0.55,2.35,10,initial,36.05,328,361,393,0,0,9,9,9,0,0,,,,,,,3,0,3,0,0,36,36,34,,,,,,,,,,,,num_3,0.7133577996864915,num_3,0.25,1.2,0.5499999999999999,1.05,21.01303,40.11578,return,3.547902299789712,,,,,,,,,,,,,,,,,920,21,male,up_down_width,2024-10-31_14h33.36.087,exp1,2023.1.0,60.13930668658588,
,,,,,,,,,,,,,,,,5,8.2,9.1,10,10.9,11.8,0.9,0.35,0.55,4.15,10,initial,36.05,296,328,361,393,425,9,9,9,9,9,,,,,,,3,0,3,0,0,37,37,47,,,,,,,,,,,,num_5,0.9552276998292655,num_5,0.35,1.3,0.49999999999999994,0.9,19.10275,34.38495,return,3.5069732998963445,,,,,,,,,,,,,,,,,920,21,male,up_down_width,2024-10-31_14h33.36.087,exp1,2023.1.0,60.13930668658588,
,,,,,,,,,,,,,,,,4,8.65,9.55,10.45,11.35,0,0.9,0.35,0.55,3.25,10,initial,36.05,312,344,377,409,0,9,9,9,9,0,,,,,,,3,0,3,0,0,38,38,40,,,,,,,,,,,,num_4,0.8237490998581052,num_4,0.5,1.3,0.5,1.0,19.10275,38.2055,return,2.59744119993411,,,,,,,,,,,,,,,,,920,21,male,up_down_width,2024-10-31_14h33.36.087,exp1,2023.1.0,60.13930668658588,
,,,,,,,,,,,,,,,,5,8.2,9.1,10,10.9,11.8,0.9,0.35,0.55,4.15,10,initial,36.05,296,328,361,393,425,9,9,9,9,9,,,,,,,3,0,3,0,0,39,39,25,,,,,,,,,,,,num_5,0.8601138000376523,num_5,0.4,0.5,0.6000000000000001,1.0,22.9233,38.2055,return,5.384566599968821,,,,,,,,,,,,,,,,,920,21,male,up_down_width,2024-10-31_14h33.36.087,exp1,2023.1.0,60.13930668658588,
,,,,,,,,,,,,,,,,5,8.2,9.1,10,10.9,11.8,0.9,0.35,0.55,4.15,10,initial,36.05,296,328,361,393,425,9,9,9,9,9,,,,,,,3,0,3,0,0,40,40,51,,,,,,,,,,,,num_5,0.9358818000182509,num_5,0.2,0.7,0.5499999999999999,0.95,21.01303,36.29523,return,4.910957199987024,,,,,,,,,,,,,,,,,920,21,male,up_down_width,2024-10-31_14h33.36.087,exp1,2023.1.0,60.13930668658588,
,,,,,,,,,,,,,,,,5,8.2,9.1,10,10.9,11.8,0.9,0.35,0.55,4.15,10,initial,36.05,296,328,361,393,425,9,9,9,9,9,,,,,,,3,0,3,0,0,41,41,46,,,,,,,,,,,,num_5,0.9002044997178018,num_5,0.55,1.2,0.6000000000000001,0.95,22.9233,36.29523,return,2.8188150997739285,,,,,,,,,,,,,,,,,920,21,male,up_down_width,2024-10-31_14h33.36.087,exp1,2023.1.0,60.13930668658588,
,,,,,,,,,,,,,,,,4,8.65,9.55,10.45,11.35,0,0.9,0.35,0.55,3.25,10,initial,36.05,312,344,377,409,0,9,9,9,9,0,,,,,,,3,0,3,0,0,42,42,16,,,,,,,,,,,,num_4,1.047483499860391,num_4,0.4,1.1,0.5,0.8,19.10275,30.5644,return,3.7402980998158455,,,,,,,,,,,,,,,,,920,21,male,up_down_width,2024-10-31_14h33.36.087,exp1,2023.1.0,60.13930668658588,
,,,,,,,,,,,,,,,,4,8.65,9.55,10.45,11.35,0,0.9,0.35,0.55,3.25,10,initial,36.05,312,344,377,409,0,9,9,9,9,0,,,,,,,3,0,3,0,0,43,43,44,,,,,,,,,,,,num_4,0.8328046000096947,num_4,0.25,0.3,0.49999999999999994,0.7,19.10275,26.74385,return,3.580257299821824,,,,,,,,,,,,,,,,,920,21,male,up_down_width,2024-10-31_14h33.36.087,exp1,2023.1.0,60.13930668658588,
,,,,,,,,,,,,,,,,5,8.2,9.1,10,10.9,11.8,0.9,0.35,0.55,4.15,10,initial,36.05,296,328,361,393,425,9,9,9,9,9,,,,,,,3,0,3,0,0,44,44,26,,,,,,,,,,,,num_5,0.9992015999741852,num_5,0.45,1.2,0.55,0.85,21.01303,32.47468,return,3.165680999867618,,,,,,,,,,,,,,,,,920,21,male,up_down_width,2024-10-31_14h33.36.087,exp1,2023.1.0,60.13930668658588,
,,,,,,,,,,,,,,,,3,9.1,10,10.9,0,0,0.9,0.35,0.55,2.35,10,initial,36.05,328,361,393,0,0,9,9,9,0,0,,,,,,,3,0,3,0,0,45,45,0,,,,,,,,,,,,num_3,0.8247626000083983,num_3,0.5,1.2,0.55,0.85,21.01303,32.47468,return,3.9260565999429673,,,,,,,,,,,,,,,,,920,21,male,up_down_width,2024-10-31_14h33.36.087,exp1,2023.1.0,60.13930668658588,
,,,,,,,,,,,,,,,,5,8.2,9.1,10,10.9,11.8,0.9,0.35,0.55,4.15,10,initial,36.05,296,328,361,393,425,9,9,9,9,9,,,,,,,3,0,3,0,0,46,46,53,,,,,,,,,,,,num_5,1.1803943999111652,num_5,0.2,1.1,0.5499999999999999,0.85,21.01303,32.47468,return,3.4449905997607857,,,,,,,,,,,,,,,,,920,21,male,up_down_width,2024-10-31_14h33.36.087,exp1,2023.1.0,60.13930668658588,
,,,,,,,,,,,,,,,,5,8.2,9.1,10,10.9,11.8,0.9,0.35,0.55,4.15,10,initial,36.05,296,328,361,393,425,9,9,9,9,9,,,,,,,3,0,3,0,0,47,47,18,,,,,,,,,,,,num_5,1.0034632997121662,num_5,0.55,0.7,0.55,0.95,21.01303,36.29523,return,3.963634799933061,,,,,,,,,,,,,,,,,920,21,male,up_down_width,2024-10-31_14h33.36.087,exp1,2023.1.0,60.13930668658588,
,,,,,,,,,,,,,,,,4,8.65,9.55,10.45,11.35,0,0.9,0.35,0.55,3.25,10,initial,36.05,312,344,377,409,0,9,9,9,9,0,,,,,,,3,0,3,0,0,48,48,38,,,,,,,,,,,,num_3,1.329604699742049,num_3,0.5,1.2,0.55,0.95,21.01303,36.29523,return,3.594919899944216,,,,,,,,,,,,,,,,,920,21,male,up_down_width,2024-10-31_14h33.36.087,exp1,2023.1.0,60.13930668658588,
,,,,,,,,,,,,,,,,4,8.65,9.55,10.45,11.35,0,0.9,0.35,0.55,3.25,10,initial,36.05,312,344,377,409,0,9,9,9,9,0,,,,,,,3,0,3,0,0,49,49,37,,,,,,,,,,,,num_3,1.0811321998480707,num_3,0.35,0.8,0.6,0.85,22.9233,32.47468,return,3.628721999935806,,,,,,,,,,,,,,,,,920,21,male,up_down_width,2024-10-31_14h33.36.087,exp1,2023.1.0,60.13930668658588,
,,,,,,,,,,,,,,,,3,9.1,10,10.9,0,0,0.9,0.35,0.55,2.35,10,initial,36.05,328,361,393,0,0,9,9,9,0,0,,,,,,,3,0,3,0,0,50,50,30,,,,,,,,,,,,num_3,0.8658934000413865,num_3,0.35,0.9,0.6,0.95,22.9233,36.29523,return,2.8585138998460025,,,,,,,,,,,,,,,,,920,21,male,up_down_width,2024-10-31_14h33.36.087,exp1,2023.1.0,60.13930668658588,
,,,,,,,,,,,,,,,,3,9.1,10,10.9,0,0,0.9,0.35,0.55,2.35,10,initial,36.05,328,361,393,0,0,9,9,9,0,0,,,,,,,3,0,3,0,0,51,51,5,,,,,,,,,,,,num_3,1.0458283999469131,num_3,0.4,1.2,0.6500000000000001,1.05,24.83358,40.11578,return,5.476447699824348,,,,,,,,,,,,,,,,,920,21,male,up_down_width,2024-10-31_14h33.36.087,exp1,2023.1.0,60.13930668658588,
,,,,,,,,,,,,,,,,3,9.1,10,10.9,0,0,0.9,0.35,0.55,2.35,10,initial,36.05,328,361,393,0,0,9,9,9,0,0,,,,,,,3,0,3,0,0,52,52,8,,,,,,,,,,,,num_3,0.8176759998314083,num_3,0.3,1.1,0.5499999999999999,0.9,21.01303,34.38495,return,3.151914899935946,,,,,,,,,,,,,,,,,920,21,male,up_down_width,2024-10-31_14h33.36.087,exp1,2023.1.0,60.13930668658588,
,,,,,,,,,,,,,,,,4,8.65,9.55,10.45,11.35,0,0.9,0.35,0.55,3.25,10,initial,36.05,312,344,377,409,0,9,9,9,9,0,,,,,,,3,0,3,0,0,53,53,12,,,,,,,,,,,,num_4,0.8946463998872787,num_4,0.25,0.9,0.65,1.0,24.83358,38.2055,return,2.7243717000819743,,,,,,,,,,,,,,,,,920,21,male,up_down_width,2024-10-31_14h33.36.087,exp1,2023.1.0,60.13930668658588,
,,,,,,,,,,,,,,,,,,,,,,,,,,,,,,,,,,,,,,,,,,,,,3,0,3,0,,,,,,,,,,,,,,,,,,,,,,,,,,,,,2205.602160200011,2205.602160200011,2205.602160200011,,,,,,,,,,,,920,21,male,up_down_width,2024-10-31_14h33.36.087,exp1,2023.1.0,60.13930668658588,
,,,,,,,,,,,,,,,,3,9.5,10,10.5,0,0,0.5,0.1,0.4,1.4000000000000001,10,initial,36.05,342,361,379,0,0,9,9,9,0,0,,,,,,,4,0,4,0,0,0,0,5,,,,,,,,,,,,num_3,3.0689687998965383,num_3,0.3,1.2,0.3,0.4,11.46165,15.2822,return,5.017086999956518,,,,,,,,,,,,,,,,,920,21,male,up_down_width,2024-10-31_14h33.36.087,exp1,2023.1.0,60.13930668658588,
,,,,,,,,,,,,,,,,3,9.5,10,10.5,0,0,0.5,0.1,0.4,1.4000000000000001,10,initial,36.05,342,361,379,0,0,9,9,9,0,0,,,,,,,4,0,4,0,0,1,1,35,,,,,,,,,,,,num_3,0.8978234999813139,num_3,0.3,0.9,0.3,0.4,11.46165,15.2822,return,2.7155489998403937,,,,,,,,,,,,,,,,,920,21,male,up_down_width,2024-10-31_14h33.36.087,exp1,2023.1.0,60.13930668658588,
,,,,,,,,,,,,,,,,4,9.25,9.75,10.25,10.75,0,0.5,0.1,0.4,1.9000000000000001,10,initial,36.05,333,351,370,388,0,9,9,9,9,0,,,,,,,4,0,4,0,0,2,2,14,,,,,,,,,,,,num_3,0.9517945998813957,num_3,0.55,0.9,0.5,0.65,19.10275,24.83358,return,1.967740099877119,,,,,,,,,,,,,,,,,920,21,male,up_down_width,2024-10-31_14h33.36.087,exp1,2023.1.0,60.13930668658588,
,,,,,,,,,,,,,,,,3,9.5,10,10.5,0,0,0.5,0.1,0.4,1.4000000000000001,10,initial,36.05,342,361,379,0,0,9,9,9,0,0,,,,,,,4,0,4,0,0,3,3,28,,,,,,,,,,,,num_3,0.7829320998862386,num_3,0.45,0.5,0.4,0.55,15.2822,21.01303,return,1.513502299785614,,,,,,,,,,,,,,,,,920,21,male,up_down_width,2024-10-31_14h33.36.087,exp1,2023.1.0,60.13930668658588,
,,,,,,,,,,,,,,,,5,9,9.5,10,10.5,11,0.5,0.1,0.4,2.4,10,initial,36.05,324,342,361,379,397,9,9,9,9,9,,,,,,,4,0,4,0,0,4,4,26,,,,,,,,,,,,num_5,1.1153821998741478,num_5,0.35,0.6,0.35,0.45,13.37193,17.19248,return,2.024539299774915,,,,,,,,,,,,,,,,,920,21,male,up_down_width,2024-10-31_14h33.36.087,exp1,2023.1.0,60.13930668658588,
,,,,,,,,,,,,,,,,4,9.25,9.75,10.25,10.75,0,0.5,0.1,0.4,1.9000000000000001,10,initial,36.05,333,351,370,388,0,9,9,9,9,0,,,,,,,4,0,4,0,0,5,5,16,,,,,,,,,,,,num_4,1.3918099999427795,num_4,0.5,1.3,0.5,0.6,19.10275,22.9233,return,2.3360806999262422,,,,,,,,,,,,,,,,,920,21,male,up_down_width,2024-10-31_14h33.36.087,exp1,2023.1.0,60.13930668658588,
,,,,,,,,,,,,,,,,5,9,9.5,10,10.5,11,0.5,0.1,0.4,2.4,10,initial,36.05,324,342,361,379,397,9,9,9,9,9,,,,,,,4,0,4,0,0,6,6,53,,,,,,,,,,,,num_5,1.7286725000012666,num_5,0.4,1.1,0.4,0.5,15.2822,19.10275,return,3.9787288999650627,,,,,,,,,,,,,,,,,920,21,male,up_down_width,2024-10-31_14h33.36.087,exp1,2023.1.0,60.13930668658588,
,,,,,,,,,,,,,,,,5,9,9.5,10,10.5,11,0.5,0.1,0.4,2.4,10,initial,36.05,324,342,361,379,397,9,9,9,9,9,,,,,,,4,0,4,0,0,7,7,23,,,,,,,,,,,,num_4,0.9142113998532295,num_4,0.5,0.8,0.5,0.6,19.10275,22.9233,return,1.1052574999630451,,,,,,,,,,,,,,,,,920,21,male,up_down_width,2024-10-31_14h33.36.087,exp1,2023.1.0,60.13930668658588,
,,,,,,,,,,,,,,,,5,9,9.5,10,10.5,11,0.5,0.1,0.4,2.4,10,initial,36.05,324,342,361,379,397,9,9,9,9,9,,,,,,,4,0,4,0,0,8,8,48,,,,,,,,,,,,num_4,0.7983381999656558,num_4,0.2,0.3,0.44999999999999996,0.6,17.19248,22.9233,return,3.000089099863544,,,,,,,,,,,,,,,,,920,21,male,up_down_width,2024-10-31_14h33.36.087,exp1,2023.1.0,60.13930668658588,
,,,,,,,,,,,,,,,,3,9.5,10,10.5,0,0,0.5,0.1,0.4,1.4000000000000001,10,initial,36.05,342,361,379,0,0,9,9,9,0,0,,,,,,,4,0,4,0,0,9,9,33,,,,,,,,,,,,num_2,2.0017895998898894,num_2,0.25,0.4,0.44999999999999996,0.6,17.19248,22.9233,return,3.7760695999022573,,,,,,,,,,,,,,,,,920,21,male,up_down_width,2024-10-31_14h33.36.087,exp1,2023.1.0,60.13930668658588,
,,,,,,,,,,,,,,,,4,9.25,9.75,10.25,10.75,0,0.5,0.1,0.4,1.9000000000000001,10,initial,36.05,333,351,370,388,0,9,9,9,9,0,,,,,,,4,0,4,0,0,10,10,42,,,,,,,,,,,,num_3,1.1362624999601394,num_3,0.55,0.9,0.55,0.7,21.01303,26.74385,return,2.9125797997694463,,,,,,,,,,,,,,,,,920,21,male,up_down_width,2024-10-31_14h33.36.087,exp1,2023.1.0,60.13930668658588,
,,,,,,,,,,,,,,,,5,9,9.5,10,10.5,11,0.5,0.1,0.4,2.4,10,initial,36.05,324,342,361,379,397,9,9,9,9,9,,,,,,,4,0,4,0,0,11,11,22,,,,,,,,,,,,num_4,0.9988980998750776,num_4,0.3,1.3,0.49999999999999994,0.6,19.10275,22.9233,return,5.4848285999614745,,,,,,,,,,,,,,,,,920,21,male,up_down_width,2024-10-31_14h33.36.087,exp1,2023.1.0,60.13930668658588,
,,,,,,,,,,,,,,,,5,9,9.5,10,10.5,11,0.5,0.1,0.4,2.4,10,initial,36.05,324,342,361,379,397,9,9,9,9,9,,,,,,,4,0,4,0,0,12,12,18,,,,,,,,,,,,num_4,0.9321742998436093,num_4,0.5,1.1,0.45,0.6,17.19248,22.9233,return,2.4257352997083217,,,,,,,,,,,,,,,,,920,21,male,up_down_width,2024-10-31_14h33.36.087,exp1,2023.1.0,60.13930668658588,
,,,,,,,,,,,,,,,,4,9.25,9.75,10.25,10.75,0,0.5,0.1,0.4,1.9000000000000001,10,initial,36.05,333,351,370,388,0,9,9,9,9,0,,,,,,,4,0,4,0,0,13,13,13,,,,,,,,,,,,num_3,0.8865660997107625,num_3,0.45,1.3,0.5,0.65,19.10275,24.83358,return,7.43653029971756,,,,,,,,,,,,,,,,,920,21,male,up_down_width,2024-10-31_14h33.36.087,exp1,2023.1.0,60.13930668658588,
,,,,,,,,,,,,,,,,3,9.5,10,10.5,0,0,0.5,0.1,0.4,1.4000000000000001,10,initial,36.05,342,361,379,0,0,9,9,9,0,0,,,,,,,4,0,4,0,0,14,14,4,,,,,,,,,,,,num_2,1.3715123997535557,num_2,0.3,1.6,0.44999999999999996,0.6,17.19248,22.9233,return,5.1221179000567645,,,,,,,,,,,,,,,,,920,21,male,up_down_width,2024-10-31_14h33.36.087,exp1,2023.1.0,60.13930668658588,
,,,,,,,,,,,,,,,,5,9,9.5,10,10.5,11,0.5,0.1,0.4,2.4,10,initial,36.05,324,342,361,379,397,9,9,9,9,9,,,,,,,4,0,4,0,0,15,15,20,,,,,,,,,,,,num_4,1.244696500012651,num_4,0.5,1.1,0.45,0.6,17.19248,22.9233,return,3.027217699913308,,,,,,,,,,,,,,,,,920,21,male,up_down_width,2024-10-31_14h33.36.087,exp1,2023.1.0,60.13930668658588,
,,,,,,,,,,,,,,,,5,9,9.5,10,10.5,11,0.5,0.1,0.4,2.4,10,initial,36.05,324,342,361,379,397,9,9,9,9,9,,,,,,,4,0,4,0,0,16,16,49,,,,,,,,,,,,num_5,1.277868599863723,num_5,0.2,1.2,0.39999999999999997,0.5,15.2822,19.10275,return,6.419061299879104,,,,,,,,,,,,,,,,,920,21,male,up_down_width,2024-10-31_14h33.36.087,exp1,2023.1.0,60.13930668658588,
,,,,,,,,,,,,,,,,5,9,9.5,10,10.5,11,0.5,0.1,0.4,2.4,10,initial,36.05,324,342,361,379,397,9,9,9,9,9,,,,,,,4,0,4,0,0,17,17,25,,,,,,,,,,,,num_5,0.9769946997985244,num_5,0.45,0.6,0.45,0.6,17.19248,22.9233,return,3.9227827999275178,,,,,,,,,,,,,,,,,920,21,male,up_down_width,2024-10-31_14h33.36.087,exp1,2023.1.0,60.13930668658588,
,,,,,,,,,,,,,,,,5,9,9.5,10,10.5,11,0.5,0.1,0.4,2.4,10,initial,36.05,324,342,361,379,397,9,9,9,9,9,,,,,,,4,0,4,0,0,18,18,52,,,,,,,,,,,,num_5,4.670975599903613,num_5,0.3,0.4,0.44999999999999996,0.55,17.19248,21.01303,return,2.3492805000860244,,,,,,,,,,,,,,,,,920,21,male,up_down_width,2024-10-31_14h33.36.087,exp1,2023.1.0,60.13930668658588,
,,,,,,,,,,,,,,,,3,9.5,10,10.5,0,0,0.5,0.1,0.4,1.4000000000000001,10,initial,36.05,342,361,379,0,0,9,9,9,0,0,,,,,,,4,0,4,0,0,19,19,8,,,,,,,,,,,,num_3,1.5497886999510229,num_3,0.25,0.5,0.39999999999999997,0.5,15.2822,19.10275,return,2.2189666000194848,,,,,,,,,,,,,,,,,920,21,male,up_down_width,2024-10-31_14h33.36.087,exp1,2023.1.0,60.13930668658588,
,,,,,,,,,,,,,,,,5,9,9.5,10,10.5,11,0.5,0.1,0.4,2.4,10,initial,36.05,324,342,361,379,397,9,9,9,9,9,,,,,,,4,0,4,0,0,20,20,19,,,,,,,,,,,,num_4,0.9423595999833196,num_4,0.35,1.2,0.44999999999999996,0.6,17.19248,22.9233,return,3.4071526997722685,,,,,,,,,,,,,,,,,920,21,male,up_down_width,2024-10-31_14h33.36.087,exp1,2023.1.0,60.13930668658588,
,,,,,,,,,,,,,,,,3,9.5,10,10.5,0,0,0.5,0.1,0.4,1.4000000000000001,10,initial,36.05,342,361,379,0,0,9,9,9,0,0,,,,,,,4,0,4,0,0,21,21,29,,,,,,,,,,,,num_3,2.11450479994528,num_3,0.2,1.3,0.44999999999999996,0.55,17.19248,21.01303,return,5.8934065997600555,,,,,,,,,,,,,,,,,920,21,male,up_down_width,2024-10-31_14h33.36.087,exp1,2023.1.0,60.13930668658588,
,,,,,,,,,,,,,,,,3,9.5,10,10.5,0,0,0.5,0.1,0.4,1.4000000000000001,10,initial,36.05,342,361,379,0,0,9,9,9,0,0,,,,,,,4,0,4,0,0,22,22,2,,,,,,,,,,,,num_3,0.8142805998213589,num_3,0.5,1,0.45,0.55,17.19248,21.01303,return,8.294183699879795,,,,,,,,,,,,,,,,,920,21,male,up_down_width,2024-10-31_14h33.36.087,exp1,2023.1.0,60.13930668658588,
,,,,,,,,,,,,,,,,4,9.25,9.75,10.25,10.75,0,0.5,0.1,0.4,1.9000000000000001,10,initial,36.05,333,351,370,388,0,9,9,9,9,0,,,,,,,4,0,4,0,0,23,23,10,,,,,,,,,,,,num_4,1.5529568998608738,num_4,0.55,0.7,0.4,0.6,15.2822,22.9233,return,2.686729099834338,,,,,,,,,,,,,,,,,920,21,male,up_down_width,2024-10-31_14h33.36.087,exp1,2023.1.0,60.13930668658588,
,,,,,,,,,,,,,,,,3,9.5,10,10.5,0,0,0.5,0.1,0.4,1.4000000000000001,10,initial,36.05,342,361,379,0,0,9,9,9,0,0,,,,,,,4,0,4,0,0,24,24,6,,,,,,,,,,,,num_2,1.0397323998622596,num_2,0.2,1.6,0.35,0.5,13.37193,19.10275,return,3.889420999912545,,,,,,,,,,,,,,,,,920,21,male,up_down_width,2024-10-31_14h33.36.087,exp1,2023.1.0,60.13930668658588,
,,,,,,,,,,,,,,,,4,9.25,9.75,10.25,10.75,0,0.5,0.1,0.4,1.9000000000000001,10,initial,36.05,333,351,370,388,0,9,9,9,9,0,,,,,,,4,0,4,0,0,25,25,43,,,,,,,,,,,,num_3,0.7790378998033702,num_3,0.55,1.2,0.5,0.7,19.10275,26.74385,return,4.1504046998452395,,,,,,,,,,,,,,,,,920,21,male,up_down_width,2024-10-31_14h33.36.087,exp1,2023.1.0,60.13930668658588,
,,,,,,,,,,,,,,,,5,9,9.5,10,10.5,11,0.5,0.1,0.4,2.4,10,initial,36.05,324,342,361,379,397,9,9,9,9,9,,,,,,,4,0,4,0,0,26,26,46,,,,,,,,,,,,num_4,0.90972870006226,num_4,0.4,0.6,0.45,0.6,17.19248,22.9233,return,3.032503199763596,,,,,,,,,,,,,,,,,920,21,male,up_down_width,2024-10-31_14h33.36.087,exp1,2023.1.0,60.13930668658588,
,,,,,,,,,,,,,,,,4,9.25,9.75,10.25,10.75,0,0.5,0.1,0.4,1.9000000000000001,10,initial,36.05,333,351,370,388,0,9,9,9,9,0,,,,,,,4,0,4,0,0,27,27,11,,,,,,,,,,,,num_3,0.7482228998560458,num_3,0.2,1.2,0.44999999999999996,0.6,17.19248,22.9233,return,10.409974300069734,,,,,,,,,,,,,,,,,920,21,male,up_down_width,2024-10-31_14h33.36.087,exp1,2023.1.0,60.13930668658588,
,,,,,,,,,,,,,,,,4,9.25,9.75,10.25,10.75,0,0.5,0.1,0.4,1.9000000000000001,10,initial,36.05,333,351,370,388,0,9,9,9,9,0,,,,,,,4,0,4,0,0,28,28,39,,,,,,,,,,,,num_4,1.210356299765408,num_4,0.35,0.4,0.39999999999999997,0.5,15.2822,19.10275,return,2.104842599714175,,,,,,,,,,,,,,,,,920,21,male,up_down_width,2024-10-31_14h33.36.087,exp1,2023.1.0,60.13930668658588,
,,,,,,,,,,,,,,,,4,9.25,9.75,10.25,10.75,0,0.5,0.1,0.4,1.9000000000000001,10,initial,36.05,333,351,370,388,0,9,9,9,9,0,,,,,,,4,0,4,0,0,29,29,40,,,,,,,,,,,,num_4,1.387071999721229,num_4,0.35,0.5,0.39999999999999997,0.5,15.2822,19.10275,return,2.057089699897915,,,,,,,,,,,,,,,,,920,21,male,up_down_width,2024-10-31_14h33.36.087,exp1,2023.1.0,60.13930668658588,
,,,,,,,,,,,,,,,,3,9.5,10,10.5,0,0,0.5,0.1,0.4,1.4000000000000001,10,initial,36.05,342,361,379,0,0,9,9,9,0,0,,,,,,,4,0,4,0,0,30,30,27,,,,,,,,,,,,num_3,1.2184867998585105,num_3,0.3,1,0.39999999999999997,0.5,15.2822,19.10275,return,4.3152691998984665,,,,,,,,,,,,,,,,,920,21,male,up_down_width,2024-10-31_14h33.36.087,exp1,2023.1.0,60.13930668658588,
,,,,,,,,,,,,,,,,4,9.25,9.75,10.25,10.75,0,0.5,0.1,0.4,1.9000000000000001,10,initial,36.05,333,351,370,388,0,9,9,9,9,0,,,,,,,4,0,4,0,0,31,31,15,,,,,,,,,,,,num_3,1.026001499965787,num_3,0.2,1.2,0.44999999999999996,0.55,17.19248,21.01303,return,4.563251199899241,,,,,,,,,,,,,,,,,920,21,male,up_down_width,2024-10-31_14h33.36.087,exp1,2023.1.0,60.13930668658588,
,,,,,,,,,,,,,,,,5,9,9.5,10,10.5,11,0.5,0.1,0.4,2.4,10,initial,36.05,324,342,361,379,397,9,9,9,9,9,,,,,,,4,0,4,0,0,32,32,51,,,,,,,,,,,,num_5,1.364193799905479,num_5,0.55,0.7,0.5,0.65,19.10275,24.83358,return,2.0283661000430584,,,,,,,,,,,,,,,,,920,21,male,up_down_width,2024-10-31_14h33.36.087,exp1,2023.1.0,60.13930668658588,
,,,,,,,,,,,,,,,,5,9,9.5,10,10.5,11,0.5,0.1,0.4,2.4,10,initial,36.05,324,342,361,379,397,9,9,9,9,9,,,,,,,4,0,4,0,0,33,33,21,,,,,,,,,,,,num_5,2.051249999785796,num_5,0.25,1.1,0.39999999999999997,0.5,15.2822,19.10275,return,5.833715599961579,,,,,,,,,,,,,,,,,920,21,male,up_down_width,2024-10-31_14h33.36.087,exp1,2023.1.0,60.13930668658588,
,,,,,,,,,,,,,,,,3,9.5,10,10.5,0,0,0.5,0.1,0.4,1.4000000000000001,10,initial,36.05,342,361,379,0,0,9,9,9,0,0,,,,,,,4,0,4,0,0,34,34,31,,,,,,,,,,,,num_3,0.8629455997142941,num_3,0.55,0.6,0.45,0.55,17.19248,21.01303,return,6.391376699786633,,,,,,,,,,,,,,,,,920,21,male,up_down_width,2024-10-31_14h33.36.087,exp1,2023.1.0,60.13930668658588,
,,,,,,,,,,,,,,,,4,9.25,9.75,10.25,10.75,0,0.5,0.1,0.4,1.9000000000000001,10,initial,36.05,333,351,370,388,0,9,9,9,9,0,,,,,,,4,0,4,0,0,35,35,36,,,,,,,,,,,,num_4,1.381471799686551,num_4,0.3,0.8,0.39999999999999997,0.5,15.2822,19.10275,return,3.2192820999771357,,,,,,,,,,,,,,,,,920,21,male,up_down_width,2024-10-31_14h33.36.087,exp1,2023.1.0,60.13930668658588,
,,,,,,,,,,,,,,,,3,9.5,10,10.5,0,0,0.5,0.1,0.4,1.4000000000000001,10,initial,36.05,342,361,379,0,0,9,9,9,0,0,,,,,,,4,0,4,0,0,36,36,0,,,,,,,,,,,,num_3,0.9052539998665452,num_3,0.45,0.8,0.45,0.55,17.19248,21.01303,return,1.6944484999403358,,,,,,,,,,,,,,,,,920,21,male,up_down_width,2024-10-31_14h33.36.087,exp1,2023.1.0,60.13930668658588,
,,,,,,,,,,,,,,,,3,9.5,10,10.5,0,0,0.5,0.1,0.4,1.4000000000000001,10,initial,36.05,342,361,379,0,0,9,9,9,0,0,,,,,,,4,0,4,0,0,37,37,30,,,,,,,,,,,,num_3,0.7651796001009643,num_3,0.35,0.7,0.39999999999999997,0.5,15.2822,19.10275,return,2.1209503998979926,,,,,,,,,,,,,,,,,920,21,male,up_down_width,2024-10-31_14h33.36.087,exp1,2023.1.0,60.13930668658588,
,,,,,,,,,,,,,,,,4,9.25,9.75,10.25,10.75,0,0.5,0.1,0.4,1.9000000000000001,10,initial,36.05,333,351,370,388,0,9,9,9,9,0,,,,,,,4,0,4,0,0,38,38,38,,,,,,,,,,,,num_4,0.9296385999768972,num_4,0.45,0.9,0.45,0.6,17.19248,22.9233,return,1.6269875997677445,,,,,,,,,,,,,,,,,920,21,male,up_down_width,2024-10-31_14h33.36.087,exp1,2023.1.0,60.13930668658588,
,,,,,,,,,,,,,,,,5,9,9.5,10,10.5,11,0.5,0.1,0.4,2.4,10,initial,36.05,324,342,361,379,397,9,9,9,9,9,,,,,,,4,0,4,0,0,39,39,47,,,,,,,,,,,,num_5,0.9069209999870509,num_5,0.4,0.9,0.4,0.5,15.2822,19.10275,return,2.4338854998350143,,,,,,,,,,,,,,,,,920,21,male,up_down_width,2024-10-31_14h33.36.087,exp1,2023.1.0,60.13930668658588,
,,,,,,,,,,,,,,,,4,9.25,9.75,10.25,10.75,0,0.5,0.1,0.4,1.9000000000000001,10,initial,36.05,333,351,370,388,0,9,9,9,9,0,,,,,,,4,0,4,0,0,40,40,9,,,,,,,,,,,,num_4,0.9515705998055637,num_4,0.5,0.7,0.45,0.6,17.19248,22.9233,return,6.460455199936405,,,,,,,,,,,,,,,,,920,21,male,up_down_width,2024-10-31_14h33.36.087,exp1,2023.1.0,60.13930668658588,
,,,,,,,,,,,,,,,,3,9.5,10,10.5,0,0,0.5,0.1,0.4,1.4000000000000001,10,initial,36.05,342,361,379,0,0,9,9,9,0,0,,,,,,,4,0,4,0,0,41,41,7,,,,,,,,,,,,num_3,0.8210660999175161,num_3,0.55,1,0.45,0.6,17.19248,22.9233,return,9.08831899985671,,,,,,,,,,,,,,,,,920,21,male,up_down_width,2024-10-31_14h33.36.087,exp1,2023.1.0,60.13930668658588,
,,,,,,,,,,,,,,,,4,9.25,9.75,10.25,10.75,0,0.5,0.1,0.4,1.9000000000000001,10,initial,36.05,333,351,370,388,0,9,9,9,9,0,,,,,,,4,0,4,0,0,42,42,17,,,,,,,,,,,,num_4,0.9592447998002172,num_4,0.3,0.7,0.39999999999999997,0.5,15.2822,19.10275,return,4.4503223998472095,,,,,,,,,,,,,,,,,920,21,male,up_down_width,2024-10-31_14h33.36.087,exp1,2023.1.0,60.13930668658588,
,,,,,,,,,,,,,,,,3,9.5,10,10.5,0,0,0.5,0.1,0.4,1.4000000000000001,10,initial,36.05,342,361,379,0,0,9,9,9,0,0,,,,,,,4,0,4,0,0,43,43,3,,,,,,,,,,,,num_3,1.2529749998357147,num_3,0.5,1.2,0.45,0.6,17.19248,22.9233,return,6.51450420008041,,,,,,,,,,,,,,,,,920,21,male,up_down_width,2024-10-31_14h33.36.087,exp1,2023.1.0,60.13930668658588,
,,,,,,,,,,,,,,,,5,9,9.5,10,10.5,11,0.5,0.1,0.4,2.4,10,initial,36.05,324,342,361,379,397,9,9,9,9,9,,,,,,,4,0,4,0,0,44,44,24,,,,,,,,,,,,num_5,1.8122331998310983,num_5,0.55,1.3,0.5,0.6,19.10275,22.9233,return,3.932058399775997,,,,,,,,,,,,,,,,,920,21,male,up_down_width,2024-10-31_14h33.36.087,exp1,2023.1.0,60.13930668658588,
,,,,,,,,,,,,,,,,5,9,9.5,10,10.5,11,0.5,0.1,0.4,2.4,10,initial,36.05,324,342,361,379,397,9,9,9,9,9,,,,,,,4,0,4,0,0,45,45,45,,,,,,,,,,,,num_5,0.8957298998720944,num_5,0.45,0.6,0.45,0.6,17.19248,22.9233,return,1.1111243998166174,,,,,,,,,,,,,,,,,920,21,male,up_down_width,2024-10-31_14h33.36.087,exp1,2023.1.0,60.13930668658588,
,,,,,,,,,,,,,,,,3,9.5,10,10.5,0,0,0.5,0.1,0.4,1.4000000000000001,10,initial,36.05,342,361,379,0,0,9,9,9,0,0,,,,,,,4,0,4,0,0,46,46,32,,,,,,,,,,,,num_3,0.7350792996585369,num_3,0.25,1.3,0.44999999999999996,0.6,17.19248,22.9233,return,3.7886689000297338,,,,,,,,,,,,,,,,,920,21,male,up_down_width,2024-10-31_14h33.36.087,exp1,2023.1.0,60.13930668658588,
,,,,,,,,,,,,,,,,4,9.25,9.75,10.25,10.75,0,0.5,0.1,0.4,1.9000000000000001,10,initial,36.05,333,351,370,388,0,9,9,9,9,0,,,,,,,4,0,4,0,0,47,47,44,,,,,,,,,,,,num_4,0.870002499781549,num_4,0.4,0.5,0.45,0.6,17.19248,22.9233,return,2.1782948998734355,,,,,,,,,,,,,,,,,920,21,male,up_down_width,2024-10-31_14h33.36.087,exp1,2023.1.0,60.13930668658588,
,,,,,,,,,,,,,,,,3,9.5,10,10.5,0,0,0.5,0.1,0.4,1.4000000000000001,10,initial,36.05,342,361,379,0,0,9,9,9,0,0,,,,,,,4,0,4,0,0,48,48,34,,,,,,,,,,,,num_3,0.7020913998130709,num_3,0.3,1.2,0.44999999999999996,0.6,17.19248,22.9233,return,3.6449597000610083,,,,,,,,,,,,,,,,,920,21,male,up_down_width,2024-10-31_14h33.36.087,exp1,2023.1.0,60.13930668658588,
,,,,,,,,,,,,,,,,4,9.25,9.75,10.25,10.75,0,0.5,0.1,0.4,1.9000000000000001,10,initial,36.05,333,351,370,388,0,9,9,9,9,0,,,,,,,4,0,4,0,0,49,49,12,,,,,,,,,,,,num_4,1.20213139988482,num_4,0.25,0.8,0.39999999999999997,0.5,15.2822,19.10275,return,3.628540499834344,,,,,,,,,,,,,,,,,920,21,male,up_down_width,2024-10-31_14h33.36.087,exp1,2023.1.0,60.13930668658588,
,,,,,,,,,,,,,,,,3,9.5,10,10.5,0,0,0.5,0.1,0.4,1.4000000000000001,10,initial,36.05,342,361,379,0,0,9,9,9,0,0,,,,,,,4,0,4,0,0,50,50,1,,,,,,,,,,,,num_3,0.8493129999842495,num_3,0.3,0.4,0.44999999999999996,0.55,17.19248,21.01303,return,4.6657953998073936,,,,,,,,,,,,,,,,,920,21,male,up_down_width,2024-10-31_14h33.36.087,exp1,2023.1.0,60.13930668658588,
,,,,,,,,,,,,,,,,4,9.25,9.75,10.25,10.75,0,0.5,0.1,0.4,1.9000000000000001,10,initial,36.05,333,351,370,388,0,9,9,9,9,0,,,,,,,4,0,4,0,0,51,51,37,,,,,,,,,,,,num_4,2.299156100023538,num_4,0.55,0.7,0.45,0.6,17.19248,22.9233,return,4.077690299833193,,,,,,,,,,,,,,,,,920,21,male,up_down_width,2024-10-31_14h33.36.087,exp1,2023.1.0,60.13930668658588,
,,,,,,,,,,,,,,,,5,9,9.5,10,10.5,11,0.5,0.1,0.4,2.4,10,initial,36.05,324,342,361,379,397,9,9,9,9,9,,,,,,,4,0,4,0,0,52,52,50,,,,,,,,,,,,num_5,0.881883499911055,num_5,0.45,1.3,0.5,0.6,19.10275,22.9233,return,5.416454799938947,,,,,,,,,,,,,,,,,920,21,male,up_down_width,2024-10-31_14h33.36.087,exp1,2023.1.0,60.13930668658588,
,,,,,,,,,,,,,,,,4,9.25,9.75,10.25,10.75,0,0.5,0.1,0.4,1.9000000000000001,10,initial,36.05,333,351,370,388,0,9,9,9,9,0,,,,,,,4,0,4,0,0,53,53,41,,,,,,,,,,,,num_4,0.9586038000416011,num_4,0.55,1.1,0.45,0.6,17.19248,22.9233,return,2.435085999779403,,,,,,,,,,,,,,,,,920,21,male,up_down_width,2024-10-31_14h33.36.087,exp1,2023.1.0,60.13930668658588,
,,,,,,,,,,,,,,,,,,,,,,,,,,,,,,,,,,,,,,,,,,,,,4,0,4,0,,,,,,,,,,,,,,,,,,,,,,,,,,,,,2680.2011992998887,2680.2011992998887,2680.2011992998887,,,,,,,,,,,,920,21,male,up_down_width,2024-10-31_14h33.36.087,exp1,2023.1.0,60.13930668658588,
,,,,,,,,,,,,,,,,4,9.25,9.75,10.25,10.75,0,0.5,0.25,0.25,1.75,10,initial,36.05,333,351,370,388,0,9,9,9,9,0,,,,,,,5,0,5,0,0,0,0,9,,,,,,,,,,,,num_3,1.2017418998293579,num_3,0.2,0.4,0.2,0.6,7.6411,22.9233,return,2.3962935998570174,,,,,,,,,,,,,,,,,920,21,male,up_down_width,2024-10-31_14h33.36.087,exp1,2023.1.0,60.13930668658588,
,,,,,,,,,,,,,,,,5,9,9.5,10,10.5,11,0.5,0.25,0.25,2.25,10,initial,36.05,324,342,361,379,397,9,9,9,9,9,,,,,,,5,0,5,0,0,1,1,26,,,,,,,,,,,,num_4,0.9360680000390857,num_4,0.55,0.7,0.25000000000000006,0.7,9.55138,26.74385,return,2.242483399808407,,,,,,,,,,,,,,,,,920,21,male,up_down_width,2024-10-31_14h33.36.087,exp1,2023.1.0,60.13930668658588,
,,,,,,,,,,,,,,,,4,9.25,9.75,10.25,10.75,0,0.5,0.25,0.25,1.75,10,initial,36.05,333,351,370,388,0,9,9,9,9,0,,,,,,,5,0,5,0,0,2,2,40,,,,,,,,,,,,num_4,1.499438599916175,num_4,0.35,0.6,0.25,0.7,9.55138,26.74385,return,2.072957799769938,,,,,,,,,,,,,,,,,920,21,male,up_down_width,2024-10-31_14h33.36.087,exp1,2023.1.0,60.13930668658588,
,,,,,,,,,,,,,,,,4,9.25,9.75,10.25,10.75,0,0.5,0.25,0.25,1.75,10,initial,36.05,333,351,370,388,0,9,9,9,9,0,,,,,,,5,0,5,0,0,3,3,13,,,,,,,,,,,,num_4,0.8950010999105871,num_4,0.25,0.4,0.2,0.7,7.6411,26.74385,return,1.7667539999820292,,,,,,,,,,,,,,,,,920,21,male,up_down_width,2024-10-31_14h33.36.087,exp1,2023.1.0,60.13930668658588,
,,,,,,,,,,,,,,,,5,9,9.5,10,10.5,11,0.5,0.25,0.25,2.25,10,initial,36.05,324,342,361,379,397,9,9,9,9,9,,,,,,,5,0,5,0,0,4,4,53,,,,,,,,,,,,num_5,0.7491836999543011,num_5,0.25,1.3,0.25,0.8,9.55138,30.5644,return,3.6681649000383914,,,,,,,,,,,,,,,,,920,21,male,up_down_width,2024-10-31_14h33.36.087,exp1,2023.1.0,60.13930668658588,
,,,,,,,,,,,,,,,,5,9,9.5,10,10.5,11,0.5,0.25,0.25,2.25,10,initial,36.05,324,342,361,379,397,9,9,9,9,9,,,,,,,5,0,5,0,0,5,5,46,,,,,,,,,,,,num_5,0.8716647997498512,num_5,0.35,0.5,0.3,0.75,11.46165,28.65413,return,3.053012300049886,,,,,,,,,,,,,,,,,920,21,male,up_down_width,2024-10-31_14h33.36.087,exp1,2023.1.0,60.13930668658588,
,,,,,,,,,,,,,,,,3,9.5,10,10.5,0,0,0.5,0.25,0.25,1.25,10,initial,36.05,342,361,379,0,0,9,9,9,0,0,,,,,,,5,0,5,0,0,6,6,1,,,,,,,,,,,,num_3,1.2864978997968137,num_3,0.35,0.9,0.25,0.95,9.55138,36.29523,return,2.0760737997479737,,,,,,,,,,,,,,,,,920,21,male,up_down_width,2024-10-31_14h33.36.087,exp1,2023.1.0,60.13930668658588,
,,,,,,,,,,,,,,,,5,9,9.5,10,10.5,11,0.5,0.25,0.25,2.25,10,initial,36.05,324,342,361,379,397,9,9,9,9,9,,,,,,,5,0,5,0,0,7,7,24,,,,,,,,,,,,num_5,1.0078885001130402,num_5,0.45,0.9,0.25000000000000006,0.55,9.55138,21.01303,return,3.26687980000861,,,,,,,,,,,,,,,,,920,21,male,up_down_width,2024-10-31_14h33.36.087,exp1,2023.1.0,60.13930668658588,
,,,,,,,,,,,,,,,,4,9.25,9.75,10.25,10.75,0,0.5,0.25,0.25,1.75,10,initial,36.05,333,351,370,388,0,9,9,9,9,0,,,,,,,5,0,5,0,0,8,8,44,,,,,,,,,,,,num_4,0.9772083999123424,num_4,0.4,0.7,0.25000000000000006,0.7,9.55138,26.74385,return,1.8334470998961478,,,,,,,,,,,,,,,,,920,21,male,up_down_width,2024-10-31_14h33.36.087,exp1,2023.1.0,60.13930668658588,
,,,,,,,,,,,,,,,,4,9.25,9.75,10.25,10.75,0,0.5,0.25,0.25,1.75,10,initial,36.05,333,351,370,388,0,9,9,9,9,0,,,,,,,5,0,5,0,0,9,9,43,,,,,,,,,,,,num_4,1.1914936997927725,num_4,0.35,1.3,0.25,0.7,9.55138,26.74385,return,2.08360269991681,,,,,,,,,,,,,,,,,920,21,male,up_down_width,2024-10-31_14h33.36.087,exp1,2023.1.0,60.13930668658588,
,,,,,,,,,,,,,,,,5,9,9.5,10,10.5,11,0.5,0.25,0.25,2.25,10,initial,36.05,324,342,361,379,397,9,9,9,9,9,,,,,,,5,0,5,0,0,10,10,18,,,,,,,,,,,,num_4,0.7996626999229193,num_4,0.25,1.0,0.2,0.8,7.6411,30.5644,return,2.602637199917808,,,,,,,,,,,,,,,,,920,21,male,up_down_width,2024-10-31_14h33.36.087,exp1,2023.1.0,60.13930668658588,
,,,,,,,,,,,,,,,,5,9,9.5,10,10.5,11,0.5,0.25,0.25,2.25,10,initial,36.05,324,342,361,379,397,9,9,9,9,9,,,,,,,5,0,5,0,0,11,11,52,,,,,,,,,,,,num_5,0.9206791999749839,num_5,0.3,1.2,0.15000000000000002,0.65,5.73083,24.83358,return,5.197506099939346,,,,,,,,,,,,,,,,,920,21,male,up_down_width,2024-10-31_14h33.36.087,exp1,2023.1.0,60.13930668658588,
,,,,,,,,,,,,,,,,5,9,9.5,10,10.5,11,0.5,0.25,0.25,2.25,10,initial,36.05,324,342,361,379,397,9,9,9,9,9,,,,,,,5,0,5,0,0,12,12,23,,,,,,,,,,,,num_5,0.838666999945417,num_5,0.4,0.9,0.20000000000000007,0.75,7.6411,28.65413,return,4.067805300001055,,,,,,,,,,,,,,,,,920,21,male,up_down_width,2024-10-31_14h33.36.087,exp1,2023.1.0,60.13930668658588,
