amount_p,posx1_p,posx2_p,posx3_p,posx4_p,posx5_p,center_to_center_p,edge_to_edge_p,w_p,stim_length_p,eccentricity_p,line1_p,line2_p,line3_p,line4_p,line5_p,amount,posx1,posx2,posx3,posx4,posx5,center_to_center,edge_to_edge,w,stim_length,eccentricity,trial_type,deg_to_pix_index,posx1_in_pix,posx2_in_pix,posx3_in_pix,posx4_in_pix,posx5_in_pix,line1,line2,line3,line4,line5,posx,setsize_cobdi,trials.thisRepN,trials.thisTrialN,trials.thisN,trials.thisIndex,blocks.thisRepN,blocks.thisTrialN,blocks.thisN,blocks.thisIndex,loop.thisRepN,loop.thisTrialN,loop.thisN,loop.thisIndex,first.thisRepN,first.thisTrialN,first.thisN,first.thisIndex,second.thisRepN,second.thisTrialN,second.thisN,second.thisIndex,key_resp_3.started,key_resp_3.keys,key_resp_3.rt,key_resp.keys,key_resp.rt,response,starting_width_deg,starting_space_deg,response_width_degree,response_spacing_degree,response_width_pixel,response_spacing_pixel,next_5.keys,next_5.rt,key_resp_4.keys,key_resp_4.rt,text_3.started,text_4.started,key_resp_2.started,text_2.started,key_resp_2.keys,key_resp_2.rt,adjusting.started,next.keys,next.rt,text_control2.started,key_resp.started,key_resp.corr,text_bye.started,text_bye.stopped,participant,age,gender,resp_group,date,expName,psychopyVersion,frameRate,
,,,,,,,,,,,,,,,,,,,,,,,,,,,,,,,,,,,,,,,,,,,,,,,,,,,,,,,,,,,,,45.559421699959785,c,250.51110180001706,,,,,,,,,,,,,,,,,,,,,,,,,,,,721,20,female,up_down_width,2024-11-01_14h39.01.979,exp1,2023.1.0,59.824677787542825,
4,9.25,9.75,10.25,10.75,0,0.5,0.25,0.25,1.75,10,9,9,9,9,0,,,,,,,,,,,,,,,,,,,,,,,,,,0,0,0,1,,,,,,,,,,,,,,,,,,,,num_4,11.81300020008348,num_4,0.45,1.0,0.25000000000000006,0.8,9.55138,30.5644,return,22.166801699902862,,,,,,,,,,,,,,,,,721,20,female,up_down_width,2024-11-01_14h39.01.979,exp1,2023.1.0,59.824677787542825,
3,9.5,10,10.5,0,0,0.5,0.25,0.25,1.25,10,9,9,9,0,0,,,,,,,,,,,,,,,,,,,,,,,,,,0,1,1,0,,,,,,,,,,,,,,,,,,,,num_3,3.7424373999238014,num_3,0.2,1.3,0.3,0.9,11.46165,34.38495,return,28.69025790016167,,,,,,,,,,,,,,,,,721,20,female,up_down_width,2024-11-01_14h39.01.979,exp1,2023.1.0,59.824677787542825,
3,9.1,10,10.9,0,0,0.9,0.35,0.55,2.35,10,9,9,9,0,0,,,,,,,,,,,,,,,,,,,,,,,,,,0,2,2,3,,,,,,,,,,,,,,,,,,,,num_3,3.256380699807778,num_3,0.4,0.9,0.45,0.95,17.19248,36.29523,return,5.199903800152242,,,,,,,,,,,,,,,,,721,20,female,up_down_width,2024-11-01_14h39.01.979,exp1,2023.1.0,59.824677787542825,
5,9,9.5,10,10.5,11,0.5,0.1,0.4,2.4,10,9,9,9,9,9,,,,,,,,,,,,,,,,,,,,,,,,,,0,3,3,5,,,,,,,,,,,,,,,,,,,,num_5,1.8319063000380993,num_5,0.45,1.1,0.45,1.05,17.19248,40.11578,return,9.89911670004949,,,,,,,,,,,,,,,,,721,20,female,up_down_width,2024-11-01_14h39.01.979,exp1,2023.1.0,59.824677787542825,
5,8.2,9.1,10,10.9,11.8,0.9,0.35,0.55,4.15,10,9,9,9,9,9,,,,,,,,,,,,,,,,,,,,,,,,,,0,4,4,2,,,,,,,,,,,,,,,,,,,,num_6,1.9183402999769896,num_6,0.25,1.2,0.49999999999999994,1.0,19.10275,38.2055,return,6.9603387999814,,,,,,,,,,,,,,,,,721,20,female,up_down_width,2024-11-01_14h39.01.979,exp1,2023.1.0,59.824677787542825,
4,9.25,9.75,10.25,10.75,0,0.5,0.1,0.4,1.9000000000000001,10,9,9,9,9,0,,,,,,,,,,,,,,,,,,,,,,,,,,0,5,5,4,,,,,,,,,,,,,,,,,,,,num_4,1.7352911999914795,num_4,0.5,1.2,0.55,1.0,21.01303,38.2055,return,8.82634499995038,,,,,,,,,,,,,,,,,721,20,female,up_down_width,2024-11-01_14h39.01.979,exp1,2023.1.0,59.824677787542825,
,,,,,,,,,,,,,,,,,,,,,,,,,,,,,,,,,,,,,,,,,,,,,,,,,,,,,,,,,,,,,,,,,,,,,,,,,,,c,122.94222579989582,,,,,,,,,,,,,,,721,20,female,up_down_width,2024-11-01_14h39.01.979,exp1,2023.1.0,59.824677787542825,
,,,,,,,,,,,,,,,,3,9.5,10,10.5,0,0,0.5,0.1,0.4,1.4000000000000001,10,initial,36.05,342,361,379,0,0,9,9,9,0,0,,,,,,,0,0,0,0,0,0,0,7,,,,,,,,,,,,num_3,2.7330023001413792,num_3,0.25,1.2,0.25,0.75,9.55138,28.65413,return,3.2081280001439154,,,,,,,,,,,,,,,,,721,20,female,up_down_width,2024-11-01_14h39.01.979,exp1,2023.1.0,59.824677787542825,
,,,,,,,,,,,,,,,,4,9.25,9.75,10.25,10.75,0,0.5,0.1,0.4,1.9000000000000001,10,initial,36.05,333,351,370,388,0,9,9,9,9,0,,,,,,,0,0,0,0,0,1,1,36,,,,,,,,,,,,num_3,2.7532031000591815,num_3,0.55,1.3,0.7500000000000002,1.15,28.65413,43.93633,return,3.8832402999978513,,,,,,,,,,,,,,,,,721,20,female,up_down_width,2024-11-01_14h39.01.979,exp1,2023.1.0,59.824677787542825,
,,,,,,,,,,,,,,,,5,9,9.5,10,10.5,11,0.5,0.1,0.4,2.4,10,initial,36.05,324,342,361,379,397,9,9,9,9,9,,,,,,,0,0,0,0,0,2,2,50,,,,,,,,,,,,num_4,1.6937158000655472,num_4,0.5,0.8,0.6500000000000001,1.1,24.83358,42.02605,return,9.382357399910688,,,,,,,,,,,,,,,,,721,20,female,up_down_width,2024-11-01_14h39.01.979,exp1,2023.1.0,59.824677787542825,
,,,,,,,,,,,,,,,,3,9.5,10,10.5,0,0,0.5,0.1,0.4,1.4000000000000001,10,initial,36.05,342,361,379,0,0,9,9,9,0,0,,,,,,,0,0,0,0,0,3,3,6,,,,,,,,,,,,num_3,1.099451499991119,num_3,0.45,0.8,0.35000000000000003,0.75,13.37193,28.65413,return,4.312913799891248,,,,,,,,,,,,,,,,,721,20,female,up_down_width,2024-11-01_14h39.01.979,exp1,2023.1.0,59.824677787542825,
,,,,,,,,,,,,,,,,4,9.25,9.75,10.25,10.75,0,0.5,0.1,0.4,1.9000000000000001,10,initial,36.05,333,351,370,388,0,9,9,9,9,0,,,,,,,0,0,0,0,0,4,4,44,,,,,,,,,,,,num_4,1.9312595999799669,num_4,0.4,0.7,0.4,0.6,15.2822,22.9233,return,3.2118716998957098,,,,,,,,,,,,,,,,,721,20,female,up_down_width,2024-11-01_14h39.01.979,exp1,2023.1.0,59.824677787542825,
,,,,,,,,,,,,,,,,4,9.25,9.75,10.25,10.75,0,0.5,0.1,0.4,1.9000000000000001,10,initial,36.05,333,351,370,388,0,9,9,9,9,0,,,,,,,0,0,0,0,0,5,5,14,,,,,,,,,,,,num_5,1.932466700207442,num_5,0.25,1.3,0.3,0.6,11.46165,22.9233,return,5.134391600033268,,,,,,,,,,,,,,,,,721,20,female,up_down_width,2024-11-01_14h39.01.979,exp1,2023.1.0,59.824677787542825,
,,,,,,,,,,,,,,,,3,9.5,10,10.5,0,0,0.5,0.1,0.4,1.4000000000000001,10,initial,36.05,342,361,379,0,0,9,9,9,0,0,,,,,,,0,0,0,0,0,6,6,27,,,,,,,,,,,,num_3,1.6730858001392335,num_3,0.3,1.3,0.39999999999999997,0.75,15.2822,28.65413,return,3.956541300052777,,,,,,,,,,,,,,,,,721,20,female,up_down_width,2024-11-01_14h39.01.979,exp1,2023.1.0,59.824677787542825,
,,,,,,,,,,,,,,,,5,9,9.5,10,10.5,11,0.5,0.1,0.4,2.4,10,initial,36.05,324,342,361,379,397,9,9,9,9,9,,,,,,,0,0,0,0,0,7,7,20,,,,,,,,,,,,num_5,2.1569560000207275,num_5,0.2,0.5,0.39999999999999997,0.6,15.2822,22.9233,return,5.058385800104588,,,,,,,,,,,,,,,,,721,20,female,up_down_width,2024-11-01_14h39.01.979,exp1,2023.1.0,59.824677787542825,
,,,,,,,,,,,,,,,,3,9.5,10,10.5,0,0,0.5,0.1,0.4,1.4000000000000001,10,initial,36.05,342,361,379,0,0,9,9,9,0,0,,,,,,,0,0,0,0,0,8,8,32,,,,,,,,,,,,num_3,1.4560211999341846,num_3,0.3,0.6,0.39999999999999997,0.65,15.2822,24.83358,return,3.182770000072196,,,,,,,,,,,,,,,,,721,20,female,up_down_width,2024-11-01_14h39.01.979,exp1,2023.1.0,59.824677787542825,
,,,,,,,,,,,,,,,,3,9.5,10,10.5,0,0,0.5,0.1,0.4,1.4000000000000001,10,initial,36.05,342,361,379,0,0,9,9,9,0,0,,,,,,,0,0,0,0,0,9,9,30,,,,,,,,,,,,num_3,1.2181386000011116,num_3,0.4,0.9,0.4,0.7,15.2822,26.74385,return,3.7709793001413345,,,,,,,,,,,,,,,,,721,20,female,up_down_width,2024-11-01_14h39.01.979,exp1,2023.1.0,59.824677787542825,
,,,,,,,,,,,,,,,,4,9.25,9.75,10.25,10.75,0,0.5,0.1,0.4,1.9000000000000001,10,initial,36.05,333,351,370,388,0,9,9,9,9,0,,,,,,,0,0,0,0,0,10,10,13,,,,,,,,,,,,num_4,1.7551875000353903,num_4,0.2,0.4,0.39999999999999997,0.6,15.2822,22.9233,return,4.67196479998529,,,,,,,,,,,,,,,,,721,20,female,up_down_width,2024-11-01_14h39.01.979,exp1,2023.1.0,59.824677787542825,
,,,,,,,,,,,,,,,,5,9,9.5,10,10.5,11,0.5,0.1,0.4,2.4,10,initial,36.05,324,342,361,379,397,9,9,9,9,9,,,,,,,0,0,0,0,0,11,11,49,,,,,,,,,,,,num_6,1.4260948000010103,num_6,0.45,0.9,0.45,0.7,17.19248,26.74385,return,7.719198900042102,,,,,,,,,,,,,,,,,721,20,female,up_down_width,2024-11-01_14h39.01.979,exp1,2023.1.0,59.824677787542825,
,,,,,,,,,,,,,,,,5,9,9.5,10,10.5,11,0.5,0.1,0.4,2.4,10,initial,36.05,324,342,361,379,397,9,9,9,9,9,,,,,,,0,0,0,0,0,12,12,23,,,,,,,,,,,,num_6,1.6807330001611263,num_6,0.2,0.7,0.35,0.6,13.37193,22.9233,return,4.394443199969828,,,,,,,,,,,,,,,,,721,20,female,up_down_width,2024-11-01_14h39.01.979,exp1,2023.1.0,59.824677787542825,
,,,,,,,,,,,,,,,,5,9,9.5,10,10.5,11,0.5,0.1,0.4,2.4,10,initial,36.05,324,342,361,379,397,9,9,9,9,9,,,,,,,0,0,0,0,0,13,13,18,,,,,,,,,,,,num_4,1.235900199972093,num_4,0.35,1.1,0.49999999999999994,0.8,19.10275,30.5644,return,5.6821594999637455,,,,,,,,,,,,,,,,,721,20,female,up_down_width,2024-11-01_14h39.01.979,exp1,2023.1.0,59.824677787542825,
,,,,,,,,,,,,,,,,5,9,9.5,10,10.5,11,0.5,0.1,0.4,2.4,10,initial,36.05,324,342,361,379,397,9,9,9,9,9,,,,,,,0,0,0,0,0,14,14,26,,,,,,,,,,,,num_6,3.9212476001121104,num_6,0.4,1.1,0.4,0.6,15.2822,22.9233,return,2.9518548999913037,,,,,,,,,,,,,,,,,721,20,female,up_down_width,2024-11-01_14h39.01.979,exp1,2023.1.0,59.824677787542825,
,,,,,,,,,,,,,,,,5,9,9.5,10,10.5,11,0.5,0.1,0.4,2.4,10,initial,36.05,324,342,361,379,397,9,9,9,9,9,,,,,,,0,0,0,0,0,15,15,21,,,,,,,,,,,,num_5,1.8621779999230057,num_5,0.2,0.4,0.3,0.55,11.46165,21.01303,return,4.806309399893507,,,,,,,,,,,,,,,,,721,20,female,up_down_width,2024-11-01_14h39.01.979,exp1,2023.1.0,59.824677787542825,
,,,,,,,,,,,,,,,,4,9.25,9.75,10.25,10.75,0,0.5,0.1,0.4,1.9000000000000001,10,initial,36.05,333,351,370,388,0,9,9,9,9,0,,,,,,,0,0,0,0,0,16,16,16,,,,,,,,,,,,num_5,1.5398993999697268,num_5,0.45,0.9,0.4,0.7,15.2822,26.74385,return,5.8924420000985265,,,,,,,,,,,,,,,,,721,20,female,up_down_width,2024-11-01_14h39.01.979,exp1,2023.1.0,59.824677787542825,
,,,,,,,,,,,,,,,,5,9,9.5,10,10.5,11,0.5,0.1,0.4,2.4,10,initial,36.05,324,342,361,379,397,9,9,9,9,9,,,,,,,0,0,0,0,0,17,17,19,,,,,,,,,,,,num_5,1.456308800028637,num_5,0.25,0.3,0.35,0.55,13.37193,21.01303,return,5.108058900106698,,,,,,,,,,,,,,,,,721,20,female,up_down_width,2024-11-01_14h39.01.979,exp1,2023.1.0,59.824677787542825,
,,,,,,,,,,,,,,,,5,9,9.5,10,10.5,11,0.5,0.1,0.4,2.4,10,initial,36.05,324,342,361,379,397,9,9,9,9,9,,,,,,,0,0,0,0,0,18,18,47,,,,,,,,,,,,num_5,1.3643900000024587,num_5,0.35,0.5,0.35,0.5,13.37193,19.10275,return,5.463103800080717,,,,,,,,,,,,,,,,,721,20,female,up_down_width,2024-11-01_14h39.01.979,exp1,2023.1.0,59.824677787542825,
,,,,,,,,,,,,,,,,4,9.25,9.75,10.25,10.75,0,0.5,0.1,0.4,1.9000000000000001,10,initial,36.05,333,351,370,388,0,9,9,9,9,0,,,,,,,0,0,0,0,0,19,19,40,,,,,,,,,,,,num_4,1.4557205000892282,num_4,0.45,0.5,0.35000000000000003,0.5,13.37193,19.10275,return,4.205236000008881,,,,,,,,,,,,,,,,,721,20,female,up_down_width,2024-11-01_14h39.01.979,exp1,2023.1.0,59.824677787542825,
,,,,,,,,,,,,,,,,5,9,9.5,10,10.5,11,0.5,0.1,0.4,2.4,10,initial,36.05,324,342,361,379,397,9,9,9,9,9,,,,,,,0,0,0,0,0,20,20,51,,,,,,,,,,,,num_6,1.882549999980256,num_6,0.2,0.5,0.3,0.5,11.46165,19.10275,return,5.637537999777123,,,,,,,,,,,,,,,,,721,20,female,up_down_width,2024-11-01_14h39.01.979,exp1,2023.1.0,59.824677787542825,
,,,,,,,,,,,,,,,,4,9.25,9.75,10.25,10.75,0,0.5,0.1,0.4,1.9000000000000001,10,initial,36.05,333,351,370,388,0,9,9,9,9,0,,,,,,,0,0,0,0,0,21,21,39,,,,,,,,,,,,num_4,1.6138989999890327,num_4,0.4,0.7,0.30000000000000004,0.6,11.46165,22.9233,return,4.247919599991292,,,,,,,,,,,,,,,,,721,20,female,up_down_width,2024-11-01_14h39.01.979,exp1,2023.1.0,59.824677787542825,
,,,,,,,,,,,,,,,,3,9.5,10,10.5,0,0,0.5,0.1,0.4,1.4000000000000001,10,initial,36.05,342,361,379,0,0,9,9,9,0,0,,,,,,,0,0,0,0,0,22,22,1,,,,,,,,,,,,num_3,1.5717140000779182,num_3,0.2,0.9,0.3,0.6,11.46165,22.9233,return,3.3105501998215914,,,,,,,,,,,,,,,,,721,20,female,up_down_width,2024-11-01_14h39.01.979,exp1,2023.1.0,59.824677787542825,
,,,,,,,,,,,,,,,,5,9,9.5,10,10.5,11,0.5,0.1,0.4,2.4,10,initial,36.05,324,342,361,379,397,9,9,9,9,9,,,,,,,0,0,0,0,0,23,23,46,,,,,,,,,,,,num_5,1.0518427998758852,num_5,0.5,1.3,0.35000000000000003,0.7,13.37193,26.74385,return,7.61113249999471,,,,,,,,,,,,,,,,,721,20,female,up_down_width,2024-11-01_14h39.01.979,exp1,2023.1.0,59.824677787542825,
,,,,,,,,,,,,,,,,3,9.5,10,10.5,0,0,0.5,0.1,0.4,1.4000000000000001,10,initial,36.05,342,361,379,0,0,9,9,9,0,0,,,,,,,0,0,0,0,0,24,24,31,,,,,,,,,,,,num_3,1.352279799990356,num_3,0.35,0.8,0.3,0.55,11.46165,21.01303,return,4.224993499927223,,,,,,,,,,,,,,,,,721,20,female,up_down_width,2024-11-01_14h39.01.979,exp1,2023.1.0,59.824677787542825,
,,,,,,,,,,,,,,,,4,9.25,9.75,10.25,10.75,0,0.5,0.1,0.4,1.9000000000000001,10,initial,36.05,333,351,370,388,0,9,9,9,9,0,,,,,,,0,0,0,0,0,25,25,43,,,,,,,,,,,,num_4,1.6105315999593586,num_4,0.45,1.0,0.35000000000000003,0.7,13.37193,26.74385,return,7.172402400057763,,,,,,,,,,,,,,,,,721,20,female,up_down_width,2024-11-01_14h39.01.979,exp1,2023.1.0,59.824677787542825,
,,,,,,,,,,,,,,,,3,9.5,10,10.5,0,0,0.5,0.1,0.4,1.4000000000000001,10,initial,36.05,342,361,379,0,0,9,9,9,0,0,,,,,,,0,0,0,0,0,26,26,4,,,,,,,,,,,,num_3,1.9047159999608994,num_3,0.25,1.3,0.35,0.6,13.37193,22.9233,return,6.450866299914196,,,,,,,,,,,,,,,,,721,20,female,up_down_width,2024-11-01_14h39.01.979,exp1,2023.1.0,59.824677787542825,
,,,,,,,,,,,,,,,,4,9.25,9.75,10.25,10.75,0,0.5,0.1,0.4,1.9000000000000001,10,initial,36.05,333,351,370,388,0,9,9,9,9,0,,,,,,,0,0,0,0,0,27,27,10,,,,,,,,,,,,num_3,1.1443875001277775,num_3,0.45,0.8,0.5,0.7,19.10275,26.74385,return,3.9308816001284868,,,,,,,,,,,,,,,,,721,20,female,up_down_width,2024-11-01_14h39.01.979,exp1,2023.1.0,59.824677787542825,
,,,,,,,,,,,,,,,,5,9,9.5,10,10.5,11,0.5,0.1,0.4,2.4,10,initial,36.05,324,342,361,379,397,9,9,9,9,9,,,,,,,0,0,0,0,0,28,28,52,,,,,,,,,,,,num_5,1.5493067998904735,num_5,0.4,1.0,0.45,0.65,17.19248,24.83358,return,5.289983100024983,,,,,,,,,,,,,,,,,721,20,female,up_down_width,2024-11-01_14h39.01.979,exp1,2023.1.0,59.824677787542825,
,,,,,,,,,,,,,,,,3,9.5,10,10.5,0,0,0.5,0.1,0.4,1.4000000000000001,10,initial,36.05,342,361,379,0,0,9,9,9,0,0,,,,,,,0,0,0,0,0,29,29,2,,,,,,,,,,,,num_2,1.0073549998924136,num_2,0.55,0.6,0.55,0.8,21.01303,30.5644,return,7.904597999993712,,,,,,,,,,,,,,,,,721,20,female,up_down_width,2024-11-01_14h39.01.979,exp1,2023.1.0,59.824677787542825,
,,,,,,,,,,,,,,,,4,9.25,9.75,10.25,10.75,0,0.5,0.1,0.4,1.9000000000000001,10,initial,36.05,333,351,370,388,0,9,9,9,9,0,,,,,,,0,0,0,0,0,30,30,15,,,,,,,,,,,,num_2,1.1995661000255495,num_2,0.55,0.6,0.35000000000000003,0.8,13.37193,30.5644,return,8.207010200014338,,,,,,,,,,,,,,,,,721,20,female,up_down_width,2024-11-01_14h39.01.979,exp1,2023.1.0,59.824677787542825,
,,,,,,,,,,,,,,,,5,9,9.5,10,10.5,11,0.5,0.1,0.4,2.4,10,initial,36.05,324,342,361,379,397,9,9,9,9,9,,,,,,,0,0,0,0,0,31,31,24,,,,,,,,,,,,num_5,2.1572787000332028,num_5,0.5,0.9,0.45,0.65,17.19248,24.83358,return,3.493763699894771,,,,,,,,,,,,,,,,,721,20,female,up_down_width,2024-11-01_14h39.01.979,exp1,2023.1.0,59.824677787542825,
,,,,,,,,,,,,,,,,5,9,9.5,10,10.5,11,0.5,0.1,0.4,2.4,10,initial,36.05,324,342,361,379,397,9,9,9,9,9,,,,,,,0,0,0,0,0,32,32,45,,,,,,,,,,,,num_6,1.1484647998586297,num_6,0.3,0.8,0.39999999999999997,0.6,15.2822,22.9233,return,4.998267299961299,,,,,,,,,,,,,,,,,721,20,female,up_down_width,2024-11-01_14h39.01.979,exp1,2023.1.0,59.824677787542825,
,,,,,,,,,,,,,,,,3,9.5,10,10.5,0,0,0.5,0.1,0.4,1.4000000000000001,10,initial,36.05,342,361,379,0,0,9,9,9,0,0,,,,,,,0,0,0,0,0,33,33,0,,,,,,,,,,,,num_3,1.182616800069809,num_3,0.2,1.2,0.35,0.6,13.37193,22.9233,return,6.154284900054336,,,,,,,,,,,,,,,,,721,20,female,up_down_width,2024-11-01_14h39.01.979,exp1,2023.1.0,59.824677787542825,
,,,,,,,,,,,,,,,,5,9,9.5,10,10.5,11,0.5,0.1,0.4,2.4,10,initial,36.05,324,342,361,379,397,9,9,9,9,9,,,,,,,0,0,0,0,0,34,34,53,,,,,,,,,,,,num_6,3.5894094000104815,num_6,0.45,0.9,0.35000000000000003,0.6,13.37193,22.9233,return,8.319991800002754,,,,,,,,,,,,,,,,,721,20,female,up_down_width,2024-11-01_14h39.01.979,exp1,2023.1.0,59.824677787542825,
,,,,,,,,,,,,,,,,5,9,9.5,10,10.5,11,0.5,0.1,0.4,2.4,10,initial,36.05,324,342,361,379,397,9,9,9,9,9,,,,,,,0,0,0,0,0,35,35,48,,,,,,,,,,,,num_6,3.792465800186619,num_6,0.2,0.8,0.39999999999999997,0.6,15.2822,22.9233,return,3.3156349000055343,,,,,,,,,,,,,,,,,721,20,female,up_down_width,2024-11-01_14h39.01.979,exp1,2023.1.0,59.824677787542825,
,,,,,,,,,,,,,,,,5,9,9.5,10,10.5,11,0.5,0.1,0.4,2.4,10,initial,36.05,324,342,361,379,397,9,9,9,9,9,,,,,,,0,0,0,0,0,36,36,22,,,,,,,,,,,,num_6,3.0751740999985486,num_6,0.25,0.6,0.35,0.6,13.37193,22.9233,return,5.047427099896595,,,,,,,,,,,,,,,,,721,20,female,up_down_width,2024-11-01_14h39.01.979,exp1,2023.1.0,59.824677787542825,
,,,,,,,,,,,,,,,,4,9.25,9.75,10.25,10.75,0,0.5,0.1,0.4,1.9000000000000001,10,initial,36.05,333,351,370,388,0,9,9,9,9,0,,,,,,,0,0,0,0,0,37,37,12,,,,,,,,,,,,num_3,1.0290453999768943,num_3,0.35,0.6,0.5499999999999999,0.8,21.01303,30.5644,return,5.586521799908951,,,,,,,,,,,,,,,,,721,20,female,up_down_width,2024-11-01_14h39.01.979,exp1,2023.1.0,59.824677787542825,
,,,,,,,,,,,,,,,,3,9.5,10,10.5,0,0,0.5,0.1,0.4,1.4000000000000001,10,initial,36.05,342,361,379,0,0,9,9,9,0,0,,,,,,,0,0,0,0,0,38,38,8,,,,,,,,,,,,num_3,1.2763526998460293,num_3,0.45,0.9,0.4,0.6,15.2822,22.9233,return,3.977186900097877,,,,,,,,,,,,,,,,,721,20,female,up_down_width,2024-11-01_14h39.01.979,exp1,2023.1.0,59.824677787542825,
,,,,,,,,,,,,,,,,4,9.25,9.75,10.25,10.75,0,0.5,0.1,0.4,1.9000000000000001,10,initial,36.05,333,351,370,388,0,9,9,9,9,0,,,,,,,0,0,0,0,0,39,39,17,,,,,,,,,,,,num_3,3.644455499947071,num_3,0.45,0.5,0.5,0.75,19.10275,28.65413,return,4.582541799871251,,,,,,,,,,,,,,,,,721,20,female,up_down_width,2024-11-01_14h39.01.979,exp1,2023.1.0,59.824677787542825,
,,,,,,,,,,,,,,,,4,9.25,9.75,10.25,10.75,0,0.5,0.1,0.4,1.9000000000000001,10,initial,36.05,333,351,370,388,0,9,9,9,9,0,,,,,,,0,0,0,0,0,40,40,11,,,,,,,,,,,,num_4,1.3484586998820305,num_4,0.4,1.1,0.4,0.6,15.2822,22.9233,return,6.213169399881735,,,,,,,,,,,,,,,,,721,20,female,up_down_width,2024-11-01_14h39.01.979,exp1,2023.1.0,59.824677787542825,
,,,,,,,,,,,,,,,,3,9.5,10,10.5,0,0,0.5,0.1,0.4,1.4000000000000001,10,initial,36.05,342,361,379,0,0,9,9,9,0,0,,,,,,,0,0,0,0,0,41,41,5,,,,,,,,,,,,num_2,0.9711029999889433,num_2,0.25,0.8,0.44999999999999996,0.7,17.19248,26.74385,return,5.680797999957576,,,,,,,,,,,,,,,,,721,20,female,up_down_width,2024-11-01_14h39.01.979,exp1,2023.1.0,59.824677787542825,
,,,,,,,,,,,,,,,,5,9,9.5,10,10.5,11,0.5,0.1,0.4,2.4,10,initial,36.05,324,342,361,379,397,9,9,9,9,9,,,,,,,0,0,0,0,0,42,42,25,,,,,,,,,,,,num_5,1.3850130999926478,num_5,0.35,0.5,0.49999999999999994,0.75,19.10275,28.65413,return,4.589606999885291,,,,,,,,,,,,,,,,,721,20,female,up_down_width,2024-11-01_14h39.01.979,exp1,2023.1.0,59.824677787542825,
,,,,,,,,,,,,,,,,4,9.25,9.75,10.25,10.75,0,0.5,0.1,0.4,1.9000000000000001,10,initial,36.05,333,351,370,388,0,9,9,9,9,0,,,,,,,0,0,0,0,0,43,43,38,,,,,,,,,,,,num_4,1.7342776998411864,num_4,0.3,0.8,0.39999999999999997,0.6,15.2822,22.9233,return,3.8388430001214147,,,,,,,,,,,,,,,,,721,20,female,up_down_width,2024-11-01_14h39.01.979,exp1,2023.1.0,59.824677787542825,
,,,,,,,,,,,,,,,,3,9.5,10,10.5,0,0,0.5,0.1,0.4,1.4000000000000001,10,initial,36.05,342,361,379,0,0,9,9,9,0,0,,,,,,,0,0,0,0,0,44,44,28,,,,,,,,,,,,num_2,1.0071101000066847,num_2,0.2,0.4,0.39999999999999997,0.7,15.2822,26.74385,return,5.428840300068259,,,,,,,,,,,,,,,,,721,20,female,up_down_width,2024-11-01_14h39.01.979,exp1,2023.1.0,59.824677787542825,
,,,,,,,,,,,,,,,,4,9.25,9.75,10.25,10.75,0,0.5,0.1,0.4,1.9000000000000001,10,initial,36.05,333,351,370,388,0,9,9,9,9,0,,,,,,,0,0,0,0,0,45,45,37,,,,,,,,,,,,num_4,1.1010648000519723,num_4,0.5,0.8,0.4,0.5,15.2822,19.10275,return,4.592893899884075,,,,,,,,,,,,,,,,,721,20,female,up_down_width,2024-11-01_14h39.01.979,exp1,2023.1.0,59.824677787542825,
,,,,,,,,,,,,,,,,4,9.25,9.75,10.25,10.75,0,0.5,0.1,0.4,1.9000000000000001,10,initial,36.05,333,351,370,388,0,9,9,9,9,0,,,,,,,0,0,0,0,0,46,46,41,,,,,,,,,,,,num_4,1.5297951998654753,num_4,0.35,0.8,0.39999999999999997,0.6,15.2822,22.9233,return,5.115980600006878,,,,,,,,,,,,,,,,,721,20,female,up_down_width,2024-11-01_14h39.01.979,exp1,2023.1.0,59.824677787542825,
,,,,,,,,,,,,,,,,3,9.5,10,10.5,0,0,0.5,0.1,0.4,1.4000000000000001,10,initial,36.05,342,361,379,0,0,9,9,9,0,0,,,,,,,0,0,0,0,0,47,47,3,,,,,,,,,,,,num_2,0.9887305998709053,num_2,0.3,0.4,0.39999999999999997,0.6,15.2822,22.9233,return,2.7048981999978423,,,,,,,,,,,,,,,,,721,20,female,up_down_width,2024-11-01_14h39.01.979,exp1,2023.1.0,59.824677787542825,
,,,,,,,,,,,,,,,,3,9.5,10,10.5,0,0,0.5,0.1,0.4,1.4000000000000001,10,initial,36.05,342,361,379,0,0,9,9,9,0,0,,,,,,,0,0,0,0,0,48,48,35,,,,,,,,,,,,num_2,1.1822293000295758,num_2,0.35,0.4,0.39999999999999997,0.7,15.2822,26.74385,return,2.8771832999773324,,,,,,,,,,,,,,,,,721,20,female,up_down_width,2024-11-01_14h39.01.979,exp1,2023.1.0,59.824677787542825,
,,,,,,,,,,,,,,,,3,9.5,10,10.5,0,0,0.5,0.1,0.4,1.4000000000000001,10,initial,36.05,342,361,379,0,0,9,9,9,0,0,,,,,,,0,0,0,0,0,49,49,34,,,,,,,,,,,,num_2,0.8513390000443906,num_2,0.3,1.2,0.35,0.6,13.37193,22.9233,return,5.216221600072458,,,,,,,,,,,,,,,,,721,20,female,up_down_width,2024-11-01_14h39.01.979,exp1,2023.1.0,59.824677787542825,
,,,,,,,,,,,,,,,,4,9.25,9.75,10.25,10.75,0,0.5,0.1,0.4,1.9000000000000001,10,initial,36.05,333,351,370,388,0,9,9,9,9,0,,,,,,,0,0,0,0,0,50,50,9,,,,,,,,,,,,num_3,1.539490999886766,num_3,0.45,1,0.5,0.7,19.10275,26.74385,return,3.1659417001064867,,,,,,,,,,,,,,,,,721,20,female,up_down_width,2024-11-01_14h39.01.979,exp1,2023.1.0,59.824677787542825,
,,,,,,,,,,,,,,,,3,9.5,10,10.5,0,0,0.5,0.1,0.4,1.4000000000000001,10,initial,36.05,342,361,379,0,0,9,9,9,0,0,,,,,,,0,0,0,0,0,51,51,33,,,,,,,,,,,,num_3,1.3271672001574188,num_3,0.4,0.7,0.35000000000000003,0.55,13.37193,21.01303,return,4.02056650002487,,,,,,,,,,,,,,,,,721,20,female,up_down_width,2024-11-01_14h39.01.979,exp1,2023.1.0,59.824677787542825,
,,,,,,,,,,,,,,,,3,9.5,10,10.5,0,0,0.5,0.1,0.4,1.4000000000000001,10,initial,36.05,342,361,379,0,0,9,9,9,0,0,,,,,,,0,0,0,0,0,52,52,29,,,,,,,,,,,,num_3,0.9541239000391215,num_3,0.2,0.9,0.44999999999999996,0.65,17.19248,24.83358,return,4.575313000008464,,,,,,,,,,,,,,,,,721,20,female,up_down_width,2024-11-01_14h39.01.979,exp1,2023.1.0,59.824677787542825,
,,,,,,,,,,,,,,,,4,9.25,9.75,10.25,10.75,0,0.5,0.1,0.4,1.9000000000000001,10,initial,36.05,333,351,370,388,0,9,9,9,9,0,,,,,,,0,0,0,0,0,53,53,42,,,,,,,,,,,,num_4,1.6054521999321878,num_4,0.2,0.6,0.35,0.5,13.37193,19.10275,return,4.046461000107229,,,,,,,,,,,,,,,,,721,20,female,up_down_width,2024-11-01_14h39.01.979,exp1,2023.1.0,59.824677787542825,
,,,,,,,,,,,,,,,,,,,,,,,,,,,,,,,,,,,,,,,,,,,,,0,0,0,0,,,,,,,,,,,,,,,,,,,,,,,,,,,,,985.7158534999471,985.7158534999471,985.7158534999471,,,,,,,,,,,,721,20,female,up_down_width,2024-11-01_14h39.01.979,exp1,2023.1.0,59.824677787542825,
,,,,,,,,,,,,,,,,3,9.5,10,10.5,0,0,0.5,0.25,0.25,1.25,10,initial,36.05,342,361,379,0,0,9,9,9,0,0,,,,,,,1,0,1,0,0,0,0,34,,,,,,,,,,,,num_3,1.251838200027123,num_3,0.55,1.3,0.30000000000000004,1.0,11.46165,38.2055,return,3.7141238001640886,,,,,,,,,,,,,,,,,721,20,female,up_down_width,2024-11-01_14h39.01.979,exp1,2023.1.0,59.824677787542825,
,,,,,,,,,,,,,,,,5,9,9.5,10,10.5,11,0.5,0.25,0.25,2.25,10,initial,36.05,324,342,361,379,397,9,9,9,9,9,,,,,,,1,0,1,0,0,1,1,45,,,,,,,,,,,,num_5,1.5298860999755561,num_5,0.25,0.6,0.25,0.85,9.55138,32.47468,return,3.2083564000204206,,,,,,,,,,,,,,,,,721,20,female,up_down_width,2024-11-01_14h39.01.979,exp1,2023.1.0,59.824677787542825,
,,,,,,,,,,,,,,,,5,9,9.5,10,10.5,11,0.5,0.25,0.25,2.25,10,initial,36.05,324,342,361,379,397,9,9,9,9,9,,,,,,,1,0,1,0,0,2,2,19,,,,,,,,,,,,num_5,1.544440200086683,num_5,0.55,1.3,0.20000000000000007,1.2,7.6411,45.8466,return,2.889746200060472,,,,,,,,,,,,,,,,,721,20,female,up_down_width,2024-11-01_14h39.01.979,exp1,2023.1.0,59.824677787542825,
,,,,,,,,,,,,,,,,4,9.25,9.75,10.25,10.75,0,0.5,0.25,0.25,1.75,10,initial,36.05,333,351,370,388,0,9,9,9,9,0,,,,,,,1,0,1,0,0,3,3,40,,,,,,,,,,,,num_4,1.392271100077778,num_4,0.3,0.7,0.15000000000000002,0.8,5.73083,30.5644,return,2.4699188999366015,,,,,,,,,,,,,,,,,721,20,female,up_down_width,2024-11-01_14h39.01.979,exp1,2023.1.0,59.824677787542825,
,,,,,,,,,,,,,,,,5,9,9.5,10,10.5,11,0.5,0.25,0.25,2.25,10,initial,36.05,324,342,361,379,397,9,9,9,9,9,,,,,,,1,0,1,0,0,4,4,23,,,,,,,,,,,,num_5,1.1169039001688361,num_5,0.3,1.3,0.2,0.8,7.6411,30.5644,return,4.134250900009647,,,,,,,,,,,,,,,,,721,20,female,up_down_width,2024-11-01_14h39.01.979,exp1,2023.1.0,59.824677787542825,
,,,,,,,,,,,,,,,,3,9.5,10,10.5,0,0,0.5,0.25,0.25,1.25,10,initial,36.05,342,361,379,0,0,9,9,9,0,0,,,,,,,1,0,1,0,0,5,5,31,,,,,,,,,,,,num_2,1.207159300101921,num_2,0.35,1.4,0.25,1.1,9.55138,42.02605,return,4.272013999987394,,,,,,,,,,,,,,,,,721,20,female,up_down_width,2024-11-01_14h39.01.979,exp1,2023.1.0,59.824677787542825,
,,,,,,,,,,,,,,,,5,9,9.5,10,10.5,11,0.5,0.25,0.25,2.25,10,initial,36.05,324,342,361,379,397,9,9,9,9,9,,,,,,,1,0,1,0,0,6,6,25,,,,,,,,,,,,num_6,2.0178628999274224,num_6,0.55,0.6,0.15000000000000008,0.7,5.73083,26.74385,return,6.511107000056654,,,,,,,,,,,,,,,,,721,20,female,up_down_width,2024-11-01_14h39.01.979,exp1,2023.1.0,59.824677787542825,
,,,,,,,,,,,,,,,,5,9,9.5,10,10.5,11,0.5,0.25,0.25,2.25,10,initial,36.05,324,342,361,379,397,9,9,9,9,9,,,,,,,1,0,1,0,0,7,7,18,,,,,,,,,,,,num_6,1.0925493999384344,num_6,0.25,0.8,0.2,0.9,7.6411,34.38495,return,4.5843849000521,,,,,,,,,,,,,,,,,721,20,female,up_down_width,2024-11-01_14h39.01.979,exp1,2023.1.0,59.824677787542825,
,,,,,,,,,,,,,,,,4,9.25,9.75,10.25,10.75,0,0.5,0.25,0.25,1.75,10,initial,36.05,333,351,370,388,0,9,9,9,9,0,,,,,,,1,0,1,0,0,8,8,39,,,,,,,,,,,,num_5,0.9840612001717091,num_5,0.25,0.8,0.10000000000000002,0.6,3.82055,22.9233,return,3.357502199942246,,,,,,,,,,,,,,,,,721,20,female,up_down_width,2024-11-01_14h39.01.979,exp1,2023.1.0,59.824677787542825,
,,,,,,,,,,,,,,,,5,9,9.5,10,10.5,11,0.5,0.25,0.25,2.25,10,initial,36.05,324,342,361,379,397,9,9,9,9,9,,,,,,,1,0,1,0,0,9,9,20,,,,,,,,,,,,num_7,1.7464293998200446,num_7,0.45,0.5,0.20000000000000007,0.6,7.6411,22.9233,return,3.590102600166574,,,,,,,,,,,,,,,,,721,20,female,up_down_width,2024-11-01_14h39.01.979,exp1,2023.1.0,59.824677787542825,
,,,,,,,,,,,,,,,,5,9,9.5,10,10.5,11,0.5,0.25,0.25,2.25,10,initial,36.05,324,342,361,379,397,9,9,9,9,9,,,,,,,1,0,1,0,0,10,10,26,,,,,,,,,,,,num_5,1.5659338000696152,num_5,0.55,1.0,0.15000000000000008,0.95,5.73083,36.29523,return,4.925252099987119,,,,,,,,,,,,,,,,,721,20,female,up_down_width,2024-11-01_14h39.01.979,exp1,2023.1.0,59.824677787542825,
,,,,,,,,,,,,,,,,4,9.25,9.75,10.25,10.75,0,0.5,0.25,0.25,1.75,10,initial,36.05,333,351,370,388,0,9,9,9,9,0,,,,,,,1,0,1,0,0,11,11,37,,,,,,,,,,,,num_4,1.459391799988225,num_4,0.3,1.1,0.15000000000000002,0.6,5.73083,22.9233,return,3.906045699957758,,,,,,,,,,,,,,,,,721,20,female,up_down_width,2024-11-01_14h39.01.979,exp1,2023.1.0,59.824677787542825,
,,,,,,,,,,,,,,,,4,9.25,9.75,10.25,10.75,0,0.5,0.25,0.25,1.75,10,initial,36.05,333,351,370,388,0,9,9,9,9,0,,,,,,,1,0,1,0,0,12,12,16,,,,,,,,,,,,num_4,1.059873899910599,num_4,0.35,1.3,0.15000000000000002,0.6,5.73083,22.9233,return,3.4183704999741167,,,,,,,,,,,,,,,,,721,20,female,up_down_width,2024-11-01_14h39.01.979,exp1,2023.1.0,59.824677787542825,
,,,,,,,,,,,,,,,,3,9.5,10,10.5,0,0,0.5,0.25,0.25,1.25,10,initial,36.05,342,361,379,0,0,9,9,9,0,0,,,,,,,1,0,1,0,0,13,13,0,,,,,,,,,,,,num_3,1.457119100028649,num_3,0.35,1.1,0.2,0.7,7.6411,26.74385,return,3.925864899996668,,,,,,,,,,,,,,,,,721,20,female,up_down_width,2024-11-01_14h39.01.979,exp1,2023.1.0,59.824677787542825,
,,,,,,,,,,,,,,,,3,9.5,10,10.5,0,0,0.5,0.25,0.25,1.25,10,initial,36.05,342,361,379,0,0,9,9,9,0,0,,,,,,,1,0,1,0,0,14,14,3,,,,,,,,,,,,num_3,1.015520699787885,num_3,0.2,0.9,0.2,0.85,7.6411,32.47468,return,1.1912913999985904,,,,,,,,,,,,,,,,,721,20,female,up_down_width,2024-11-01_14h39.01.979,exp1,2023.1.0,59.824677787542825,
,,,,,,,,,,,,,,,,3,9.5,10,10.5,0,0,0.5,0.25,0.25,1.25,10,initial,36.05,342,361,379,0,0,9,9,9,0,0,,,,,,,1,0,1,0,0,15,15,2,,,,,,,,,,,,num_2,0.8585706998128444,num_2,0.3,1.4,0.25,0.9,9.55138,34.38495,return,3.126202299958095,,,,,,,,,,,,,,,,,721,20,female,up_down_width,2024-11-01_14h39.01.979,exp1,2023.1.0,59.824677787542825,
,,,,,,,,,,,,,,,,3,9.5,10,10.5,0,0,0.5,0.25,0.25,1.25,10,initial,36.05,342,361,379,0,0,9,9,9,0,0,,,,,,,1,0,1,0,0,16,16,1,,,,,,,,,,,,num_2,0.9399129000958055,num_2,0.55,0.8,0.15000000000000008,0.8,5.73083,30.5644,return,4.415253199869767,,,,,,,,,,,,,,,,,721,20,female,up_down_width,2024-11-01_14h39.01.979,exp1,2023.1.0,59.824677787542825,
,,,,,,,,,,,,,,,,4,9.25,9.75,10.25,10.75,0,0.5,0.25,0.25,1.75,10,initial,36.05,333,351,370,388,0,9,9,9,9,0,,,,,,,1,0,1,0,0,17,17,41,,,,,,,,,,,,num_4,1.3202065001241863,num_4,0.35,0.9,0.2,0.7,7.6411,26.74385,return,2.6723442000802606,,,,,,,,,,,,,,,,,721,20,female,up_down_width,2024-11-01_14h39.01.979,exp1,2023.1.0,59.824677787542825,
,,,,,,,,,,,,,,,,4,9.25,9.75,10.25,10.75,0,0.5,0.25,0.25,1.75,10,initial,36.05,333,351,370,388,0,9,9,9,9,0,,,,,,,1,0,1,0,0,18,18,14,,,,,,,,,,,,num_4,1.3579436999280006,num_4,0.5,0.6,0.15000000000000008,0.8,5.73083,30.5644,return,3.7987412000074983,,,,,,,,,,,,,,,,,721,20,female,up_down_width,2024-11-01_14h39.01.979,exp1,2023.1.0,59.824677787542825,
,,,,,,,,,,,,,,,,3,9.5,10,10.5,0,0,0.5,0.25,0.25,1.25,10,initial,36.05,342,361,379,0,0,9,9,9,0,0,,,,,,,1,0,1,0,0,19,19,33,,,,,,,,,,,,num_3,0.9184749000705779,num_3,0.35,1.3,0.25,0.7,9.55138,26.74385,return,4.283819400006905,,,,,,,,,,,,,,,,,721,20,female,up_down_width,2024-11-01_14h39.01.979,exp1,2023.1.0,59.824677787542825,
,,,,,,,,,,,,,,,,5,9,9.5,10,10.5,11,0.5,0.25,0.25,2.25,10,initial,36.05,324,342,361,379,397,9,9,9,9,9,,,,,,,1,0,1,0,0,20,20,21,,,,,,,,,,,,num_6,2.2155940998345613,num_6,0.35,0.6,0.15000000000000002,0.6,5.73083,22.9233,return,6.341595500009134,,,,,,,,,,,,,,,,,721,20,female,up_down_width,2024-11-01_14h39.01.979,exp1,2023.1.0,59.824677787542825,
,,,,,,,,,,,,,,,,3,9.5,10,10.5,0,0,0.5,0.25,0.25,1.25,10,initial,36.05,342,361,379,0,0,9,9,9,0,0,,,,,,,1,0,1,0,0,21,21,35,,,,,,,,,,,,num_3,1.2445040000602603,num_3,0.35,1.1,0.25,0.75,9.55138,28.65413,return,3.0778413000516593,,,,,,,,,,,,,,,,,721,20,female,up_down_width,2024-11-01_14h39.01.979,exp1,2023.1.0,59.824677787542825,
,,,,,,,,,,,,,,,,3,9.5,10,10.5,0,0,0.5,0.25,0.25,1.25,10,initial,36.05,342,361,379,0,0,9,9,9,0,0,,,,,,,1,0,1,0,0,22,22,5,,,,,,,,,,,,num_2,0.8798311001155525,num_2,0.35,0.8,0.15000000000000002,0.6,5.73083,22.9233,return,2.7961103001143783,,,,,,,,,,,,,,,,,721,20,female,up_down_width,2024-11-01_14h39.01.979,exp1,2023.1.0,59.824677787542825,
,,,,,,,,,,,,,,,,4,9.25,9.75,10.25,10.75,0,0.5,0.25,0.25,1.75,10,initial,36.05,333,351,370,388,0,9,9,9,9,0,,,,,,,1,0,1,0,0,23,23,12,,,,,,,,,,,,num_5,2.2083915998227894,num_5,0.55,1.1,0.15000000000000008,0.75,5.73083,28.65413,return,5.042025499977171,,,,,,,,,,,,,,,,,721,20,female,up_down_width,2024-11-01_14h39.01.979,exp1,2023.1.0,59.824677787542825,
,,,,,,,,,,,,,,,,3,9.5,10,10.5,0,0,0.5,0.25,0.25,1.25,10,initial,36.05,342,361,379,0,0,9,9,9,0,0,,,,,,,1,0,1,0,0,24,24,7,,,,,,,,,,,,num_2,0.8318153999280185,num_2,0.3,1.4,0.2,0.8,7.6411,30.5644,return,2.3616092999000102,,,,,,,,,,,,,,,,,721,20,female,up_down_width,2024-11-01_14h39.01.979,exp1,2023.1.0,59.824677787542825,
,,,,,,,,,,,,,,,,4,9.25,9.75,10.25,10.75,0,0.5,0.25,0.25,1.75,10,initial,36.05,333,351,370,388,0,9,9,9,9,0,,,,,,,1,0,1,0,0,25,25,44,,,,,,,,,,,,num_4,1.2379464998375624,num_4,0.35,1.2,0.15000000000000002,0.7,5.73083,26.74385,return,3.2025719000957906,,,,,,,,,,,,,,,,,721,20,female,up_down_width,2024-11-01_14h39.01.979,exp1,2023.1.0,59.824677787542825,
,,,,,,,,,,,,,,,,5,9,9.5,10,10.5,11,0.5,0.25,0.25,2.25,10,initial,36.05,324,342,361,379,397,9,9,9,9,9,,,,,,,1,0,1,0,0,26,26,24,,,,,,,,,,,,num_7,1.0887847000267357,num_7,0.2,0.6,0.15000000000000002,0.55,5.73083,21.01303,return,2.2378968000411987,,,,,,,,,,,,,,,,,721,20,female,up_down_width,2024-11-01_14h39.01.979,exp1,2023.1.0,59.824677787542825,
,,,,,,,,,,,,,,,,5,9,9.5,10,10.5,11,0.5,0.25,0.25,2.25,10,initial,36.05,324,342,361,379,397,9,9,9,9,9,,,,,,,1,0,1,0,0,27,27,49,,,,,,,,,,,,num_6,2.0598665999714285,num_6,0.3,1.1,0.15000000000000002,0.6,5.73083,22.9233,return,3.4328427999280393,,,,,,,,,,,,,,,,,721,20,female,up_down_width,2024-11-01_14h39.01.979,exp1,2023.1.0,59.824677787542825,
,,,,,,,,,,,,,,,,4,9.25,9.75,10.25,10.75,0,0.5,0.25,0.25,1.75,10,initial,36.05,333,351,370,388,0,9,9,9,9,0,,,,,,,1,0,1,0,0,28,28,9,,,,,,,,,,,,num_4,1.7939260001294315,num_4,0.45,1.2,0.25000000000000006,0.9,9.55138,34.38495,return,3.2407335001043975,,,,,,,,,,,,,,,,,721,20,female,up_down_width,2024-11-01_14h39.01.979,exp1,2023.1.0,59.824677787542825,
,,,,,,,,,,,,,,,,3,9.5,10,10.5,0,0,0.5,0.25,0.25,1.25,10,initial,36.05,342,361,379,0,0,9,9,9,0,0,,,,,,,1,0,1,0,0,29,29,6,,,,,,,,,,,,num_3,1.0183903998695314,num_3,0.2,0.9,0.2,0.6,7.6411,22.9233,return,1.8716391001362354,,,,,,,,,,,,,,,,,721,20,female,up_down_width,2024-11-01_14h39.01.979,exp1,2023.1.0,59.824677787542825,
,,,,,,,,,,,,,,,,5,9,9.5,10,10.5,11,0.5,0.25,0.25,2.25,10,initial,36.05,324,342,361,379,397,9,9,9,9,9,,,,,,,1,0,1,0,0,30,30,50,,,,,,,,,,,,num_5,1.0039462000131607,num_5,0.2,0.3,0.15000000000000002,0.6,5.73083,22.9233,return,3.792228100122884,,,,,,,,,,,,,,,,,721,20,female,up_down_width,2024-11-01_14h39.01.979,exp1,2023.1.0,59.824677787542825,
,,,,,,,,,,,,,,,,4,9.25,9.75,10.25,10.75,0,0.5,0.25,0.25,1.75,10,initial,36.05,333,351,370,388,0,9,9,9,9,0,,,,,,,1,0,1,0,0,31,31,11,,,,,,,,,,,,num_5,1.284068200038746,num_5,0.2,0.7,0.15000000000000002,0.6,5.73083,22.9233,return,3.8693399000912905,,,,,,,,,,,,,,,,,721,20,female,up_down_width,2024-11-01_14h39.01.979,exp1,2023.1.0,59.824677787542825,
,,,,,,,,,,,,,,,,3,9.5,10,10.5,0,0,0.5,0.25,0.25,1.25,10,initial,36.05,342,361,379,0,0,9,9,9,0,0,,,,,,,1,0,1,0,0,32,32,29,,,,,,,,,,,,num_3,1.1444125999696553,num_3,0.2,0.9,0.15000000000000002,0.65,5.73083,24.83358,return,4.005601100157946,,,,,,,,,,,,,,,,,721,20,female,up_down_width,2024-11-01_14h39.01.979,exp1,2023.1.0,59.824677787542825,
,,,,,,,,,,,,,,,,4,9.25,9.75,10.25,10.75,0,0.5,0.25,0.25,1.75,10,initial,36.05,333,351,370,388,0,9,9,9,9,0,,,,,,,1,0,1,0,0,33,33,43,,,,,,,,,,,,num_4,0.9173510000109673,num_4,0.4,1.0,0.15000000000000008,0.6,5.73083,22.9233,return,3.2759745998773724,,,,,,,,,,,,,,,,,721,20,female,up_down_width,2024-11-01_14h39.01.979,exp1,2023.1.0,59.824677787542825,
,,,,,,,,,,,,,,,,5,9,9.5,10,10.5,11,0.5,0.25,0.25,2.25,10,initial,36.05,324,342,361,379,397,9,9,9,9,9,,,,,,,1,0,1,0,0,34,34,47,,,,,,,,,,,,num_6,1.1257952998857945,num_6,0.3,0.6,0.10000000000000002,0.4,3.82055,15.2822,return,2.8711258999537677,,,,,,,,,,,,,,,,,721,20,female,up_down_width,2024-11-01_14h39.01.979,exp1,2023.1.0,59.824677787542825,
,,,,,,,,,,,,,,,,5,9,9.5,10,10.5,11,0.5,0.25,0.25,2.25,10,initial,36.05,324,342,361,379,397,9,9,9,9,9,,,,,,,1,0,1,0,0,35,35,22,,,,,,,,,,,,num_6,0.9945185000542551,num_6,0.2,0.3,0.2,0.5,7.6411,19.10275,return,5.813230299856514,,,,,,,,,,,,,,,,,721,20,female,up_down_width,2024-11-01_14h39.01.979,exp1,2023.1.0,59.824677787542825,
,,,,,,,,,,,,,,,,5,9,9.5,10,10.5,11,0.5,0.25,0.25,2.25,10,initial,36.05,324,342,361,379,397,9,9,9,9,9,,,,,,,1,0,1,0,0,36,36,51,,,,,,,,,,,,num_7,1.2402147001121193,num_7,0.3,0.8,0.15000000000000002,0.5,5.73083,19.10275,return,3.0298003999050707,,,,,,,,,,,,,,,,,721,20,female,up_down_width,2024-11-01_14h39.01.979,exp1,2023.1.0,59.824677787542825,
,,,,,,,,,,,,,,,,3,9.5,10,10.5,0,0,0.5,0.25,0.25,1.25,10,initial,36.05,342,361,379,0,0,9,9,9,0,0,,,,,,,1,0,1,0,0,37,37,28,,,,,,,,,,,,num_2,0.9758168999105692,num_2,0.25,1.0,0.2,0.7,7.6411,26.74385,return,3.3246229998767376,,,,,,,,,,,,,,,,,721,20,female,up_down_width,2024-11-01_14h39.01.979,exp1,2023.1.0,59.824677787542825,
,,,,,,,,,,,,,,,,4,9.25,9.75,10.25,10.75,0,0.5,0.25,0.25,1.75,10,initial,36.05,333,351,370,388,0,9,9,9,9,0,,,,,,,1,0,1,0,0,38,38,15,,,,,,,,,,,,num_4,1.1297728000208735,num_4,0.4,0.7,0.15000000000000008,0.6,5.73083,22.9233,return,3.163825900061056,,,,,,,,,,,,,,,,,721,20,female,up_down_width,2024-11-01_14h39.01.979,exp1,2023.1.0,59.824677787542825,
,,,,,,,,,,,,,,,,4,9.25,9.75,10.25,10.75,0,0.5,0.25,0.25,1.75,10,initial,36.05,333,351,370,388,0,9,9,9,9,0,,,,,,,1,0,1,0,0,39,39,42,,,,,,,,,,,,num_4,1.0443120000418276,num_4,0.55,0.9,0.20000000000000007,0.7,7.6411,26.74385,return,2.8517251000739634,,,,,,,,,,,,,,,,,721,20,female,up_down_width,2024-11-01_14h39.01.979,exp1,2023.1.0,59.824677787542825,
,,,,,,,,,,,,,,,,3,9.5,10,10.5,0,0,0.5,0.25,0.25,1.25,10,initial,36.05,342,361,379,0,0,9,9,9,0,0,,,,,,,1,0,1,0,0,40,40,4,,,,,,,,,,,,num_2,0.9377041000407189,num_2,0.2,1.0,0.15000000000000002,0.6,5.73083,22.9233,return,2.1562793001066893,,,,,,,,,,,,,,,,,721,20,female,up_down_width,2024-11-01_14h39.01.979,exp1,2023.1.0,59.824677787542825,
,,,,,,,,,,,,,,,,5,9,9.5,10,10.5,11,0.5,0.25,0.25,2.25,10,initial,36.05,324,342,361,379,397,9,9,9,9,9,,,,,,,1,0,1,0,0,41,41,52,,,,,,,,,,,,num_7,1.2999791000038385,num_7,0.5,1.3,0.15000000000000008,0.8,5.73083,30.5644,return,5.464719000039622,,,,,,,,,,,,,,,,,721,20,female,up_down_width,2024-11-01_14h39.01.979,exp1,2023.1.0,59.824677787542825,
,,,,,,,,,,,,,,,,3,9.5,10,10.5,0,0,0.5,0.25,0.25,1.25,10,initial,36.05,342,361,379,0,0,9,9,9,0,0,,,,,,,1,0,1,0,0,42,42,8,,,,,,,,,,,,num_2,0.9508003999944776,num_2,0.5,1.6,0.25000000000000006,1.0,9.55138,38.2055,return,2.6814175001345575,,,,,,,,,,,,,,,,,721,20,female,up_down_width,2024-11-01_14h39.01.979,exp1,2023.1.0,59.824677787542825,
,,,,,,,,,,,,,,,,3,9.5,10,10.5,0,0,0.5,0.25,0.25,1.25,10,initial,36.05,342,361,379,0,0,9,9,9,0,0,,,,,,,1,0,1,0,0,43,43,27,,,,,,,,,,,,num_2,0.9405250998679549,num_2,0.2,0.4,0.2,0.5,7.6411,19.10275,return,2.785688600037247,,,,,,,,,,,,,,,,,721,20,female,up_down_width,2024-11-01_14h39.01.979,exp1,2023.1.0,59.824677787542825,
,,,,,,,,,,,,,,,,4,9.25,9.75,10.25,10.75,0,0.5,0.25,0.25,1.75,10,initial,36.05,333,351,370,388,0,9,9,9,9,0,,,,,,,1,0,1,0,0,44,44,13,,,,,,,,,,,,num_5,2.4321991000324488,num_5,0.25,0.8,0.15000000000000002,0.55,5.73083,21.01303,return,2.2854204999748617,,,,,,,,,,,,,,,,,721,20,female,up_down_width,2024-11-01_14h39.01.979,exp1,2023.1.0,59.824677787542825,
,,,,,,,,,,,,,,,,5,9,9.5,10,10.5,11,0.5,0.25,0.25,2.25,10,initial,36.05,324,342,361,379,397,9,9,9,9,9,,,,,,,1,0,1,0,0,45,45,53,,,,,,,,,,,,num_6,1.1613336000591516,num_6,0.5,0.7,0.20000000000000007,0.7,7.6411,26.74385,return,2.8857897000852972,,,,,,,,,,,,,,,,,721,20,female,up_down_width,2024-11-01_14h39.01.979,exp1,2023.1.0,59.824677787542825,
,,,,,,,,,,,,,,,,3,9.5,10,10.5,0,0,0.5,0.25,0.25,1.25,10,initial,36.05,342,361,379,0,0,9,9,9,0,0,,,,,,,1,0,1,0,0,46,46,30,,,,,,,,,,,,num_2,0.9198678999673575,num_2,0.5,0.6,0.20000000000000007,0.5,7.6411,19.10275,return,2.0121593000367284,,,,,,,,,,,,,,,,,721,20,female,up_down_width,2024-11-01_14h39.01.979,exp1,2023.1.0,59.824677787542825,
,,,,,,,,,,,,,,,,4,9.25,9.75,10.25,10.75,0,0.5,0.25,0.25,1.75,10,initial,36.05,333,351,370,388,0,9,9,9,9,0,,,,,,,1,0,1,0,0,47,47,17,,,,,,,,,,,,num_4,1.050665299873799,num_4,0.3,0.8,0.2,0.6,7.6411,22.9233,return,2.252060000086203,,,,,,,,,,,,,,,,,721,20,female,up_down_width,2024-11-01_14h39.01.979,exp1,2023.1.0,59.824677787542825,
,,,,,,,,,,,,,,,,5,9,9.5,10,10.5,11,0.5,0.25,0.25,2.25,10,initial,36.05,324,342,361,379,397,9,9,9,9,9,,,,,,,1,0,1,0,0,48,48,46,,,,,,,,,,,,num_6,1.0202558001037687,num_6,0.5,0.6,0.15000000000000008,0.6,5.73083,22.9233,return,2.537955099949613,,,,,,,,,,,,,,,,,721,20,female,up_down_width,2024-11-01_14h39.01.979,exp1,2023.1.0,59.824677787542825,
,,,,,,,,,,,,,,,,5,9,9.5,10,10.5,11,0.5,0.25,0.25,2.25,10,initial,36.05,324,342,361,379,397,9,9,9,9,9,,,,,,,1,0,1,0,0,49,49,48,,,,,,,,,,,,num_6,0.867608199827373,num_6,0.4,0.8,0.20000000000000007,0.8,7.6411,30.5644,return,1.8020697999745607,,,,,,,,,,,,,,,,,721,20,female,up_down_width,2024-11-01_14h39.01.979,exp1,2023.1.0,59.824677787542825,
,,,,,,,,,,,,,,,,4,9.25,9.75,10.25,10.75,0,0.5,0.25,0.25,1.75,10,initial,36.05,333,351,370,388,0,9,9,9,9,0,,,,,,,1,0,1,0,0,50,50,38,,,,,,,,,,,,num_4,0.9424242000095546,num_4,0.2,1.3,0.15000000000000002,0.7,5.73083,26.74385,return,5.763489299919456,,,,,,,,,,,,,,,,,721,20,female,up_down_width,2024-11-01_14h39.01.979,exp1,2023.1.0,59.824677787542825,
,,,,,,,,,,,,,,,,4,9.25,9.75,10.25,10.75,0,0.5,0.25,0.25,1.75,10,initial,36.05,333,351,370,388,0,9,9,9,9,0,,,,,,,1,0,1,0,0,51,51,36,,,,,,,,,,,,num_6,1.1603345000185072,num_6,0.45,1.1,0.15000000000000008,0.5,5.73083,19.10275,return,3.7153742001391947,,,,,,,,,,,,,,,,,721,20,female,up_down_width,2024-11-01_14h39.01.979,exp1,2023.1.0,59.824677787542825,
,,,,,,,,,,,,,,,,3,9.5,10,10.5,0,0,0.5,0.25,0.25,1.25,10,initial,36.05,342,361,379,0,0,9,9,9,0,0,,,,,,,1,0,1,0,0,52,52,32,,,,,,,,,,,,num_2,0.9973834999836981,num_2,0.25,0.6,0.25,0.6,9.55138,22.9233,return,1.0978175001218915,,,,,,,,,,,,,,,,,721,20,female,up_down_width,2024-11-01_14h39.01.979,exp1,2023.1.0,59.824677787542825,
,,,,,,,,,,,,,,,,4,9.25,9.75,10.25,10.75,0,0.5,0.25,0.25,1.75,10,initial,36.05,333,351,370,388,0,9,9,9,9,0,,,,,,,1,0,1,0,0,53,53,10,,,,,,,,,,,,num_3,1.7860797999892384,num_3,0.4,0.7,0.25000000000000006,0.65,9.55138,24.83358,return,4.114070399897173,,,,,,,,,,,,,,,,,721,20,female,up_down_width,2024-11-01_14h39.01.979,exp1,2023.1.0,59.824677787542825,
,,,,,,,,,,,,,,,,,,,,,,,,,,,,,,,,,,,,,,,,,,,,,1,0,1,0,,,,,,,,,,,,,,,,,,,,,,,,,,,,,1341.0484853999224,1341.0484853999224,1341.0484853999224,,,,,,,,,,,,721,20,female,up_down_width,2024-11-01_14h39.01.979,exp1,2023.1.0,59.824677787542825,
,,,,,,,,,,,,,,,,4,9.25,9.75,10.25,10.75,0,0.5,0.1,0.4,1.9000000000000001,10,initial,36.05,333,351,370,388,0,9,9,9,9,0,,,,,,,2,0,2,0,0,0,0,10,,,,,,,,,,,,num_4,2.4029252000618726,num_4,0.5,0.8,0.6000000000000001,0.8,22.9233,30.5644,return,3.819208800094202,,,,,,,,,,,,,,,,,721,20,female,up_down_width,2024-11-01_14h39.01.979,exp1,2023.1.0,59.824677787542825,
,,,,,,,,,,,,,,,,4,9.25,9.75,10.25,10.75,0,0.5,0.1,0.4,1.9000000000000001,10,initial,36.05,333,351,370,388,0,9,9,9,9,0,,,,,,,2,0,2,0,0,1,1,11,,,,,,,,,,,,num_3,1.407079900149256,num_3,0.45,0.9,0.45,0.65,17.19248,24.83358,return,2.2602411000989377,,,,,,,,,,,,,,,,,721,20,female,up_down_width,2024-11-01_14h39.01.979,exp1,2023.1.0,59.824677787542825,
,,,,,,,,,,,,,,,,3,9.5,10,10.5,0,0,0.5,0.1,0.4,1.4000000000000001,10,initial,36.05,342,361,379,0,0,9,9,9,0,0,,,,,,,2,0,2,0,0,2,2,6,,,,,,,,,,,,num_2,0.8633026001043618,num_2,0.3,0.4,0.7000000000000001,0.9,26.74385,34.38495,return,6.13984870002605,,,,,,,,,,,,,,,,,721,20,female,up_down_width,2024-11-01_14h39.01.979,exp1,2023.1.0,59.824677787542825,
,,,,,,,,,,,,,,,,5,9,9.5,10,10.5,11,0.5,0.1,0.4,2.4,10,initial,36.05,324,342,361,379,397,9,9,9,9,9,,,,,,,2,0,2,0,0,3,3,21,,,,,,,,,,,,num_5,1.960046799853444,num_5,0.25,0.9,0.49999999999999994,0.75,19.10275,28.65413,return,3.7968516000546515,,,,,,,,,,,,,,,,,721,20,female,up_down_width,2024-11-01_14h39.01.979,exp1,2023.1.0,59.824677787542825,
,,,,,,,,,,,,,,,,3,9.5,10,10.5,0,0,0.5,0.1,0.4,1.4000000000000001,10,initial,36.05,342,361,379,0,0,9,9,9,0,0,,,,,,,2,0,2,0,0,4,4,31,,,,,,,,,,,,num_2,0.8895049998536706,num_2,0.55,1.2,0.6000000000000001,0.8,22.9233,30.5644,return,4.895926299970597,,,,,,,,,,,,,,,,,721,20,female,up_down_width,2024-11-01_14h39.01.979,exp1,2023.1.0,59.824677787542825,
,,,,,,,,,,,,,,,,5,9,9.5,10,10.5,11,0.5,0.1,0.4,2.4,10,initial,36.05,324,342,361,379,397,9,9,9,9,9,,,,,,,2,0,2,0,0,5,5,19,,,,,,,,,,,,num_5,3.1387686000671238,num_5,0.2,1.2,0.65,0.85,24.83358,32.47468,return,3.869926600018516,,,,,,,,,,,,,,,,,721,20,female,up_down_width,2024-11-01_14h39.01.979,exp1,2023.1.0,59.824677787542825,
,,,,,,,,,,,,,,,,4,9.25,9.75,10.25,10.75,0,0.5,0.1,0.4,1.9000000000000001,10,initial,36.05,333,351,370,388,0,9,9,9,9,0,,,,,,,2,0,2,0,0,6,6,9,,,,,,,,,,,,num_2,0.8684073998592794,num_2,0.5,1.4,0.7000000000000002,0.9,26.74385,34.38495,return,3.3577638999558985,,,,,,,,,,,,,,,,,721,20,female,up_down_width,2024-11-01_14h39.01.979,exp1,2023.1.0,59.824677787542825,
,,,,,,,,,,,,,,,,5,9,9.5,10,10.5,11,0.5,0.1,0.4,2.4,10,initial,36.05,324,342,361,379,397,9,9,9,9,9,,,,,,,2,0,2,0,0,7,7,24,,,,,,,,,,,,num_3,0.9902347000315785,num_3,0.3,0.6,0.5499999999999999,0.75,21.01303,28.65413,return,8.817300399998203,,,,,,,,,,,,,,,,,721,20,female,up_down_width,2024-11-01_14h39.01.979,exp1,2023.1.0,59.824677787542825,
,,,,,,,,,,,,,,,,5,9,9.5,10,10.5,11,0.5,0.1,0.4,2.4,10,initial,36.05,324,342,361,379,397,9,9,9,9,9,,,,,,,2,0,2,0,0,8,8,25,,,,,,,,,,,,num_3,1.3773890000302345,num_3,0.35,0.7,0.7000000000000001,0.85,26.74385,32.47468,return,3.480625099968165,,,,,,,,,,,,,,,,,721,20,female,up_down_width,2024-11-01_14h39.01.979,exp1,2023.1.0,59.824677787542825,
,,,,,,,,,,,,,,,,4,9.25,9.75,10.25,10.75,0,0.5,0.1,0.4,1.9000000000000001,10,initial,36.05,333,351,370,388,0,9,9,9,9,0,,,,,,,2,0,2,0,0,9,9,13,,,,,,,,,,,,num_3,0.9744899000506848,num_3,0.25,0.8,0.5499999999999999,0.8,21.01303,30.5644,return,2.1346756001003087,,,,,,,,,,,,,,,,,721,20,female,up_down_width,2024-11-01_14h39.01.979,exp1,2023.1.0,59.824677787542825,
,,,,,,,,,,,,,,,,3,9.5,10,10.5,0,0,0.5,0.1,0.4,1.4000000000000001,10,initial,36.05,342,361,379,0,0,9,9,9,0,0,,,,,,,2,0,2,0,0,10,10,0,,,,,,,,,,,,num_2,0.8593137001153082,num_2,0.35,1.0,0.7000000000000001,0.9,26.74385,34.38495,return,4.290862500201911,,,,,,,,,,,,,,,,,721,20,female,up_down_width,2024-11-01_14h39.01.979,exp1,2023.1.0,59.824677787542825,
,,,,,,,,,,,,,,,,4,9.25,9.75,10.25,10.75,0,0.5,0.1,0.4,1.9000000000000001,10,initial,36.05,333,351,370,388,0,9,9,9,9,0,,,,,,,2,0,2,0,0,11,11,40,,,,,,,,,,,,num_3,0.8506309001240879,num_3,0.55,1,0.55,0.8,21.01303,30.5644,return,3.3092197000514716,,,,,,,,,,,,,,,,,721,20,female,up_down_width,2024-11-01_14h39.01.979,exp1,2023.1.0,59.824677787542825,
,,,,,,,,,,,,,,,,4,9.25,9.75,10.25,10.75,0,0.5,0.1,0.4,1.9000000000000001,10,initial,36.05,333,351,370,388,0,9,9,9,9,0,,,,,,,2,0,2,0,0,12,12,36,,,,,,,,,,,,num_4,1.7088322001509368,num_4,0.55,0.9,0.55,0.7,21.01303,26.74385,return,3.2074815002270043,,,,,,,,,,,,,,,,,721,20,female,up_down_width,2024-11-01_14h39.01.979,exp1,2023.1.0,59.824677787542825,
,,,,,,,,,,,,,,,,4,9.25,9.75,10.25,10.75,0,0.5,0.1,0.4,1.9000000000000001,10,initial,36.05,333,351,370,388,0,9,9,9,9,0,,,,,,,2,0,2,0,0,13,13,38,,,,,,,,,,,,num_4,1.3639642000198364,num_4,0.25,0.9,0.65,0.9,24.83358,34.38495,return,2.45996390003711,,,,,,,,,,,,,,,,,721,20,female,up_down_width,2024-11-01_14h39.01.979,exp1,2023.1.0,59.824677787542825,
,,,,,,,,,,,,,,,,3,9.5,10,10.5,0,0,0.5,0.1,0.4,1.4000000000000001,10,initial,36.05,342,361,379,0,0,9,9,9,0,0,,,,,,,2,0,2,0,0,14,14,27,,,,,,,,,,,,num_2,0.9257289001252502,num_2,0.5,0.6,0.6000000000000001,0.8,22.9233,30.5644,return,7.620009199948981,,,,,,,,,,,,,,,,,721,20,female,up_down_width,2024-11-01_14h39.01.979,exp1,2023.1.0,59.824677787542825,
,,,,,,,,,,,,,,,,5,9,9.5,10,10.5,11,0.5,0.1,0.4,2.4,10,initial,36.05,324,342,361,379,397,9,9,9,9,9,,,,,,,2,0,2,0,0,15,15,26,,,,,,,,,,,,num_4,1.1556555998977274,num_4,0.35,0.4,0.5499999999999999,0.7,21.01303,26.74385,return,5.315986900124699,,,,,,,,,,,,,,,,,721,20,female,up_down_width,2024-11-01_14h39.01.979,exp1,2023.1.0,59.824677787542825,
,,,,,,,,,,,,,,,,5,9,9.5,10,10.5,11,0.5,0.1,0.4,2.4,10,initial,36.05,324,342,361,379,397,9,9,9,9,9,,,,,,,2,0,2,0,0,16,16,23,,,,,,,,,,,,num_5,1.0787963001057506,num_5,0.25,0.8,0.6,0.8,22.9233,30.5644,return,2.6823474999982864,,,,,,,,,,,,,,,,,721,20,female,up_down_width,2024-11-01_14h39.01.979,exp1,2023.1.0,59.824677787542825,
,,,,,,,,,,,,,,,,5,9,9.5,10,10.5,11,0.5,0.1,0.4,2.4,10,initial,36.05,324,342,361,379,397,9,9,9,9,9,,,,,,,2,0,2,0,0,17,17,48,,,,,,,,,,,,num_6,0.9149551999289542,num_6,0.35,1.3,0.5499999999999999,0.7,21.01303,26.74385,return,6.793675199849531,,,,,,,,,,,,,,,,,721,20,female,up_down_width,2024-11-01_14h39.01.979,exp1,2023.1.0,59.824677787542825,
,,,,,,,,,,,,,,,,3,9.5,10,10.5,0,0,0.5,0.1,0.4,1.4000000000000001,10,initial,36.05,342,361,379,0,0,9,9,9,0,0,,,,,,,2,0,2,0,0,18,18,5,,,,,,,,,,,,num_2,0.8713120999746025,num_2,0.5,1.4,0.6000000000000001,0.8,22.9233,30.5644,return,2.722206800011918,,,,,,,,,,,,,,,,,721,20,female,up_down_width,2024-11-01_14h39.01.979,exp1,2023.1.0,59.824677787542825,
,,,,,,,,,,,,,,,,4,9.25,9.75,10.25,10.75,0,0.5,0.1,0.4,1.9000000000000001,10,initial,36.05,333,351,370,388,0,9,9,9,9,0,,,,,,,2,0,2,0,0,19,19,16,,,,,,,,,,,,num_3,1.1827914998866618,num_3,0.55,1,0.55,0.75,21.01303,28.65413,return,3.1461398999672383,,,,,,,,,,,,,,,,,721,20,female,up_down_width,2024-11-01_14h39.01.979,exp1,2023.1.0,59.824677787542825,
,,,,,,,,,,,,,,,,5,9,9.5,10,10.5,11,0.5,0.1,0.4,2.4,10,initial,36.05,324,342,361,379,397,9,9,9,9,9,,,,,,,2,0,2,0,0,20,20,22,,,,,,,,,,,,num_6,1.5660036001354456,num_6,0.4,1.3,0.4,0.6,15.2822,22.9233,return,3.384578000055626,,,,,,,,,,,,,,,,,721,20,female,up_down_width,2024-11-01_14h39.01.979,exp1,2023.1.0,59.824677787542825,
,,,,,,,,,,,,,,,,4,9.25,9.75,10.25,10.75,0,0.5,0.1,0.4,1.9000000000000001,10,initial,36.05,333,351,370,388,0,9,9,9,9,0,,,,,,,2,0,2,0,0,21,21,17,,,,,,,,,,,,num_3,0.9533824000973254,num_3,0.35,0.6,0.49999999999999994,0.65,19.10275,24.83358,return,2.8455335998442024,,,,,,,,,,,,,,,,,721,20,female,up_down_width,2024-11-01_14h39.01.979,exp1,2023.1.0,59.824677787542825,
,,,,,,,,,,,,,,,,3,9.5,10,10.5,0,0,0.5,0.1,0.4,1.4000000000000001,10,initial,36.05,342,361,379,0,0,9,9,9,0,0,,,,,,,2,0,2,0,0,22,22,29,,,,,,,,,,,,num_2,0.8936024999711663,num_2,0.4,1.6,0.5,0.8,19.10275,30.5644,return,3.749494499992579,,,,,,,,,,,,,,,,,721,20,female,up_down_width,2024-11-01_14h39.01.979,exp1,2023.1.0,59.824677787542825,
,,,,,,,,,,,,,,,,4,9.25,9.75,10.25,10.75,0,0.5,0.1,0.4,1.9000000000000001,10,initial,36.05,333,351,370,388,0,9,9,9,9,0,,,,,,,2,0,2,0,0,23,23,37,,,,,,,,,,,,num_3,0.8063882000278682,num_3,0.45,0.6,0.45,0.6,17.19248,22.9233,return,0.8942286998499185,,,,,,,,,,,,,,,,,721,20,female,up_down_width,2024-11-01_14h39.01.979,exp1,2023.1.0,59.824677787542825,
,,,,,,,,,,,,,,,,5,9,9.5,10,10.5,11,0.5,0.1,0.4,2.4,10,initial,36.05,324,342,361,379,397,9,9,9,9,9,,,,,,,2,0,2,0,0,24,24,52,,,,,,,,,,,,num_6,2.7507285000756383,num_6,0.45,1.0,0.4,0.6,15.2822,22.9233,return,8.239111699862406,,,,,,,,,,,,,,,,,721,20,female,up_down_width,2024-11-01_14h39.01.979,exp1,2023.1.0,59.824677787542825,
,,,,,,,,,,,,,,,,4,9.25,9.75,10.25,10.75,0,0.5,0.1,0.4,1.9000000000000001,10,initial,36.05,333,351,370,388,0,9,9,9,9,0,,,,,,,2,0,2,0,0,25,25,44,,,,,,,,,,,,num_3,0.9748438999522477,num_3,0.2,0.6,0.35,0.6,13.37193,22.9233,return,3.9968047000002116,,,,,,,,,,,,,,,,,721,20,female,up_down_width,2024-11-01_14h39.01.979,exp1,2023.1.0,59.824677787542825,
,,,,,,,,,,,,,,,,3,9.5,10,10.5,0,0,0.5,0.1,0.4,1.4000000000000001,10,initial,36.05,342,361,379,0,0,9,9,9,0,0,,,,,,,2,0,2,0,0,26,26,8,,,,,,,,,,,,num_2,0.8575997999869287,num_2,0.45,1.0,0.6000000000000001,1.0,22.9233,38.2055,return,3.430560699896887,,,,,,,,,,,,,,,,,721,20,female,up_down_width,2024-11-01_14h39.01.979,exp1,2023.1.0,59.824677787542825,
,,,,,,,,,,,,,,,,4,9.25,9.75,10.25,10.75,0,0.5,0.1,0.4,1.9000000000000001,10,initial,36.05,333,351,370,388,0,9,9,9,9,0,,,,,,,2,0,2,0,0,27,27,42,,,,,,,,,,,,num_4,1.4228168001864105,num_4,0.4,0.8,0.45,0.7,17.19248,26.74385,return,4.480093899881467,,,,,,,,,,,,,,,,,721,20,female,up_down_width,2024-11-01_14h39.01.979,exp1,2023.1.0,59.824677787542825,
,,,,,,,,,,,,,,,,5,9,9.5,10,10.5,11,0.5,0.1,0.4,2.4,10,initial,36.05,324,342,361,379,397,9,9,9,9,9,,,,,,,2,0,2,0,0,28,28,20,,,,,,,,,,,,num_6,1.294679000042379,num_6,0.55,0.9,0.6000000000000001,0.8,22.9233,30.5644,return,4.392879100050777,,,,,,,,,,,,,,,,,721,20,female,up_down_width,2024-11-01_14h39.01.979,exp1,2023.1.0,59.824677787542825,
,,,,,,,,,,,,,,,,4,9.25,9.75,10.25,10.75,0,0.5,0.1,0.4,1.9000000000000001,10,initial,36.05,333,351,370,388,0,9,9,9,9,0,,,,,,,2,0,2,0,0,29,29,15,,,,,,,,,,,,num_3,0.9994012000970542,num_3,0.3,0.8,0.44999999999999996,0.8,17.19248,30.5644,return,2.2697632000781596,,,,,,,,,,,,,,,,,721,20,female,up_down_width,2024-11-01_14h39.01.979,exp1,2023.1.0,59.824677787542825,
,,,,,,,,,,,,,,,,3,9.5,10,10.5,0,0,0.5,0.1,0.4,1.4000000000000001,10,initial,36.05,342,361,379,0,0,9,9,9,0,0,,,,,,,2,0,2,0,0,30,30,32,,,,,,,,,,,,num_2,0.8112867001909763,num_2,0.45,1.0,0.45,0.6,17.19248,22.9233,return,2.3078321998473257,,,,,,,,,,,,,,,,,721,20,female,up_down_width,2024-11-01_14h39.01.979,exp1,2023.1.0,59.824677787542825,
,,,,,,,,,,,,,,,,3,9.5,10,10.5,0,0,0.5,0.1,0.4,1.4000000000000001,10,initial,36.05,342,361,379,0,0,9,9,9,0,0,,,,,,,2,0,2,0,0,31,31,28,,,,,,,,,,,,num_2,0.9767790001351386,num_2,0.55,1.4,0.55,0.8,21.01303,30.5644,return,1.9409977002069354,,,,,,,,,,,,,,,,,721,20,female,up_down_width,2024-11-01_14h39.01.979,exp1,2023.1.0,59.824677787542825,
,,,,,,,,,,,,,,,,3,9.5,10,10.5,0,0,0.5,0.1,0.4,1.4000000000000001,10,initial,36.05,342,361,379,0,0,9,9,9,0,0,,,,,,,2,0,2,0,0,32,32,33,,,,,,,,,,,,num_2,0.8344576000235975,num_2,0.25,0.6,0.39999999999999997,0.6,15.2822,22.9233,return,2.1771809000056237,,,,,,,,,,,,,,,,,721,20,female,up_down_width,2024-11-01_14h39.01.979,exp1,2023.1.0,59.824677787542825,
,,,,,,,,,,,,,,,,4,9.25,9.75,10.25,10.75,0,0.5,0.1,0.4,1.9000000000000001,10,initial,36.05,333,351,370,388,0,9,9,9,9,0,,,,,,,2,0,2,0,0,33,33,14,,,,,,,,,,,,num_4,1.0417442999314517,num_4,0.55,1.1,0.55,0.8,21.01303,30.5644,return,1.7912330999970436,,,,,,,,,,,,,,,,,721,20,female,up_down_width,2024-11-01_14h39.01.979,exp1,2023.1.0,59.824677787542825,
,,,,,,,,,,,,,,,,3,9.5,10,10.5,0,0,0.5,0.1,0.4,1.4000000000000001,10,initial,36.05,342,361,379,0,0,9,9,9,0,0,,,,,,,2,0,2,0,0,34,34,30,,,,,,,,,,,,num_2,1.0776094999164343,num_2,0.45,1.0,0.6000000000000001,0.8,22.9233,30.5644,return,2.0990397001150995,,,,,,,,,,,,,,,,,721,20,female,up_down_width,2024-11-01_14h39.01.979,exp1,2023.1.0,59.824677787542825,
,,,,,,,,,,,,,,,,5,9,9.5,10,10.5,11,0.5,0.1,0.4,2.4,10,initial,36.05,324,342,361,379,397,9,9,9,9,9,,,,,,,2,0,2,0,0,35,35,53,,,,,,,,,,,,num_5,1.3619871998671442,num_5,0.55,0.8,0.55,0.8,21.01303,30.5644,return,0.7925899000838399,,,,,,,,,,,,,,,,,721,20,female,up_down_width,2024-11-01_14h39.01.979,exp1,2023.1.0,59.824677787542825,
,,,,,,,,,,,,,,,,3,9.5,10,10.5,0,0,0.5,0.1,0.4,1.4000000000000001,10,initial,36.05,342,361,379,0,0,9,9,9,0,0,,,,,,,2,0,2,0,0,36,36,4,,,,,,,,,,,,num_2,0.804412700003013,num_2,0.35,1.0,0.44999999999999996,0.7,17.19248,26.74385,return,2.4142309001181275,,,,,,,,,,,,,,,,,721,20,female,up_down_width,2024-11-01_14h39.01.979,exp1,2023.1.0,59.824677787542825,
,,,,,,,,,,,,,,,,5,9,9.5,10,10.5,11,0.5,0.1,0.4,2.4,10,initial,36.05,324,342,361,379,397,9,9,9,9,9,,,,,,,2,0,2,0,0,37,37,46,,,,,,,,,,,,num_5,1.3556045999284834,num_5,0.2,0.8,0.5499999999999999,0.8,21.01303,30.5644,return,1.7936883000656962,,,,,,,,,,,,,,,,,721,20,female,up_down_width,2024-11-01_14h39.01.979,exp1,2023.1.0,59.824677787542825,
,,,,,,,,,,,,,,,,3,9.5,10,10.5,0,0,0.5,0.1,0.4,1.4000000000000001,10,initial,36.05,342,361,379,0,0,9,9,9,0,0,,,,,,,2,0,2,0,0,38,38,1,,,,,,,,,,,,num_2,0.9055526999291033,num_2,0.25,1.0,0.39999999999999997,0.7,15.2822,26.74385,return,1.8592096997890621,,,,,,,,,,,,,,,,,721,20,female,up_down_width,2024-11-01_14h39.01.979,exp1,2023.1.0,59.824677787542825,
,,,,,,,,,,,,,,,,4,9.25,9.75,10.25,10.75,0,0.5,0.1,0.4,1.9000000000000001,10,initial,36.05,333,351,370,388,0,9,9,9,9,0,,,,,,,2,0,2,0,0,39,39,43,,,,,,,,,,,,num_4,1.2933418001048267,num_4,0.5,1.0,0.6000000000000001,0.8,22.9233,30.5644,return,1.9857339998707175,,,,,,,,,,,,,,,,,721,20,female,up_down_width,2024-11-01_14h39.01.979,exp1,2023.1.0,59.824677787542825,
,,,,,,,,,,,,,,,,5,9,9.5,10,10.5,11,0.5,0.1,0.4,2.4,10,initial,36.05,324,342,361,379,397,9,9,9,9,9,,,,,,,2,0,2,0,0,40,40,50,,,,,,,,,,,,num_6,1.6892403000965714,num_6,0.5,1.2,0.6500000000000001,0.9,24.83358,34.38495,return,1.7970491000451148,,,,,,,,,,,,,,,,,721,20,female,up_down_width,2024-11-01_14h39.01.979,exp1,2023.1.0,59.824677787542825,
,,,,,,,,,,,,,,,,4,9.25,9.75,10.25,10.75,0,0.5,0.1,0.4,1.9000000000000001,10,initial,36.05,333,351,370,388,0,9,9,9,9,0,,,,,,,2,0,2,0,0,41,41,41,,,,,,,,,,,,num_6,1.2510336998384446,num_6,0.25,0.7,0.35,0.5,13.37193,19.10275,return,2.218384200008586,,,,,,,,,,,,,,,,,721,20,female,up_down_width,2024-11-01_14h39.01.979,exp1,2023.1.0,59.824677787542825,
,,,,,,,,,,,,,,,,3,9.5,10,10.5,0,0,0.5,0.1,0.4,1.4000000000000001,10,initial,36.05,342,361,379,0,0,9,9,9,0,0,,,,,,,2,0,2,0,0,42,42,34,,,,,,,,,,,,num_2,0.9207556000910699,num_2,0.3,1.2,0.49999999999999994,0.7,19.10275,26.74385,return,2.5420335000380874,,,,,,,,,,,,,,,,,721,20,female,up_down_width,2024-11-01_14h39.01.979,exp1,2023.1.0,59.824677787542825,
,,,,,,,,,,,,,,,,5,9,9.5,10,10.5,11,0.5,0.1,0.4,2.4,10,initial,36.05,324,342,361,379,397,9,9,9,9,9,,,,,,,2,0,2,0,0,43,43,51,,,,,,,,,,,,num_6,1.5787883999291807,num_6,0.3,1.0,0.49999999999999994,0.7,19.10275,26.74385,return,1.7813831001985818,,,,,,,,,,,,,,,,,721,20,female,up_down_width,2024-11-01_14h39.01.979,exp1,2023.1.0,59.824677787542825,
,,,,,,,,,,,,,,,,5,9,9.5,10,10.5,11,0.5,0.1,0.4,2.4,10,initial,36.05,324,342,361,379,397,9,9,9,9,9,,,,,,,2,0,2,0,0,44,44,47,,,,,,,,,,,,num_6,0.8844943000003695,num_6,0.45,0.9,0.5,0.8,19.10275,30.5644,return,1.8805023999884725,,,,,,,,,,,,,,,,,721,20,female,up_down_width,2024-11-01_14h39.01.979,exp1,2023.1.0,59.824677787542825,
,,,,,,,,,,,,,,,,4,9.25,9.75,10.25,10.75,0,0.5,0.1,0.4,1.9000000000000001,10,initial,36.05,333,351,370,388,0,9,9,9,9,0,,,,,,,2,0,2,0,0,45,45,39,,,,,,,,,,,,num_3,1.5798475998453796,num_3,0.25,0.4,0.35,0.6,13.37193,22.9233,return,2.726166900014505,,,,,,,,,,,,,,,,,721,20,female,up_down_width,2024-11-01_14h39.01.979,exp1,2023.1.0,59.824677787542825,
,,,,,,,,,,,,,,,,4,9.25,9.75,10.25,10.75,0,0.5,0.1,0.4,1.9000000000000001,10,initial,36.05,333,351,370,388,0,9,9,9,9,0,,,,,,,2,0,2,0,0,46,46,12,,,,,,,,,,,,num_4,1.0799767000135034,num_4,0.55,1.0,0.5,0.7,19.10275,26.74385,return,4.31639189994894,,,,,,,,,,,,,,,,,721,20,female,up_down_width,2024-11-01_14h39.01.979,exp1,2023.1.0,59.824677787542825,
,,,,,,,,,,,,,,,,5,9,9.5,10,10.5,11,0.5,0.1,0.4,2.4,10,initial,36.05,324,342,361,379,397,9,9,9,9,9,,,,,,,2,0,2,0,0,47,47,49,,,,,,,,,,,,num_7,3.794472899986431,num_7,0.2,1.2,0.5499999999999999,0.75,21.01303,28.65413,return,3.621480700094253,,,,,,,,,,,,,,,,,721,20,female,up_down_width,2024-11-01_14h39.01.979,exp1,2023.1.0,59.824677787542825,
,,,,,,,,,,,,,,,,5,9,9.5,10,10.5,11,0.5,0.1,0.4,2.4,10,initial,36.05,324,342,361,379,397,9,9,9,9,9,,,,,,,2,0,2,0,0,48,48,45,,,,,,,,,,,,num_5,1.3753985001239926,num_5,0.35,0.8,0.35,0.6,13.37193,22.9233,return,1.816084099933505,,,,,,,,,,,,,,,,,721,20,female,up_down_width,2024-11-01_14h39.01.979,exp1,2023.1.0,59.824677787542825,
,,,,,,,,,,,,,,,,5,9,9.5,10,10.5,11,0.5,0.1,0.4,2.4,10,initial,36.05,324,342,361,379,397,9,9,9,9,9,,,,,,,2,0,2,0,0,49,49,18,,,,,,,,,,,,num_6,1.5104302000254393,num_6,0.5,0.9,0.4,0.6,15.2822,22.9233,return,2.7878592999186367,,,,,,,,,,,,,,,,,721,20,female,up_down_width,2024-11-01_14h39.01.979,exp1,2023.1.0,59.824677787542825,
,,,,,,,,,,,,,,,,3,9.5,10,10.5,0,0,0.5,0.1,0.4,1.4000000000000001,10,initial,36.05,342,361,379,0,0,9,9,9,0,0,,,,,,,2,0,2,0,0,50,50,3,,,,,,,,,,,,num_2,1.1781240000855178,num_2,0.4,1.0,0.4,0.6,15.2822,22.9233,return,1.8302494999952614,,,,,,,,,,,,,,,,,721,20,female,up_down_width,2024-11-01_14h39.01.979,exp1,2023.1.0,59.824677787542825,
,,,,,,,,,,,,,,,,3,9.5,10,10.5,0,0,0.5,0.1,0.4,1.4000000000000001,10,initial,36.05,342,361,379,0,0,9,9,9,0,0,,,,,,,2,0,2,0,0,51,51,35,,,,,,,,,,,,num_2,0.7305702001322061,num_2,0.5,1.2,0.5,0.8,19.10275,30.5644,return,1.7669787001796067,,,,,,,,,,,,,,,,,721,20,female,up_down_width,2024-11-01_14h39.01.979,exp1,2023.1.0,59.824677787542825,
,,,,,,,,,,,,,,,,3,9.5,10,10.5,0,0,0.5,0.1,0.4,1.4000000000000001,10,initial,36.05,342,361,379,0,0,9,9,9,0,0,,,,,,,2,0,2,0,0,52,52,7,,,,,,,,,,,,num_2,1.726415100041777,num_2,0.4,0.6,0.4,0.6,15.2822,22.9233,return,1.3993571000173688,,,,,,,,,,,,,,,,,721,20,female,up_down_width,2024-11-01_14h39.01.979,exp1,2023.1.0,59.824677787542825,
,,,,,,,,,,,,,,,,3,9.5,10,10.5,0,0,0.5,0.1,0.4,1.4000000000000001,10,initial,36.05,342,361,379,0,0,9,9,9,0,0,,,,,,,2,0,2,0,0,53,53,2,,,,,,,,,,,,num_2,0.9638169000390917,num_2,0.3,1.6,0.44999999999999996,0.7,17.19248,26.74385,return,3.0680855999235064,,,,,,,,,,,,,,,,,721,20,female,up_down_width,2024-11-01_14h39.01.979,exp1,2023.1.0,59.824677787542825,
,,,,,,,,,,,,,,,,,,,,,,,,,,,,,,,,,,,,,,,,,,,,,2,0,2,0,,,,,,,,,,,,,,,,,,,,,,,,,,,,,1694.5310857999139,1694.5310857999139,1694.5310857999139,,,,,,,,,,,,721,20,female,up_down_width,2024-11-01_14h39.01.979,exp1,2023.1.0,59.824677787542825,
,,,,,,,,,,,,,,,,3,9.1,10,10.9,0,0,0.9,0.35,0.55,2.35,10,initial,36.05,328,361,393,0,0,9,9,9,0,0,,,,,,,3,0,3,0,0,0,0,6,,,,,,,,,,,,num_3,1.4897978999651968,num_3,0.2,0.7,0.44999999999999996,1.0,17.19248,38.2055,return,3.553232799982652,,,,,,,,,,,,,,,,,721,20,female,up_down_width,2024-11-01_14h39.01.979,exp1,2023.1.0,59.824677787542825,
,,,,,,,,,,,,,,,,3,9.1,10,10.9,0,0,0.9,0.35,0.55,2.35,10,initial,36.05,328,361,393,0,0,9,9,9,0,0,,,,,,,3,0,3,0,0,1,1,3,,,,,,,,,,,,num_3,1.2084991000592709,num_3,0.35,1.1,0.35,1.1,13.37193,42.02605,return,0.784644200000912,,,,,,,,,,,,,,,,,721,20,female,up_down_width,2024-11-01_14h39.01.979,exp1,2023.1.0,59.824677787542825,
,,,,,,,,,,,,,,,,4,8.65,9.55,10.45,11.35,0,0.9,0.35,0.55,3.25,10,initial,36.05,312,344,377,409,0,9,9,9,9,0,,,,,,,3,0,3,0,0,2,2,15,,,,,,,,,,,,num_4,0.9632031999062747,num_4,0.35,1.1,0.44999999999999996,1.2,17.19248,45.8466,return,2.1500248999800533,,,,,,,,,,,,,,,,,721,20,female,up_down_width,2024-11-01_14h39.01.979,exp1,2023.1.0,59.824677787542825,
,,,,,,,,,,,,,,,,5,8.2,9.1,10,10.9,11.8,0.9,0.35,0.55,4.15,10,initial,36.05,296,328,361,393,425,9,9,9,9,9,,,,,,,3,0,3,0,0,3,3,25,,,,,,,,,,,,num_5,0.8992089000530541,num_5,0.4,0.6,0.4,1.1,15.2822,42.02605,return,2.6619922001846135,,,,,,,,,,,,,,,,,721,20,female,up_down_width,2024-11-01_14h39.01.979,exp1,2023.1.0,59.824677787542825,
,,,,,,,,,,,,,,,,3,9.1,10,10.9,0,0,0.9,0.35,0.55,2.35,10,initial,36.05,328,361,393,0,0,9,9,9,0,0,,,,,,,3,0,3,0,0,4,4,35,,,,,,,,,,,,num_6,1.1321767000481486,num_6,0.3,1.1,0.49999999999999994,1.0,19.10275,38.2055,return,3.098070800071582,,,,,,,,,,,,,,,,,721,20,female,up_down_width,2024-11-01_14h39.01.979,exp1,2023.1.0,59.824677787542825,
,,,,,,,,,,,,,,,,3,9.1,10,10.9,0,0,0.9,0.35,0.55,2.35,10,initial,36.05,328,361,393,0,0,9,9,9,0,0,,,,,,,3,0,3,0,0,5,5,5,,,,,,,,,,,,num_3,1.1326667999383062,num_3,0.35,1.1,0.5499999999999999,1.1,21.01303,42.02605,return,2.55138499988243,,,,,,,,,,,,,,,,,721,20,female,up_down_width,2024-11-01_14h39.01.979,exp1,2023.1.0,59.824677787542825,
,,,,,,,,,,,,,,,,3,9.1,10,10.9,0,0,0.9,0.35,0.55,2.35,10,initial,36.05,328,361,393,0,0,9,9,9,0,0,,,,,,,3,0,3,0,0,6,6,29,,,,,,,,,,,,num_3,0.8728908998891711,num_3,0.5,1.2,0.5,1.2,19.10275,45.8466,return,0.7354414998553693,,,,,,,,,,,,,,,,,721,20,female,up_down_width,2024-11-01_14h39.01.979,exp1,2023.1.0,59.824677787542825,
,,,,,,,,,,,,,,,,4,8.65,9.55,10.45,11.35,0,0.9,0.35,0.55,3.25,10,initial,36.05,312,344,377,409,0,9,9,9,9,0,,,,,,,3,0,3,0,0,7,7,44,,,,,,,,,,,,num_6,1.6996484999544919,num_6,0.2,0.6,0.39999999999999997,0.9,15.2822,34.38495,return,3.1363791001494974,,,,,,,,,,,,,,,,,721,20,female,up_down_width,2024-11-01_14h39.01.979,exp1,2023.1.0,59.824677787542825,
,,,,,,,,,,,,,,,,4,8.65,9.55,10.45,11.35,0,0.9,0.35,0.55,3.25,10,initial,36.05,312,344,377,409,0,9,9,9,9,0,,,,,,,3,0,3,0,0,8,8,10,,,,,,,,,,,,num_4,1.193427300080657,num_4,0.45,0.9,0.55,1.3,21.01303,49.66716,return,1.9121380001306534,,,,,,,,,,,,,,,,,721,20,female,up_down_width,2024-11-01_14h39.01.979,exp1,2023.1.0,59.824677787542825,
,,,,,,,,,,,,,,,,5,8.2,9.1,10,10.9,11.8,0.9,0.35,0.55,4.15,10,initial,36.05,296,328,361,393,425,9,9,9,9,9,,,,,,,3,0,3,0,0,9,9,23,,,,,,,,,,,,num_5,1.39211199991405,num_5,0.3,0.5,0.44999999999999996,0.75,17.19248,28.65413,return,2.2154575001914054,,,,,,,,,,,,,,,,,721,20,female,up_down_width,2024-11-01_14h39.01.979,exp1,2023.1.0,59.824677787542825,
,,,,,,,,,,,,,,,,4,8.65,9.55,10.45,11.35,0,0.9,0.35,0.55,3.25,10,initial,36.05,312,344,377,409,0,9,9,9,9,0,,,,,,,3,0,3,0,0,10,10,13,,,,,,,,,,,,num_5,0.8644211001228541,num_5,0.4,1.0,0.45,0.9,17.19248,34.38495,return,1.862225699936971,,,,,,,,,,,,,,,,,721,20,female,up_down_width,2024-11-01_14h39.01.979,exp1,2023.1.0,59.824677787542825,
,,,,,,,,,,,,,,,,4,8.65,9.55,10.45,11.35,0,0.9,0.35,0.55,3.25,10,initial,36.05,312,344,377,409,0,9,9,9,9,0,,,,,,,3,0,3,0,0,11,11,38,,,,,,,,,,,,num_5,1.0345928999595344,num_5,0.2,0.3,0.44999999999999996,0.85,17.19248,32.47468,return,5.6755125999916345,,,,,,,,,,,,,,,,,721,20,female,up_down_width,2024-11-01_14h39.01.979,exp1,2023.1.0,59.824677787542825,
,,,,,,,,,,,,,,,,4,8.65,9.55,10.45,11.35,0,0.9,0.35,0.55,3.25,10,initial,36.05,312,344,377,409,0,9,9,9,9,0,,,,,,,3,0,3,0,0,12,12,12,,,,,,,,,,,,num_5,1.4705135999247432,num_5,0.2,1.0,0.44999999999999996,1.05,17.19248,40.11578,return,2.031195299932733,,,,,,,,,,,,,,,,,721,20,female,up_down_width,2024-11-01_14h39.01.979,exp1,2023.1.0,59.824677787542825,
,,,,,,,,,,,,,,,,3,9.1,10,10.9,0,0,0.9,0.35,0.55,2.35,10,initial,36.05,328,361,393,0,0,9,9,9,0,0,,,,,,,3,0,3,0,0,13,13,27,,,,,,,,,,,,num_4,1.7060706000775099,num_4,0.55,0.6,0.4,0.9,15.2822,34.38495,return,2.697147300001234,,,,,,,,,,,,,,,,,721,20,female,up_down_width,2024-11-01_14h39.01.979,exp1,2023.1.0,59.824677787542825,
,,,,,,,,,,,,,,,,3,9.1,10,10.9,0,0,0.9,0.35,0.55,2.35,10,initial,36.05,328,361,393,0,0,9,9,9,0,0,,,,,,,3,0,3,0,0,14,14,1,,,,,,,,,,,,num_3,1.3564756999257952,num_3,0.25,0.4,0.39999999999999997,0.7,15.2822,26.74385,return,6.637482000049204,,,,,,,,,,,,,,,,,721,20,female,up_down_width,2024-11-01_14h39.01.979,exp1,2023.1.0,59.824677787542825,
,,,,,,,,,,,,,,,,3,9.1,10,10.9,0,0,0.9,0.35,0.55,2.35,10,initial,36.05,328,361,393,0,0,9,9,9,0,0,,,,,,,3,0,3,0,0,15,15,34,,,,,,,,,,,,num_3,0.9192524999380112,num_3,0.5,1.2,0.6500000000000001,1.05,24.83358,40.11578,return,2.331452200189233,,,,,,,,,,,,,,,,,721,20,female,up_down_width,2024-11-01_14h39.01.979,exp1,2023.1.0,59.824677787542825,
,,,,,,,,,,,,,,,,3,9.1,10,10.9,0,0,0.9,0.35,0.55,2.35,10,initial,36.05,328,361,393,0,0,9,9,9,0,0,,,,,,,3,0,3,0,0,16,16,30,,,,,,,,,,,,num_3,1.1737069999799132,num_3,0.3,1.3,0.6,1.1,22.9233,42.02605,return,3.554293799912557,,,,,,,,,,,,,,,,,721,20,female,up_down_width,2024-11-01_14h39.01.979,exp1,2023.1.0,59.824677787542825,
,,,,,,,,,,,,,,,,5,8.2,9.1,10,10.9,11.8,0.9,0.35,0.55,4.15,10,initial,36.05,296,328,361,393,425,9,9,9,9,9,,,,,,,3,0,3,0,0,17,17,53,,,,,,,,,,,,num_7,1.5685535001102835,num_7,0.3,1.2,0.7000000000000001,1.2,26.74385,45.8466,return,3.035264400066808,,,,,,,,,,,,,,,,,721,20,female,up_down_width,2024-11-01_14h39.01.979,exp1,2023.1.0,59.824677787542825,
,,,,,,,,,,,,,,,,5,8.2,9.1,10,10.9,11.8,0.9,0.35,0.55,4.15,10,initial,36.05,296,328,361,393,425,9,9,9,9,9,,,,,,,3,0,3,0,0,18,18,21,,,,,,,,,,,,num_6,2.3516863000113517,num_6,0.5,1.2,0.5,1.2,19.10275,45.8466,return,1.2485887999646366,,,,,,,,,,,,,,,,,721,20,female,up_down_width,2024-11-01_14h39.01.979,exp1,2023.1.0,59.824677787542825,
,,,,,,,,,,,,,,,,3,9.1,10,10.9,0,0,0.9,0.35,0.55,2.35,10,initial,36.05,328,361,393,0,0,9,9,9,0,0,,,,,,,3,0,3,0,0,19,19,8,,,,,,,,,,,,num_3,1.2403686000034213,num_3,0.55,0.9,0.45,0.9,17.19248,34.38495,return,2.308824900072068,,,,,,,,,,,,,,,,,721,20,female,up_down_width,2024-11-01_14h39.01.979,exp1,2023.1.0,59.824677787542825,
,,,,,,,,,,,,,,,,4,8.65,9.55,10.45,11.35,0,0.9,0.35,0.55,3.25,10,initial,36.05,312,344,377,409,0,9,9,9,9,0,,,,,,,3,0,3,0,0,20,20,40,,,,,,,,,,,,num_4,0.9455266001168638,num_4,0.4,1.1,0.4,1.1,15.2822,42.02605,return,0.6995424998458475,,,,,,,,,,,,,,,,,721,20,female,up_down_width,2024-11-01_14h39.01.979,exp1,2023.1.0,59.824677787542825,
,,,,,,,,,,,,,,,,5,8.2,9.1,10,10.9,11.8,0.9,0.35,0.55,4.15,10,initial,36.05,296,328,361,393,425,9,9,9,9,9,,,,,,,3,0,3,0,0,21,21,45,,,,,,,,,,,,num_6,2.143696199869737,num_6,0.3,1.2,0.35,0.8,13.37193,30.5644,return,2.538338900078088,,,,,,,,,,,,,,,,,721,20,female,up_down_width,2024-11-01_14h39.01.979,exp1,2023.1.0,59.824677787542825,
,,,,,,,,,,,,,,,,5,8.2,9.1,10,10.9,11.8,0.9,0.35,0.55,4.15,10,initial,36.05,296,328,361,393,425,9,9,9,9,9,,,,,,,3,0,3,0,0,22,22,26,,,,,,,,,,,,num_5,0.827538900077343,num_5,0.5,1.2,0.5,1.2,19.10275,45.8466,return,0.8248629998415709,,,,,,,,,,,,,,,,,721,20,female,up_down_width,2024-11-01_14h39.01.979,exp1,2023.1.0,59.824677787542825,
,,,,,,,,,,,,,,,,4,8.65,9.55,10.45,11.35,0,0.9,0.35,0.55,3.25,10,initial,36.05,312,344,377,409,0,9,9,9,9,0,,,,,,,3,0,3,0,0,23,23,41,,,,,,,,,,,,num_3,1.3388046000618488,num_3,0.45,0.8,0.45,1.05,17.19248,40.11578,return,3.4565307998564094,,,,,,,,,,,,,,,,,721,20,female,up_down_width,2024-11-01_14h39.01.979,exp1,2023.1.0,59.824677787542825,
,,,,,,,,,,,,,,,,5,8.2,9.1,10,10.9,11.8,0.9,0.35,0.55,4.15,10,initial,36.05,296,328,361,393,425,9,9,9,9,9,,,,,,,3,0,3,0,0,24,24,19,,,,,,,,,,,,num_5,1.245038399938494,num_5,0.5,1.0,0.5,1.0,19.10275,38.2055,return,2.597552699968219,,,,,,,,,,,,,,,,,721,20,female,up_down_width,2024-11-01_14h39.01.979,exp1,2023.1.0,59.824677787542825,
,,,,,,,,,,,,,,,,5,8.2,9.1,10,10.9,11.8,0.9,0.35,0.55,4.15,10,initial,36.05,296,328,361,393,425,9,9,9,9,9,,,,,,,3,0,3,0,0,25,25,18,,,,,,,,,,,,num_5,1.5322549999691546,num_5,0.25,1.2,0.49999999999999994,1.05,19.10275,40.11578,return,2.4455015999265015,,,,,,,,,,,,,,,,,721,20,female,up_down_width,2024-11-01_14h39.01.979,exp1,2023.1.0,59.824677787542825,
,,,,,,,,,,,,,,,,3,9.1,10,10.9,0,0,0.9,0.35,0.55,2.35,10,initial,36.05,328,361,393,0,0,9,9,9,0,0,,,,,,,3,0,3,0,0,26,26,33,,,,,,,,,,,,num_3,1.5932702000718564,num_3,0.35,0.9,0.44999999999999996,0.95,17.19248,36.29523,return,2.8515083000529557,,,,,,,,,,,,,,,,,721,20,female,up_down_width,2024-11-01_14h39.01.979,exp1,2023.1.0,59.824677787542825,
,,,,,,,,,,,,,,,,5,8.2,9.1,10,10.9,11.8,0.9,0.35,0.55,4.15,10,initial,36.05,296,328,361,393,425,9,9,9,9,9,,,,,,,3,0,3,0,0,27,27,22,,,,,,,,,,,,num_7,0.9688426000066102,num_7,0.3,0.3,0.39999999999999997,0.85,15.2822,32.47468,return,5.056495500029996,,,,,,,,,,,,,,,,,721,20,female,up_down_width,2024-11-01_14h39.01.979,exp1,2023.1.0,59.824677787542825,
,,,,,,,,,,,,,,,,4,8.65,9.55,10.45,11.35,0,0.9,0.35,0.55,3.25,10,initial,36.05,312,344,377,409,0,9,9,9,9,0,,,,,,,3,0,3,0,0,28,28,37,,,,,,,,,,,,num_6,1.9179551999550313,num_6,0.45,1.2,0.45,1.0,17.19248,38.2055,return,2.5425337001215667,,,,,,,,,,,,,,,,,721,20,female,up_down_width,2024-11-01_14h39.01.979,exp1,2023.1.0,59.824677787542825,
,,,,,,,,,,,,,,,,3,9.1,10,10.9,0,0,0.9,0.35,0.55,2.35,10,initial,36.05,328,361,393,0,0,9,9,9,0,0,,,,,,,3,0,3,0,0,29,29,32,,,,,,,,,,,,num_3,1.1475158999674022,num_3,0.45,1.3,0.45,1.05,17.19248,40.11578,return,2.4127364000305533,,,,,,,,,,,,,,,,,721,20,female,up_down_width,2024-11-01_14h39.01.979,exp1,2023.1.0,59.824677787542825,
,,,,,,,,,,,,,,,,5,8.2,9.1,10,10.9,11.8,0.9,0.35,0.55,4.15,10,initial,36.05,296,328,361,393,425,9,9,9,9,9,,,,,,,3,0,3,0,0,30,30,20,,,,,,,,,,,,num_6,3.0700587001629174,num_6,0.4,1.1,0.4,0.9,15.2822,34.38495,return,1.5788899001199752,,,,,,,,,,,,,,,,,721,20,female,up_down_width,2024-11-01_14h39.01.979,exp1,2023.1.0,59.824677787542825,
,,,,,,,,,,,,,,,,3,9.1,10,10.9,0,0,0.9,0.35,0.55,2.35,10,initial,36.05,328,361,393,0,0,9,9,9,0,0,,,,,,,3,0,3,0,0,31,31,4,,,,,,,,,,,,num_3,1.0931794000789523,num_3,0.5,1.3,0.5,1.0,19.10275,38.2055,return,2.5490335000213236,,,,,,,,,,,,,,,,,721,20,female,up_down_width,2024-11-01_14h39.01.979,exp1,2023.1.0,59.824677787542825,
,,,,,,,,,,,,,,,,5,8.2,9.1,10,10.9,11.8,0.9,0.35,0.55,4.15,10,initial,36.05,296,328,361,393,425,9,9,9,9,9,,,,,,,3,0,3,0,0,32,32,51,,,,,,,,,,,,num_6,1.803817299893126,num_6,0.5,1.3,0.45,0.9,17.19248,34.38495,return,3.2987251000013202,,,,,,,,,,,,,,,,,721,20,female,up_down_width,2024-11-01_14h39.01.979,exp1,2023.1.0,59.824677787542825,
,,,,,,,,,,,,,,,,3,9.1,10,10.9,0,0,0.9,0.35,0.55,2.35,10,initial,36.05,328,361,393,0,0,9,9,9,0,0,,,,,,,3,0,3,0,0,33,33,28,,,,,,,,,,,,num_3,0.8658449000213295,num_3,0.25,0.8,0.39999999999999997,0.75,15.2822,28.65413,return,1.9511458999477327,,,,,,,,,,,,,,,,,721,20,female,up_down_width,2024-11-01_14h39.01.979,exp1,2023.1.0,59.824677787542825,
,,,,,,,,,,,,,,,,5,8.2,9.1,10,10.9,11.8,0.9,0.35,0.55,4.15,10,initial,36.05,296,328,361,393,425,9,9,9,9,9,,,,,,,3,0,3,0,0,34,34,24,,,,,,,,,,,,num_6,1.361386600183323,num_6,0.2,0.6,0.44999999999999996,0.8,17.19248,30.5644,return,2.7093446000944823,,,,,,,,,,,,,,,,,721,20,female,up_down_width,2024-11-01_14h39.01.979,exp1,2023.1.0,59.824677787542825,
,,,,,,,,,,,,,,,,4,8.65,9.55,10.45,11.35,0,0.9,0.35,0.55,3.25,10,initial,36.05,312,344,377,409,0,9,9,9,9,0,,,,,,,3,0,3,0,0,35,35,9,,,,,,,,,,,,num_5,1.835163400042802,num_5,0.35,0.6,0.3,0.7,11.46165,26.74385,return,3.1648210000712425,,,,,,,,,,,,,,,,,721,20,female,up_down_width,2024-11-01_14h39.01.979,exp1,2023.1.0,59.824677787542825,
,,,,,,,,,,,,,,,,4,8.65,9.55,10.45,11.35,0,0.9,0.35,0.55,3.25,10,initial,36.05,312,344,377,409,0,9,9,9,9,0,,,,,,,3,0,3,0,0,36,36,43,,,,,,,,,,,,num_6,1.0286760998424143,num_6,0.5,0.6,0.5,0.9,19.10275,34.38495,return,3.306625299854204,,,,,,,,,,,,,,,,,721,20,female,up_down_width,2024-11-01_14h39.01.979,exp1,2023.1.0,59.824677787542825,
,,,,,,,,,,,,,,,,5,8.2,9.1,10,10.9,11.8,0.9,0.35,0.55,4.15,10,initial,36.05,296,328,361,393,425,9,9,9,9,9,,,,,,,3,0,3,0,0,37,37,46,,,,,,,,,,,,num_6,1.056089400080964,num_6,0.25,0.3,0.49999999999999994,0.8,19.10275,30.5644,return,2.8039984998758882,,,,,,,,,,,,,,,,,721,20,female,up_down_width,2024-11-01_14h39.01.979,exp1,2023.1.0,59.824677787542825,
,,,,,,,,,,,,,,,,5,8.2,9.1,10,10.9,11.8,0.9,0.35,0.55,4.15,10,initial,36.05,296,328,361,393,425,9,9,9,9,9,,,,,,,3,0,3,0,0,38,38,52,,,,,,,,,,,,num_6,1.0340230001602322,num_6,0.35,0.8,0.39999999999999997,0.8,15.2822,30.5644,return,2.28388229990378,,,,,,,,,,,,,,,,,721,20,female,up_down_width,2024-11-01_14h39.01.979,exp1,2023.1.0,59.824677787542825,
,,,,,,,,,,,,,,,,3,9.1,10,10.9,0,0,0.9,0.35,0.55,2.35,10,initial,36.05,328,361,393,0,0,9,9,9,0,0,,,,,,,3,0,3,0,0,39,39,7,,,,,,,,,,,,num_3,0.8074073002208024,num_3,0.25,0.7,0.39999999999999997,0.7,15.2822,26.74385,return,1.680774400010705,,,,,,,,,,,,,,,,,721,20,female,up_down_width,2024-11-01_14h39.01.979,exp1,2023.1.0,59.824677787542825,
,,,,,,,,,,,,,,,,5,8.2,9.1,10,10.9,11.8,0.9,0.35,0.55,4.15,10,initial,36.05,296,328,361,393,425,9,9,9,9,9,,,,,,,3,0,3,0,0,40,40,50,,,,,,,,,,,,num_6,1.5352628999389708,num_6,0.3,0.7,0.3,0.7,11.46165,26.74385,return,1.329995899926871,,,,,,,,,,,,,,,,,721,20,female,up_down_width,2024-11-01_14h39.01.979,exp1,2023.1.0,59.824677787542825,
,,,,,,,,,,,,,,,,5,8.2,9.1,10,10.9,11.8,0.9,0.35,0.55,4.15,10,initial,36.05,296,328,361,393,425,9,9,9,9,9,,,,,,,3,0,3,0,0,41,41,48,,,,,,,,,,,,num_6,0.9579811000730842,num_6,0.25,1.2,0.44999999999999996,0.9,17.19248,34.38495,return,3.2685001001227647,,,,,,,,,,,,,,,,,721,20,female,up_down_width,2024-11-01_14h39.01.979,exp1,2023.1.0,59.824677787542825,
,,,,,,,,,,,,,,,,4,8.65,9.55,10.45,11.35,0,0.9,0.35,0.55,3.25,10,initial,36.05,312,344,377,409,0,9,9,9,9,0,,,,,,,3,0,3,0,0,42,42,17,,,,,,,,,,,,num_4,0.9405500998254865,num_4,0.35,1.2,0.35,0.7,13.37193,26.74385,return,1.7344343001022935,,,,,,,,,,,,,,,,,721,20,female,up_down_width,2024-11-01_14h39.01.979,exp1,2023.1.0,59.824677787542825,
,,,,,,,,,,,,,,,,4,8.65,9.55,10.45,11.35,0,0.9,0.35,0.55,3.25,10,initial,36.05,312,344,377,409,0,9,9,9,9,0,,,,,,,3,0,3,0,0,43,43,36,,,,,,,,,,,,num_4,0.8297808999195695,num_4,0.3,0.6,0.44999999999999996,1.0,17.19248,38.2055,return,1.8308654001448303,,,,,,,,,,,,,,,,,721,20,female,up_down_width,2024-11-01_14h39.01.979,exp1,2023.1.0,59.824677787542825,
,,,,,,,,,,,,,,,,3,9.1,10,10.9,0,0,0.9,0.35,0.55,2.35,10,initial,36.05,328,361,393,0,0,9,9,9,0,0,,,,,,,3,0,3,0,0,44,44,31,,,,,,,,,,,,num_2,1.0659914000425488,num_2,0.25,1.0,0.3,0.6,11.46165,22.9233,return,2.840271499939263,,,,,,,,,,,,,,,,,721,20,female,up_down_width,2024-11-01_14h39.01.979,exp1,2023.1.0,59.824677787542825,
,,,,,,,,,,,,,,,,4,8.65,9.55,10.45,11.35,0,0.9,0.35,0.55,3.25,10,initial,36.05,312,344,377,409,0,9,9,9,9,0,,,,,,,3,0,3,0,0,45,45,42,,,,,,,,,,,,num_4,0.9640114000067115,num_4,0.4,0.8,0.4,0.8,15.2822,30.5644,return,1.2894028001464903,,,,,,,,,,,,,,,,,721,20,female,up_down_width,2024-11-01_14h39.01.979,exp1,2023.1.0,59.824677787542825,
,,,,,,,,,,,,,,,,4,8.65,9.55,10.45,11.35,0,0.9,0.35,0.55,3.25,10,initial,36.05,312,344,377,409,0,9,9,9,9,0,,,,,,,3,0,3,0,0,46,46,14,,,,,,,,,,,,num_4,0.8246553998906165,num_4,0.35,1.3,0.49999999999999994,1.0,19.10275,38.2055,return,2.102782499976456,,,,,,,,,,,,,,,,,721,20,female,up_down_width,2024-11-01_14h39.01.979,exp1,2023.1.0,59.824677787542825,
,,,,,,,,,,,,,,,,3,9.1,10,10.9,0,0,0.9,0.35,0.55,2.35,10,initial,36.05,328,361,393,0,0,9,9,9,0,0,,,,,,,3,0,3,0,0,47,47,0,,,,,,,,,,,,num_3,0.9867304998915642,num_3,0.45,0.6,0.45,0.75,17.19248,28.65413,return,1.2991794999688864,,,,,,,,,,,,,,,,,721,20,female,up_down_width,2024-11-01_14h39.01.979,exp1,2023.1.0,59.824677787542825,
,,,,,,,,,,,,,,,,4,8.65,9.55,10.45,11.35,0,0.9,0.35,0.55,3.25,10,initial,36.05,312,344,377,409,0,9,9,9,9,0,,,,,,,3,0,3,0,0,48,48,16,,,,,,,,,,,,num_5,1.1893994000274688,num_5,0.25,1.2,0.44999999999999996,0.95,17.19248,36.29523,return,2.5937266000546515,,,,,,,,,,,,,,,,,721,20,female,up_down_width,2024-11-01_14h39.01.979,exp1,2023.1.0,59.824677787542825,
,,,,,,,,,,,,,,,,4,8.65,9.55,10.45,11.35,0,0.9,0.35,0.55,3.25,10,initial,36.05,312,344,377,409,0,9,9,9,9,0,,,,,,,3,0,3,0,0,49,49,39,,,,,,,,,,,,num_5,0.9706170000135899,num_5,0.5,0.8,0.5,0.85,19.10275,32.47468,return,1.518598300172016,,,,,,,,,,,,,,,,,721,20,female,up_down_width,2024-11-01_14h39.01.979,exp1,2023.1.0,59.824677787542825,
,,,,,,,,,,,,,,,,5,8.2,9.1,10,10.9,11.8,0.9,0.35,0.55,4.15,10,initial,36.05,296,328,361,393,425,9,9,9,9,9,,,,,,,3,0,3,0,0,50,50,47,,,,,,,,,,,,num_6,0.9465722001623362,num_6,0.3,1.1,0.5499999999999999,0.8,21.01303,30.5644,return,2.565593400038779,,,,,,,,,,,,,,,,,721,20,female,up_down_width,2024-11-01_14h39.01.979,exp1,2023.1.0,59.824677787542825,
,,,,,,,,,,,,,,,,5,8.2,9.1,10,10.9,11.8,0.9,0.35,0.55,4.15,10,initial,36.05,296,328,361,393,425,9,9,9,9,9,,,,,,,3,0,3,0,0,51,51,49,,,,,,,,,,,,num_6,1.085084600141272,num_6,0.55,0.9,0.45,0.9,17.19248,34.38495,return,2.973643699893728,,,,,,,,,,,,,,,,,721,20,female,up_down_width,2024-11-01_14h39.01.979,exp1,2023.1.0,59.824677787542825,
,,,,,,,,,,,,,,,,4,8.65,9.55,10.45,11.35,0,0.9,0.35,0.55,3.25,10,initial,36.05,312,344,377,409,0,9,9,9,9,0,,,,,,,3,0,3,0,0,52,52,11,,,,,,,,,,,,num_6,0.8014408000744879,num_6,0.2,1.0,0.44999999999999996,0.8,17.19248,30.5644,return,2.6710167001001537,,,,,,,,,,,,,,,,,721,20,female,up_down_width,2024-11-01_14h39.01.979,exp1,2023.1.0,59.824677787542825,
,,,,,,,,,,,,,,,,3,9.1,10,10.9,0,0,0.9,0.35,0.55,2.35,10,initial,36.05,328,361,393,0,0,9,9,9,0,0,,,,,,,3,0,3,0,0,53,53,2,,,,,,,,,,,,num_3,1.1979418999981135,num_3,0.3,0.4,0.39999999999999997,0.65,15.2822,24.83358,return,2.2480871002189815,,,,,,,,,,,,,,,,,721,20,female,up_down_width,2024-11-01_14h39.01.979,exp1,2023.1.0,59.824677787542825,
,,,,,,,,,,,,,,,,,,,,,,,,,,,,,,,,,,,,,,,,,,,,,3,0,3,0,,,,,,,,,,,,,,,,,,,,,,,,,,,,,2011.6972155999392,2011.6972155999392,2011.6972155999392,,,,,,,,,,,,721,20,female,up_down_width,2024-11-01_14h39.01.979,exp1,2023.1.0,59.824677787542825,
,,,,,,,,,,,,,,,,5,9,9.5,10,10.5,11,0.5,0.25,0.25,2.25,10,initial,36.05,324,342,361,379,397,9,9,9,9,9,,,,,,,4,0,4,0,0,0,0,24,,,,,,,,,,,,num_5,1.917951500043273,num_5,0.3,1.3,0.15000000000000002,0.65,5.73083,24.83358,return,7.919940100051463,,,,,,,,,,,,,,,,,721,20,female,up_down_width,2024-11-01_14h39.01.979,exp1,2023.1.0,59.824677787542825,
,,,,,,,,,,,,,,,,5,9,9.5,10,10.5,11,0.5,0.25,0.25,2.25,10,initial,36.05,324,342,361,379,397,9,9,9,9,9,,,,,,,4,0,4,0,0,1,1,26,,,,,,,,,,,,num_5,1.1110444001387805,num_5,0.5,1.1,0.15000000000000008,0.6,5.73083,22.9233,return,4.3898928998969495,,,,,,,,,,,,,,,,,721,20,female,up_down_width,2024-11-01_14h39.01.979,exp1,2023.1.0,59.824677787542825,
,,,,,,,,,,,,,,,,4,9.25,9.75,10.25,10.75,0,0.5,0.25,0.25,1.75,10,initial,36.05,333,351,370,388,0,9,9,9,9,0,,,,,,,4,0,4,0,0,2,2,15,,,,,,,,,,,,num_4,1.3567490000277758,num_4,0.35,0.9,0.15000000000000002,0.6,5.73083,22.9233,return,2.5491285999305546,,,,,,,,,,,,,,,,,721,20,female,up_down_width,2024-11-01_14h39.01.979,exp1,2023.1.0,59.824677787542825,
,,,,,,,,,,,,,,,,3,9.5,10,10.5,0,0,0.5,0.25,0.25,1.25,10,initial,36.05,342,361,379,0,0,9,9,9,0,0,,,,,,,4,0,4,0,0,3,3,28,,,,,,,,,,,,num_2,0.8253727999981493,num_2,0.3,1.0,0.15000000000000002,0.6,5.73083,22.9233,return,2.134556000120938,,,,,,,,,,,,,,,,,721,20,female,up_down_width,2024-11-01_14h39.01.979,exp1,2023.1.0,59.824677787542825,
,,,,,,,,,,,,,,,,3,9.5,10,10.5,0,0,0.5,0.25,0.25,1.25,10,initial,36.05,342,361,379,0,0,9,9,9,0,0,,,,,,,4,0,4,0,0,4,4,4,,,,,,,,,,,,num_2,0.805107600055635,num_2,0.35,0.8,0.15000000000000002,0.4,5.73083,15.2822,return,3.1679628000129014,,,,,,,,,,,,,,,,,721,20,female,up_down_width,2024-11-01_14h39.01.979,exp1,2023.1.0,59.824677787542825,
,,,,,,,,,,,,,,,,5,9,9.5,10,10.5,11,0.5,0.25,0.25,2.25,10,initial,36.05,324,342,361,379,397,9,9,9,9,9,,,,,,,4,0,4,0,0,5,5,19,,,,,,,,,,,,num_4,1.1174969000276178,num_4,0.55,0.6,0.10000000000000007,0.6,3.82055,22.9233,return,2.3154538001399487,,,,,,,,,,,,,,,,,721,20,female,up_down_width,2024-11-01_14h39.01.979,exp1,2023.1.0,59.824677787542825,
,,,,,,,,,,,,,,,,3,9.5,10,10.5,0,0,0.5,0.25,0.25,1.25,10,initial,36.05,342,361,379,0,0,9,9,9,0,0,,,,,,,4,0,4,0,0,6,6,34,,,,,,,,,,,,num_2,0.7674184001516551,num_2,0.4,1.2,0.25000000000000006,0.5,9.55138,19.10275,return,2.5762072999496013,,,,,,,,,,,,,,,,,721,20,female,up_down_width,2024-11-01_14h39.01.979,exp1,2023.1.0,59.824677787542825,
,,,,,,,,,,,,,,,,5,9,9.5,10,10.5,11,0.5,0.25,0.25,2.25,10,initial,36.05,324,342,361,379,397,9,9,9,9,9,,,,,,,4,0,4,0,0,7,7,49,,,,,,,,,,,,num_5,1.6987792002037168,num_5,0.35,1.3,0.10000000000000002,0.35,3.82055,13.37193,return,4.152311600046232,,,,,,,,,,,,,,,,,721,20,female,up_down_width,2024-11-01_14h39.01.979,exp1,2023.1.0,59.824677787542825,
,,,,,,,,,,,,,,,,3,9.5,10,10.5,0,0,0.5,0.25,0.25,1.25,10,initial,36.05,342,361,379,0,0,9,9,9,0,0,,,,,,,4,0,4,0,0,8,8,5,,,,,,,,,,,,num_2,0.9128646999597549,num_2,0.55,1.2,0.30000000000000004,0.9,11.46165,34.38495,return,2.6178454998880625,,,,,,,,,,,,,,,,,721,20,female,up_down_width,2024-11-01_14h39.01.979,exp1,2023.1.0,59.824677787542825,
,,,,,,,,,,,,,,,,5,9,9.5,10,10.5,11,0.5,0.25,0.25,2.25,10,initial,36.05,324,342,361,379,397,9,9,9,9,9,,,,,,,4,0,4,0,0,9,9,25,,,,,,,,,,,,num_6,2.5078294998966157,num_6,0.3,1.1,0.15000000000000002,0.5,5.73083,19.10275,return,4.03783669997938,,,,,,,,,,,,,,,,,721,20,female,up_down_width,2024-11-01_14h39.01.979,exp1,2023.1.0,59.824677787542825,
,,,,,,,,,,,,,,,,4,9.25,9.75,10.25,10.75,0,0.5,0.25,0.25,1.75,10,initial,36.05,333,351,370,388,0,9,9,9,9,0,,,,,,,4,0,4,0,0,10,10,43,,,,,,,,,,,,num_4,1.5896938999649137,num_4,0.5,1.1,0.10000000000000007,0.6,3.82055,22.9233,return,3.37411139998585,,,,,,,,,,,,,,,,,721,20,female,up_down_width,2024-11-01_14h39.01.979,exp1,2023.1.0,59.824677787542825,
,,,,,,,,,,,,,,,,5,9,9.5,10,10.5,11,0.5,0.25,0.25,2.25,10,initial,36.05,324,342,361,379,397,9,9,9,9,9,,,,,,,4,0,4,0,0,11,11,21,,,,,,,,,,,,num_6,1.42346250009723,num_6,0.25,0.6,0.15000000000000002,0.5,5.73083,19.10275,return,2.19713250012137,,,,,,,,,,,,,,,,,721,20,female,up_down_width,2024-11-01_14h39.01.979,exp1,2023.1.0,59.824677787542825,
,,,,,,,,,,,,,,,,5,9,9.5,10,10.5,11,0.5,0.25,0.25,2.25,10,initial,36.05,324,342,361,379,397,9,9,9,9,9,,,,,,,4,0,4,0,0,12,12,52,,,,,,,,,,,,num_6,1.3494853999000043,num_6,0.3,0.5,0.15000000000000002,0.5,5.73083,19.10275,return,1.7078370999079198,,,,,,,,,,,,,,,,,721,20,female,up_down_width,2024-11-01_14h39.01.979,exp1,2023.1.0,59.824677787542825,
,,,,,,,,,,,,,,,,4,9.25,9.75,10.25,10.75,0,0.5,0.25,0.25,1.75,10,initial,36.05,333,351,370,388,0,9,9,9,9,0,,,,,,,4,0,4,0,0,13,13,39,,,,,,,,,,,,num_5,1.8839618999045342,num_5,0.25,0.4,0.10000000000000002,0.35,3.82055,13.37193,return,3.3735422999598086,,,,,,,,,,,,,,,,,721,20,female,up_down_width,2024-11-01_14h39.01.979,exp1,2023.1.0,59.824677787542825,
,,,,,,,,,,,,,,,,4,9.25,9.75,10.25,10.75,0,0.5,0.25,0.25,1.75,10,initial,36.05,333,351,370,388,0,9,9,9,9,0,,,,,,,4,0,4,0,0,14,14,37,,,,,,,,,,,,num_4,0.9179853000678122,num_4,0.55,1.1,0.25000000000000006,0.6,9.55138,22.9233,return,3.934987499844283,,,,,,,,,,,,,,,,,721,20,female,up_down_width,2024-11-01_14h39.01.979,exp1,2023.1.0,59.824677787542825,
,,,,,,,,,,,,,,,,5,9,9.5,10,10.5,11,0.5,0.25,0.25,2.25,10,initial,36.05,324,342,361,379,397,9,9,9,9,9,,,,,,,4,0,4,0,0,15,15,47,,,,,,,,,,,,num_5,0.9850975999142975,num_5,0.25,0.7,0.25,0.7,9.55138,26.74385,return,1.500139300012961,,,,,,,,,,,,,,,,,721,20,female,up_down_width,2024-11-01_14h39.01.979,exp1,2023.1.0,59.824677787542825,
,,,,,,,,,,,,,,,,3,9.5,10,10.5,0,0,0.5,0.25,0.25,1.25,10,initial,36.05,342,361,379,0,0,9,9,9,0,0,,,,,,,4,0,4,0,0,16,16,0,,,,,,,,,,,,num_2,0.7821927000768483,num_2,0.4,0.6,0.25000000000000006,0.7,9.55138,26.74385,return,6.472796800080687,,,,,,,,,,,,,,,,,721,20,female,up_down_width,2024-11-01_14h39.01.979,exp1,2023.1.0,59.824677787542825,
,,,,,,,,,,,,,,,,4,9.25,9.75,10.25,10.75,0,0.5,0.25,0.25,1.75,10,initial,36.05,333,351,370,388,0,9,9,9,9,0,,,,,,,4,0,4,0,0,17,17,13,,,,,,,,,,,,num_4,0.9894467000849545,num_4,0.35,0.5,0.2,0.6,7.6411,22.9233,return,4.70573929999955,,,,,,,,,,,,,,,,,721,20,female,up_down_width,2024-11-01_14h39.01.979,exp1,2023.1.0,59.824677787542825,
,,,,,,,,,,,,,,,,4,9.25,9.75,10.25,10.75,0,0.5,0.25,0.25,1.75,10,initial,36.05,333,351,370,388,0,9,9,9,9,0,,,,,,,4,0,4,0,0,18,18,38,,,,,,,,,,,,num_4,1.1093198999296874,num_4,0.2,0.8,0.15000000000000002,0.4,5.73083,15.2822,return,4.712156099965796,,,,,,,,,,,,,,,,,721,20,female,up_down_width,2024-11-01_14h39.01.979,exp1,2023.1.0,59.824677787542825,
,,,,,,,,,,,,,,,,4,9.25,9.75,10.25,10.75,0,0.5,0.25,0.25,1.75,10,initial,36.05,333,351,370,388,0,9,9,9,9,0,,,,,,,4,0,4,0,0,19,19,41,,,,,,,,,,,,num_5,1.0746964002028108,num_5,0.2,1.2,0.2,0.45,7.6411,17.19248,return,4.8202855999115855,,,,,,,,,,,,,,,,,721,20,female,up_down_width,2024-11-01_14h39.01.979,exp1,2023.1.0,59.824677787542825,
,,,,,,,,,,,,,,,,5,9,9.5,10,10.5,11,0.5,0.25,0.25,2.25,10,initial,36.05,324,342,361,379,397,9,9,9,9,9,,,,,,,4,0,4,0,0,20,20,18,,,,,,,,,,,,num_5,1.4016950000077486,num_5,0.55,0.7,0.20000000000000007,0.7,7.6411,26.74385,return,1.9681042998563498,,,,,,,,,,,,,,,,,721,20,female,up_down_width,2024-11-01_14h39.01.979,exp1,2023.1.0,59.824677787542825,
,,,,,,,,,,,,,,,,4,9.25,9.75,10.25,10.75,0,0.5,0.25,0.25,1.75,10,initial,36.05,333,351,370,388,0,9,9,9,9,0,,,,,,,4,0,4,0,0,21,21,36,,,,,,,,,,,,num_5,1.160775399999693,num_5,0.25,1.3,0.15000000000000002,0.45,5.73083,17.19248,return,4.232389699900523,,,,,,,,,,,,,,,,,721,20,female,up_down_width,2024-11-01_14h39.01.979,exp1,2023.1.0,59.824677787542825,
,,,,,,,,,,,,,,,,5,9,9.5,10,10.5,11,0.5,0.25,0.25,2.25,10,initial,36.05,324,342,361,379,397,9,9,9,9,9,,,,,,,4,0,4,0,0,22,22,50,,,,,,,,,,,,num_6,1.0087831998243928,num_6,0.3,0.7,0.2,0.4,7.6411,15.2822,return,2.7271450001280755,,,,,,,,,,,,,,,,,721,20,female,up_down_width,2024-11-01_14h39.01.979,exp1,2023.1.0,59.824677787542825,
,,,,,,,,,,,,,,,,4,9.25,9.75,10.25,10.75,0,0.5,0.25,0.25,1.75,10,initial,36.05,333,351,370,388,0,9,9,9,9,0,,,,,,,4,0,4,0,0,23,23,44,,,,,,,,,,,,num_6,0.8141962999943644,num_6,0.4,1.2,0.20000000000000007,0.5,7.6411,19.10275,return,4.246651399880648,,,,,,,,,,,,,,,,,721,20,female,up_down_width,2024-11-01_14h39.01.979,exp1,2023.1.0,59.824677787542825,
,,,,,,,,,,,,,,,,5,9,9.5,10,10.5,11,0.5,0.25,0.25,2.25,10,initial,36.05,324,342,361,379,397,9,9,9,9,9,,,,,,,4,0,4,0,0,24,24,46,,,,,,,,,,,,num_6,0.8845927999354899,num_6,0.25,1.3,0.2,0.4,7.6411,15.2822,return,3.1641081999987364,,,,,,,,,,,,,,,,,721,20,female,up_down_width,2024-11-01_14h39.01.979,exp1,2023.1.0,59.824677787542825,
,,,,,,,,,,,,,,,,4,9.25,9.75,10.25,10.75,0,0.5,0.25,0.25,1.75,10,initial,36.05,333,351,370,388,0,9,9,9,9,0,,,,,,,4,0,4,0,0,25,25,16,,,,,,,,,,,,num_5,0.9326402998995036,num_5,0.2,1.1,0.15000000000000002,0.4,5.73083,15.2822,return,3.3865852002054453,,,,,,,,,,,,,,,,,721,20,female,up_down_width,2024-11-01_14h39.01.979,exp1,2023.1.0,59.824677787542825,
,,,,,,,,,,,,,,,,5,9,9.5,10,10.5,11,0.5,0.25,0.25,2.25,10,initial,36.05,324,342,361,379,397,9,9,9,9,9,,,,,,,4,0,4,0,0,26,26,23,,,,,,,,,,,,num_6,1.199193499982357,num_6,0.2,1.0,0.2,0.4,7.6411,15.2822,return,4.139508899999782,,,,,,,,,,,,,,,,,721,20,female,up_down_width,2024-11-01_14h39.01.979,exp1,2023.1.0,59.824677787542825,
,,,,,,,,,,,,,,,,5,9,9.5,10,10.5,11,0.5,0.25,0.25,2.25,10,initial,36.05,324,342,361,379,397,9,9,9,9,9,,,,,,,4,0,4,0,0,27,27,48,,,,,,,,,,,,num_6,0.8116707999724895,num_6,0.2,0.7,0.2,0.5,7.6411,19.10275,return,4.338301900075749,,,,,,,,,,,,,,,,,721,20,female,up_down_width,2024-11-01_14h39.01.979,exp1,2023.1.0,59.824677787542825,
,,,,,,,,,,,,,,,,3,9.5,10,10.5,0,0,0.5,0.25,0.25,1.25,10,initial,36.05,342,361,379,0,0,9,9,9,0,0,,,,,,,4,0,4,0,0,28,28,31,,,,,,,,,,,,num_2,0.8852597000077367,num_2,0.25,0.8,0.2,0.4,7.6411,15.2822,return,2.5610102999489754,,,,,,,,,,,,,,,,,721,20,female,up_down_width,2024-11-01_14h39.01.979,exp1,2023.1.0,59.824677787542825,
,,,,,,,,,,,,,,,,5,9,9.5,10,10.5,11,0.5,0.25,0.25,2.25,10,initial,36.05,324,342,361,379,397,9,9,9,9,9,,,,,,,4,0,4,0,0,29,29,20,,,,,,,,,,,,num_5,1.27785350009799,num_5,0.55,0.8,0.30000000000000004,0.65,11.46165,24.83358,return,3.094226000132039,,,,,,,,,,,,,,,,,721,20,female,up_down_width,2024-11-01_14h39.01.979,exp1,2023.1.0,59.824677787542825,
,,,,,,,,,,,,,,,,3,9.5,10,10.5,0,0,0.5,0.25,0.25,1.25,10,initial,36.05,342,361,379,0,0,9,9,9,0,0,,,,,,,4,0,4,0,0,30,30,8,,,,,,,,,,,,num_2,0.8949827998876572,num_2,0.45,1.6,0.30000000000000004,0.8,11.46165,30.5644,return,2.9662746000103652,,,,,,,,,,,,,,,,,721,20,female,up_down_width,2024-11-01_14h39.01.979,exp1,2023.1.0,59.824677787542825,
,,,,,,,,,,,,,,,,5,9,9.5,10,10.5,11,0.5,0.25,0.25,2.25,10,initial,36.05,324,342,361,379,397,9,9,9,9,9,,,,,,,4,0,4,0,0,31,31,45,,,,,,,,,,,,num_6,1.015604899963364,num_6,0.3,1.0,0.15000000000000002,0.5,5.73083,19.10275,return,3.2927166998852044,,,,,,,,,,,,,,,,,721,20,female,up_down_width,2024-11-01_14h39.01.979,exp1,2023.1.0,59.824677787542825,
,,,,,,,,,,,,,,,,3,9.5,10,10.5,0,0,0.5,0.25,0.25,1.25,10,initial,36.05,342,361,379,0,0,9,9,9,0,0,,,,,,,4,0,4,0,0,32,32,2,,,,,,,,,,,,num_2,0.7851291000843048,num_2,0.4,1.2,0.25000000000000006,0.6,9.55138,22.9233,return,3.1844544999767095,,,,,,,,,,,,,,,,,721,20,female,up_down_width,2024-11-01_14h39.01.979,exp1,2023.1.0,59.824677787542825,
,,,,,,,,,,,,,,,,4,9.25,9.75,10.25,10.75,0,0.5,0.25,0.25,1.75,10,initial,36.05,333,351,370,388,0,9,9,9,9,0,,,,,,,4,0,4,0,0,33,33,42,,,,,,,,,,,,num_3,0.90640510013327,num_3,0.45,1,0.20000000000000007,0.6,7.6411,22.9233,return,2.7085913999471813,,,,,,,,,,,,,,,,,721,20,female,up_down_width,2024-11-01_14h39.01.979,exp1,2023.1.0,59.824677787542825,
,,,,,,,,,,,,,,,,3,9.5,10,10.5,0,0,0.5,0.25,0.25,1.25,10,initial,36.05,342,361,379,0,0,9,9,9,0,0,,,,,,,4,0,4,0,0,34,34,3,,,,,,,,,,,,num_2,0.7935983000788838,num_2,0.35,0.6,0.15000000000000002,0.5,5.73083,19.10275,return,2.6014519000891596,,,,,,,,,,,,,,,,,721,20,female,up_down_width,2024-11-01_14h39.01.979,exp1,2023.1.0,59.824677787542825,
,,,,,,,,,,,,,,,,4,9.25,9.75,10.25,10.75,0,0.5,0.25,0.25,1.75,10,initial,36.05,333,351,370,388,0,9,9,9,9,0,,,,,,,4,0,4,0,0,35,35,9,,,,,,,,,,,,num_3,0.7513133999891579,num_3,0.55,1.3,0.10000000000000007,0.55,3.82055,21.01303,return,4.126887399936095,,,,,,,,,,,,,,,,,721,20,female,up_down_width,2024-11-01_14h39.01.979,exp1,2023.1.0,59.824677787542825,
,,,,,,,,,,,,,,,,5,9,9.5,10,10.5,11,0.5,0.25,0.25,2.25,10,initial,36.05,324,342,361,379,397,9,9,9,9,9,,,,,,,4,0,4,0,0,36,36,53,,,,,,,,,,,,num_6,0.8612071999814361,num_6,0.45,0.8,0.10000000000000007,0.4,3.82055,15.2822,return,2.200880300020799,,,,,,,,,,,,,,,,,721,20,female,up_down_width,2024-11-01_14h39.01.979,exp1,2023.1.0,59.824677787542825,
,,,,,,,,,,,,,,,,3,9.5,10,10.5,0,0,0.5,0.25,0.25,1.25,10,initial,36.05,342,361,379,0,0,9,9,9,0,0,,,,,,,4,0,4,0,0,37,37,6,,,,,,,,,,,,num_2,0.7540905999485403,num_2,0.4,1.0,0.25000000000000006,0.7,9.55138,26.74385,return,1.7286863999906927,,,,,,,,,,,,,,,,,721,20,female,up_down_width,2024-11-01_14h39.01.979,exp1,2023.1.0,59.824677787542825,
,,,,,,,,,,,,,,,,4,9.25,9.75,10.25,10.75,0,0.5,0.25,0.25,1.75,10,initial,36.05,333,351,370,388,0,9,9,9,9,0,,,,,,,4,0,4,0,0,38,38,12,,,,,,,,,,,,num_3,0.7855867000762373,num_3,0.2,1,0.2,0.55,7.6411,21.01303,return,3.548862700117752,,,,,,,,,,,,,,,,,721,20,female,up_down_width,2024-11-01_14h39.01.979,exp1,2023.1.0,59.824677787542825,
,,,,,,,,,,,,,,,,3,9.5,10,10.5,0,0,0.5,0.25,0.25,1.25,10,initial,36.05,342,361,379,0,0,9,9,9,0,0,,,,,,,4,0,4,0,0,39,39,7,,,,,,,,,,,,num_2,0.7843829998746514,num_2,0.55,1.4,0.4,0.7,15.2822,26.74385,return,3.6751270999666303,,,,,,,,,,,,,,,,,721,20,female,up_down_width,2024-11-01_14h39.01.979,exp1,2023.1.0,59.824677787542825,
,,,,,,,,,,,,,,,,3,9.5,10,10.5,0,0,0.5,0.25,0.25,1.25,10,initial,36.05,342,361,379,0,0,9,9,9,0,0,,,,,,,4,0,4,0,0,40,40,32,,,,,,,,,,,,num_2,0.8350798999890685,num_2,0.5,1.6,0.20000000000000007,0.6,7.6411,22.9233,return,3.3125855999533087,,,,,,,,,,,,,,,,,721,20,female,up_down_width,2024-11-01_14h39.01.979,exp1,2023.1.0,59.824677787542825,
,,,,,,,,,,,,,,,,5,9,9.5,10,10.5,11,0.5,0.25,0.25,2.25,10,initial,36.05,324,342,361,379,397,9,9,9,9,9,,,,,,,4,0,4,0,0,41,41,51,,,,,,,,,,,,num_6,1.108053799951449,num_6,0.55,0.9,0.20000000000000007,0.5,7.6411,19.10275,return,2.837939399993047,,,,,,,,,,,,,,,,,721,20,female,up_down_width,2024-11-01_14h39.01.979,exp1,2023.1.0,59.824677787542825,
,,,,,,,,,,,,,,,,3,9.5,10,10.5,0,0,0.5,0.25,0.25,1.25,10,initial,36.05,342,361,379,0,0,9,9,9,0,0,,,,,,,4,0,4,0,0,42,42,1,,,,,,,,,,,,num_2,0.8213504999876022,num_2,0.3,0.8,0.2,0.4,7.6411,15.2822,return,4.419042199850082,,,,,,,,,,,,,,,,,721,20,female,up_down_width,2024-11-01_14h39.01.979,exp1,2023.1.0,59.824677787542825,
,,,,,,,,,,,,,,,,4,9.25,9.75,10.25,10.75,0,0.5,0.25,0.25,1.75,10,initial,36.05,333,351,370,388,0,9,9,9,9,0,,,,,,,4,0,4,0,0,43,43,40,,,,,,,,,,,,num_3,4.380553500028327,num_3,0.55,1,0.25000000000000006,0.55,9.55138,21.01303,return,4.315646299859509,,,,,,,,,,,,,,,,,721,20,female,up_down_width,2024-11-01_14h39.01.979,exp1,2023.1.0,59.824677787542825,
,,,,,,,,,,,,,,,,4,9.25,9.75,10.25,10.75,0,0.5,0.25,0.25,1.75,10,initial,36.05,333,351,370,388,0,9,9,9,9,0,,,,,,,4,0,4,0,0,44,44,14,,,,,,,,,,,,num_4,1.1775064000394195,num_4,0.5,0.6,0.15000000000000008,0.6,5.73083,22.9233,return,1.4925667000934482,,,,,,,,,,,,,,,,,721,20,female,up_down_width,2024-11-01_14h39.01.979,exp1,2023.1.0,59.824677787542825,
,,,,,,,,,,,,,,,,5,9,9.5,10,10.5,11,0.5,0.25,0.25,2.25,10,initial,36.05,324,342,361,379,397,9,9,9,9,9,,,,,,,4,0,4,0,0,45,45,22,,,,,,,,,,,,num_6,0.8623981999699026,num_6,0.3,0.4,0.15000000000000002,0.4,5.73083,15.2822,return,1.4466550999786705,,,,,,,,,,,,,,,,,721,20,female,up_down_width,2024-11-01_14h39.01.979,exp1,2023.1.0,59.824677787542825,
,,,,,,,,,,,,,,,,4,9.25,9.75,10.25,10.75,0,0.5,0.25,0.25,1.75,10,initial,36.05,333,351,370,388,0,9,9,9,9,0,,,,,,,4,0,4,0,0,46,46,10,,,,,,,,,,,,num_5,0.8495571000967175,num_5,0.2,0.4,0.15000000000000002,0.4,5.73083,15.2822,return,1.5996349002234638,,,,,,,,,,,,,,,,,721,20,female,up_down_width,2024-11-01_14h39.01.979,exp1,2023.1.0,59.824677787542825,
,,,,,,,,,,,,,,,,3,9.5,10,10.5,0,0,0.5,0.25,0.25,1.25,10,initial,36.05,342,361,379,0,0,9,9,9,0,0,,,,,,,4,0,4,0,0,47,47,30,,,,,,,,,,,,num_2,0.8353212000802159,num_2,0.55,1.4,0.25000000000000006,1.3,9.55138,49.66716,return,3.050554299959913,,,,,,,,,,,,,,,,,721,20,female,up_down_width,2024-11-01_14h39.01.979,exp1,2023.1.0,59.824677787542825,
,,,,,,,,,,,,,,,,3,9.5,10,10.5,0,0,0.5,0.25,0.25,1.25,10,initial,36.05,342,361,379,0,0,9,9,9,0,0,,,,,,,4,0,4,0,0,48,48,35,,,,,,,,,,,,num_2,0.870973400073126,num_2,0.45,1.6,0.30000000000000004,1.1,11.46165,42.02605,return,1.6665824998635799,,,,,,,,,,,,,,,,,721,20,female,up_down_width,2024-11-01_14h39.01.979,exp1,2023.1.0,59.824677787542825,
,,,,,,,,,,,,,,,,3,9.5,10,10.5,0,0,0.5,0.25,0.25,1.25,10,initial,36.05,342,361,379,0,0,9,9,9,0,0,,,,,,,4,0,4,0,0,49,49,29,,,,,,,,,,,,num_2,1.0277998000383377,num_2,0.25,0.8,0.25,0.8,9.55138,30.5644,return,0.7731496000196785,,,,,,,,,,,,,,,,,721,20,female,up_down_width,2024-11-01_14h39.01.979,exp1,2023.1.0,59.824677787542825,
,,,,,,,,,,,,,,,,4,9.25,9.75,10.25,10.75,0,0.5,0.25,0.25,1.75,10,initial,36.05,333,351,370,388,0,9,9,9,9,0,,,,,,,4,0,4,0,0,50,50,11,,,,,,,,,,,,num_3,1.0217633000575006,num_3,0.55,1.3,0.25000000000000006,1.1,9.55138,42.02605,return,2.641703500179574,,,,,,,,,,,,,,,,,721,20,female,up_down_width,2024-11-01_14h39.01.979,exp1,2023.1.0,59.824677787542825,
,,,,,,,,,,,,,,,,4,9.25,9.75,10.25,10.75,0,0.5,0.25,0.25,1.75,10,initial,36.05,333,351,370,388,0,9,9,9,9,0,,,,,,,4,0,4,0,0,51,51,17,,,,,,,,,,,,num_4,1.1387227999512106,num_4,0.2,1.1,0.25,0.6,9.55138,22.9233,return,2.944450599839911,,,,,,,,,,,,,,,,,721,20,female,up_down_width,2024-11-01_14h39.01.979,exp1,2023.1.0,59.824677787542825,
,,,,,,,,,,,,,,,,3,9.5,10,10.5,0,0,0.5,0.25,0.25,1.25,10,initial,36.05,342,361,379,0,0,9,9,9,0,0,,,,,,,4,0,4,0,0,52,52,33,,,,,,,,,,,,num_2,0.9019997001159936,num_2,0.45,1.0,0.25000000000000006,1.0,9.55138,38.2055,return,2.9593342998996377,,,,,,,,,,,,,,,,,721,20,female,up_down_width,2024-11-01_14h39.01.979,exp1,2023.1.0,59.824677787542825,
,,,,,,,,,,,,,,,,3,9.5,10,10.5,0,0,0.5,0.25,0.25,1.25,10,initial,36.05,342,361,379,0,0,9,9,9,0,0,,,,,,,4,0,4,0,0,53,53,27,,,,,,,,,,,,num_2,0.8488580000121146,num_2,0.2,0.4,0.2,0.6,7.6411,22.9233,return,2.427628600038588,,,,,,,,,,,,,,,,,721,20,female,up_down_width,2024-11-01_14h39.01.979,exp1,2023.1.0,59.824677787542825,
,,,,,,,,,,,,,,,,,,,,,,,,,,,,,,,,,,,,,,,,,,,,,4,0,4,0,,,,,,,,,,,,,,,,,,,,,,,,,,,,,2348.6464066999033,2348.6464066999033,2348.6464066999033,,,,,,,,,,,,721,20,female,up_down_width,2024-11-01_14h39.01.979,exp1,2023.1.0,59.824677787542825,
,,,,,,,,,,,,,,,,5,8.2,9.1,10,10.9,11.8,0.9,0.35,0.55,4.15,10,initial,36.05,296,328,361,393,425,9,9,9,9,9,,,,,,,5,0,5,0,0,0,0,47,,,,,,,,,,,,num_6,2.070068799890578,num_6,0.3,1.2,0.65,1.2,24.83358,45.8466,return,3.3433505999855697,,,,,,,,,,,,,,,,,721,20,female,up_down_width,2024-11-01_14h39.01.979,exp1,2023.1.0,59.824677787542825,
,,,,,,,,,,,,,,,,3,9.1,10,10.9,0,0,0.9,0.35,0.55,2.35,10,initial,36.05,328,361,393,0,0,9,9,9,0,0,,,,,,,5,0,5,0,0,1,1,30,,,,,,,,,,,,num_2,0.7263879000674933,num_2,0.5,0.6,0.5,1.1,19.10275,42.02605,return,1.5432087001390755,,,,,,,,,,,,,,,,,721,20,female,up_down_width,2024-11-01_14h39.01.979,exp1,2023.1.0,59.824677787542825,
,,,,,,,,,,,,,,,,4,8.65,9.55,10.45,11.35,0,0.9,0.35,0.55,3.25,10,initial,36.05,312,344,377,409,0,9,9,9,9,0,,,,,,,5,0,5,0,0,2,2,41,,,,,,,,,,,,num_4,1.5626554999034852,num_4,0.4,0.7,0.4,0.9,15.2822,34.38495,return,1.468226300086826,,,,,,,,,,,,,,,,,721,20,female,up_down_width,2024-11-01_14h39.01.979,exp1,2023.1.0,59.824677787542825,
,,,,,,,,,,,,,,,,5,8.2,9.1,10,10.9,11.8,0.9,0.35,0.55,4.15,10,initial,36.05,296,328,361,393,425,9,9,9,9,9,,,,,,,5,0,5,0,0,3,3,23,,,,,,,,,,,,num_5,0.9162395000457764,num_5,0.55,0.9,0.55,0.95,21.01303,36.29523,return,0.9276624999474734,,,,,,,,,,,,,,,,,721,20,female,up_down_width,2024-11-01_14h39.01.979,exp1,2023.1.0,59.824677787542825,
,,,,,,,,,,,,,,,,5,8.2,9.1,10,10.9,11.8,0.9,0.35,0.55,4.15,10,initial,36.05,296,328,361,393,425,9,9,9,9,9,,,,,,,5,0,5,0,0,4,4,45,,,,,,,,,,,,num_5,0.8190551998559386,num_5,0.25,0.7,0.49999999999999994,0.9,19.10275,34.38495,return,2.7685667001642287,,,,,,,,,,,,,,,,,721,20,female,up_down_width,2024-11-01_14h39.01.979,exp1,2023.1.0,59.824677787542825,
,,,,,,,,,,,,,,,,3,9.1,10,10.9,0,0,0.9,0.35,0.55,2.35,10,initial,36.05,328,361,393,0,0,9,9,9,0,0,,,,,,,5,0,5,0,0,5,5,4,,,,,,,,,,,,num_3,0.8387808999978006,num_3,0.45,1,0.6500000000000001,1.1,24.83358,42.02605,return,1.8701929999515414,,,,,,,,,,,,,,,,,721,20,female,up_down_width,2024-11-01_14h39.01.979,exp1,2023.1.0,59.824677787542825,
,,,,,,,,,,,,,,,,5,8.2,9.1,10,10.9,11.8,0.9,0.35,0.55,4.15,10,initial,36.05,296,328,361,393,425,9,9,9,9,9,,,,,,,5,0,5,0,0,6,6,49,,,,,,,,,,,,num_6,1.4040212000254542,num_6,0.45,1.2,0.45,1.0,17.19248,38.2055,return,1.7099244999699295,,,,,,,,,,,,,,,,,721,20,female,up_down_width,2024-11-01_14h39.01.979,exp1,2023.1.0,59.824677787542825,
,,,,,,,,,,,,,,,,4,8.65,9.55,10.45,11.35,0,0.9,0.35,0.55,3.25,10,initial,36.05,312,344,377,409,0,9,9,9,9,0,,,,,,,5,0,5,0,0,7,7,37,,,,,,,,,,,,num_5,1.694988900097087,num_5,0.4,0.6,0.4,0.85,15.2822,32.47468,return,1.7489201999269426,,,,,,,,,,,,,,,,,721,20,female,up_down_width,2024-11-01_14h39.01.979,exp1,2023.1.0,59.824677787542825,
,,,,,,,,,,,,,,,,4,8.65,9.55,10.45,11.35,0,0.9,0.35,0.55,3.25,10,initial,36.05,312,344,377,409,0,9,9,9,9,0,,,,,,,5,0,5,0,0,8,8,9,,,,,,,,,,,,num_4,1.154033400118351,num_4,0.25,0.4,0.5499999999999999,0.9,21.01303,34.38495,return,3.0415196001995355,,,,,,,,,,,,,,,,,721,20,female,up_down_width,2024-11-01_14h39.01.979,exp1,2023.1.0,59.824677787542825,
,,,,,,,,,,,,,,,,4,8.65,9.55,10.45,11.35,0,0.9,0.35,0.55,3.25,10,initial,36.05,312,344,377,409,0,9,9,9,9,0,,,,,,,5,0,5,0,0,9,9,42,,,,,,,,,,,,num_6,0.8683908001985401,num_6,0.4,1.0,0.55,1.0,21.01303,38.2055,return,1.5333316000178456,,,,,,,,,,,,,,,,,721,20,female,up_down_width,2024-11-01_14h39.01.979,exp1,2023.1.0,59.824677787542825,
