amount_p,posx1_p,posx2_p,posx3_p,posx4_p,posx5_p,center_to_center_p,edge_to_edge_p,w_p,stim_lengt_p,eccentricity_p,line1_p,line2_p,line3_p,line4_p,line5_p,amount,posx1,posx2,posx3,posx4,posx5,center_to_center,edge_to_edge,w,stim_length,eccentricity,trial_type,deg_to_pix_index,posx1_in_pix,posx2_in_pix,posx3_in_pix,posx4_in_pix,posx5_in_pix,line1,line2,line3,line4,line5,trials.thisRepN,trials.thisTrialN,trials.thisN,trials.thisIndex,blocks.thisRepN,blocks.thisTrialN,blocks.thisN,blocks.thisIndex,loop.thisRepN,loop.thisTrialN,loop.thisN,loop.thisIndex,key_resp_3.keys,key_resp_3.rt,key_resp_3.started,key_resp_3.stopped,key_resp.keys,key_resp.rt,response,starting_width_deg,starting_space_deg,response_width_degree,response_spacing_degree,response_width_pixel,response_spacing_pixel,next_5.keys,next_5.rt,key_resp_4.keys,key_resp_4.rt,text_3.started,text_3.stopped,text_4.started,text_4.stopped,participant,age,gender,resp_group,date,expName,psychopyVersion,frameRate,
,,,,,,,,,,,,,,,,,,,,,,,,,,,,,,,,,,,,,,,,,,,,,,,,,,,c,268.7022647000849,37.16455180000048,None,,,,,,,,,,,,,,,,,,10,21,female,up_down_width,2023_Aug_28_1516,exp1,2021.2.3,60.05075489302205,
5,9.25,9.625,10,10.375,10.75,0.375,0.125,0.25,1.75,10,9,9,9,9,9,,,,,,,,,,,,,,,,,,,,,,,,0,0,0,6,,,,,,,,,,,,,num_4,3.750996300019324,num_4,0.15,1.0,0.09999999999999999,0.6,3.60429,21.62576,return,35.420951800071634,,,,,,,10,21,female,up_down_width,2023_Aug_28_1516,exp1,2021.2.3,60.05075489302205,
4,8.65,9.55,10.45,11.35,0,0.9,0.5,0.4,3.1,10,9,9,9,9,0,,,,,,,,,,,,,,,,,,,,,,,,0,1,1,5,,,,,,,,,,,,,num_4,4.050312299979851,num_4,0.2,1.1,0.15000000000000002,1.1,5.40644,39.64722,return,10.495163400075398,,,,,,,10,21,female,up_down_width,2023_Aug_28_1516,exp1,2021.2.3,60.05075489302205,
4,9.25,9.75,10.25,10.75,0,0.5,0.25,0.25,1.75,10,9,9,9,9,0,,,,,,,,,,,,,,,,,,,,,,,,0,2,2,4,,,,,,,,,,,,,num_5,4.981507600052282,num_5,0.25,1.2,0.3,0.85,10.81288,30.63649,return,9.706835099961609,,,,,,,10,21,female,up_down_width,2023_Aug_28_1516,exp1,2021.2.3,60.05075489302205,
3,9.5,10,10.5,0,0,0.5,0.4,0.1,1.1,10,9,9,9,0,0,,,,,,,,,,,,,,,,,,,,,,,,0,3,3,0,,,,,,,,,,,,,num_3,5.342715300037526,num_3,0.3,1.1,0.10000000000000002,1.1,3.60429,39.64722,return,10.391418800107203,,,,,,,10,21,female,up_down_width,2023_Aug_28_1516,exp1,2021.2.3,60.05075489302205,
3,8.2,10,11.8,0,0,1.7999999999999998,1.4,0.4,4,10,9,9,9,0,0,,,,,,,,,,,,,,,,,,,,,,,,0,4,4,2,,,,,,,,,,,,,num_3,2.793494800105691,num_3,0.45,0.7,0.35000000000000003,1.3,12.61502,46.85581,return,11.321212899987586,,,,,,,10,21,female,up_down_width,2023_Aug_28_1516,exp1,2021.2.3,60.05075489302205,
3,9,10,11,0,0,1,0.9,0.1,2.1,10,9,9,9,0,0,,,,,,,,,,,,,,,,,,,,,,,,0,5,5,1,,,,,,,,,,,,,num_4,4.007318500080146,num_4,0.3,1.1,0.15000000000000002,1.1,5.40644,39.64722,return,8.30845849995967,,,,,,,10,21,female,up_down_width,2023_Aug_28_1516,exp1,2021.2.3,60.05075489302205,
5,9,9.5,10,10.5,11,0.5,0.09999999999999998,0.4,2.4,10,9,9,9,9,9,,,,,,,,,,,,,,,,,,,,,,,,0,6,6,8,,,,,,,,,,,,,num_4,2.489631999982521,num_4,0.3,0.8,0.3,0.8,10.81288,28.83434,return,4.900933900033124,,,,,,,10,21,female,up_down_width,2023_Aug_28_1516,exp1,2021.2.3,60.05075489302205,
4,9.5,9.833333333333334,10.166666666666666,10.5,0,0.33333333333333337,0.23333333333333336,0.1,1.1,10,9,9,9,9,0,,,,,,,,,,,,,,,,,,,,,,,,0,7,7,3,,,,,,,,,,,,,num_5,2.4047875000396743,num_5,0.45,0.6,0.20000000000000007,0.55,7.20859,19.82361,return,7.858761199982837,,,,,,,10,21,female,up_down_width,2023_Aug_28_1516,exp1,2021.2.3,60.05075489302205,
5,8.6,9.3,10,10.7,11.4,0.7,0.29999999999999993,0.4,3.1999999999999997,10,9,9,9,9,9,,,,,,,,,,,,,,,,,,,,,,,,0,8,8,7,,,,,,,,,,,,,num_5,2.619525699992664,num_5,0.25,0.4,0.2,0.55,7.20859,19.82361,return,8.01567029999569,,,,,,,10,21,female,up_down_width,2023_Aug_28_1516,exp1,2021.2.3,60.05075489302205,
,,,,,,,,,,,,,,,,,,,,,,,,,,,,,,,,,,,,,,,,,,,,,,,,,,,,,,,,,,,,,,,,,,c,136.71889939997345,,,,,10,21,female,up_down_width,2023_Aug_28_1516,exp1,2021.2.3,60.05075489302205,
,,,,,,,,,,,,,,,,4,9.1,9.7,10.3,10.9,0,0.6,0.5,0.1,1.9,10,match,36.05,328,350,371,393,0,9,9,9,9,0,,,,,0,0,0,0,0,0,0,13,,,,,num_4,2.519470499944873,num_4,0.45,0.6,0.10000000000000007,0.6,3.60429,21.62576,return,10.158834100002423,,,,,,,10,21,female,up_down_width,2023_Aug_28_1516,exp1,2021.2.3,60.05075489302205,
,,,,,,,,,,,,,,,,3,9.5,10,10.5,0,0,0.5,0.4,0.1,1.1,10,initial,36.05,342,361,379,0,0,9,9,9,0,0,,,,,0,0,0,0,0,1,1,0,,,,,num_3,2.369331100024283,num_3,0.25,0.9,0.10000000000000002,0.8,3.60429,28.83434,return,13.80793160002213,,,,,,,10,21,female,up_down_width,2023_Aug_28_1516,exp1,2021.2.3,60.05075489302205,
,,,,,,,,,,,,,,,,4,9.3,9.766666666666667,10.233333333333333,10.7,0,0.4666666666666667,0.21666666666666665,0.25,1.65,10,match,36.05,335,352,369,386,0,9,9,9,9,0,,,,,0,0,0,0,0,2,2,9,,,,,num_4,6.04166470002383,num_4,0.15,0.3,0.15,0.5,5.40644,18.02146,return,5.476764899911359,,,,,,,10,21,female,up_down_width,2023_Aug_28_1516,exp1,2021.2.3,60.05075489302205,
,,,,,,,,,,,,,,,,3,9.1,10,10.9,0,0,0.9,0.8,0.1,1.9000000000000001,10,initial,36.05,328,361,393,0,0,9,9,9,0,0,,,,,0,0,0,0,0,3,3,12,,,,,num_3,2.4142621000064537,num_3,0.2,1,0.10000000000000002,1,3.60429,36.04293,return,6.285266799968667,,,,,,,10,21,female,up_down_width,2023_Aug_28_1516,exp1,2021.2.3,60.05075489302205,
,,,,,,,,,,,,,,,,4,8.95,9.65,10.35,11.05,0,0.7,0.6,0.1,2.1999999999999997,10,initial,36.05,323,348,373,398,0,9,9,9,9,0,,,,,0,0,0,0,0,4,4,24,,,,,num_4,1.7301810000790283,num_4,0.15,0.5,0.09999999999999999,0.6,3.60429,21.62576,return,6.697304100031033,,,,,,,10,21,female,up_down_width,2023_Aug_28_1516,exp1,2021.2.3,60.05075489302205,
,,,,,,,,,,,,,,,,4,9.5,9.833333333333334,10.166666666666666,10.5,0,0.3333333333333333,0.08333333333333333,0.25,1.25,10,match,36.05,342,354,367,379,0,9,9,9,9,0,,,,,0,0,0,0,0,5,5,3,,,,,num_4,2.006382600055076,num_4,0.2,0.9,0.2,0.6,7.20859,21.62576,return,5.237142300000414,,,,,,,10,21,female,up_down_width,2023_Aug_28_1516,exp1,2021.2.3,60.05075489302205,
,,,,,,,,,,,,,,,,4,9.425,9.808333333333334,10.191666666666666,10.575,0,0.3833333333333333,0.1333333333333333,0.25,1.4,10,match,36.05,340,354,367,381,0,9,9,9,9,0,,,,,0,0,0,0,0,6,6,5,,,,,num_4,3.467736699967645,num_4,0.15,0.9,0.15,0.5,5.40644,18.02146,return,4.352363400044851,,,,,,,10,21,female,up_down_width,2023_Aug_28_1516,exp1,2021.2.3,60.05075489302205,
,,,,,,,,,,,,,,,,5,9,9.5,10,10.5,11,0.5,0.09999999999999998,0.4,2.4,10,initial,36.05,324,342,361,379,397,9,9,9,9,9,,,,,0,0,0,0,0,7,7,40,,,,,num_4,3.2109147999435663,num_4,0.35,1.1,0.35,0.8,12.61502,28.83434,return,10.842050899984315,,,,,,,10,21,female,up_down_width,2023_Aug_28_1516,exp1,2021.2.3,60.05075489302205,
,,,,,,,,,,,,,,,,5,8.65,9.325,10,10.675,11.35,0.6749999999999999,0.575,0.1,2.8,10,match,36.05,312,336,361,385,409,9,9,9,9,9,,,,,0,0,0,0,0,8,8,31,,,,,num_5,3.048280799994245,num_5,0.15,1.0,0.15,0.7,5.40644,25.23005,return,7.869688100065105,,,,,,,10,21,female,up_down_width,2023_Aug_28_1516,exp1,2021.2.3,60.05075489302205,
,,,,,,,,,,,,,,,,3,9.1,10,10.9,0,0,0.9,0.5,0.4,2.2,10,initial,36.05,328,361,393,0,0,9,9,9,0,0,,,,,0,0,0,0,0,9,9,16,,,,,num_3,2.7256294999970123,num_3,0.25,0.7,0.25,0.95,9.01073,34.24078,return,4.6931861999910325,,,,,,,10,21,female,up_down_width,2023_Aug_28_1516,exp1,2021.2.3,60.05075489302205,
,,,,,,,,,,,,,,,,5,8.2,9.1,10,10.9,11.8,0.9,0.8,0.1,3.7,10,initial,36.05,296,328,361,393,425,9,9,9,9,9,,,,,0,0,0,0,0,10,10,48,,,,,num_5,2.0498614999232814,num_5,0.35,0.5,0.15000000000000002,0.7,5.40644,25.23005,return,8.598018400021829,,,,,,,10,21,female,up_down_width,2023_Aug_28_1516,exp1,2021.2.3,60.05075489302205,
,,,,,,,,,,,,,,,,3,9.5,10,10.5,0,0,0.5,0.25,0.25,1.25,10,initial,36.05,342,361,379,0,0,9,9,9,0,0,,,,,0,0,0,0,0,11,11,2,,,,,num_3,2.2984017999842763,num_3,0.45,1.3,0.25000000000000006,0.9,9.01073,32.43864,return,11.341492900042795,,,,,,,10,21,female,up_down_width,2023_Aug_28_1516,exp1,2021.2.3,60.05075489302205,
,,,,,,,,,,,,,,,,4,9.5,9.833333333333334,10.166666666666666,10.5,0,0.33333333333333337,0.23333333333333336,0.1,1.1,10,match,36.05,342,354,367,379,0,9,9,9,9,0,,,,,0,0,0,0,0,12,12,1,,,,,num_4,3.975386400008574,num_4,0.3,0.4,0.15000000000000002,0.4,5.40644,14.41717,return,5.7197288000024855,,,,,,,10,21,female,up_down_width,2023_Aug_28_1516,exp1,2021.2.3,60.05075489302205,
,,,,,,,,,,,,,,,,3,8.2,10,11.8,0,0,1.8000000000000003,1.7000000000000002,0.1,3.7,10,match,36.05,296,361,425,0,0,9,9,9,0,0,,,,,0,0,0,0,0,13,13,49,,,,,num_3,2.4582656999118626,num_3,0.35,1.3,0.15000000000000002,1.5,5.40644,54.06439,return,7.558880600030534,,,,,,,10,21,female,up_down_width,2023_Aug_28_1516,exp1,2021.2.3,60.05075489302205,
,,,,,,,,,,,,,,,,4,8.65,9.55,10.45,11.35,0,0.9,0.8,0.1,2.8000000000000003,10,initial,36.05,312,344,377,409,0,9,9,9,9,0,,,,,0,0,0,0,0,14,14,30,,,,,num_4,1.8723269999027252,num_4,0.2,0.6,0.10000000000000002,1.2,3.60429,43.25151,return,5.1557429999811575,,,,,,,10,21,female,up_down_width,2023_Aug_28_1516,exp1,2021.2.3,60.05075489302205,
,,,,,,,,,,,,,,,,3,9.3,10,10.7,0,0,0.7,0.44999999999999996,0.25,1.65,10,initial,36.05,335,361,386,0,0,9,9,9,0,0,,,,,0,0,0,0,0,15,15,8,,,,,num_3,2.5510939999949187,num_3,0.35,1.3,0.2,1.3,7.20859,46.85581,return,4.733073799987324,,,,,,,10,21,female,up_down_width,2023_Aug_28_1516,exp1,2021.2.3,60.05075489302205,
,,,,,,,,,,,,,,,,5,9.175,9.5875,10,10.4125,10.825,0.4125,0.16249999999999998,0.25,1.9,10,match,36.05,331,346,361,375,390,9,9,9,9,9,,,,,0,0,0,0,0,16,16,23,,,,,num_5,1.6270439000800252,num_5,0.35,1.0,0.15000000000000002,0.95,5.40644,34.24078,return,10.745127499918453,,,,,,,10,21,female,up_down_width,2023_Aug_28_1516,exp1,2021.2.3,60.05075489302205,
,,,,,,,,,,,,,,,,5,9,9.5,10,10.5,11,0.5,0.4,0.1,2.1,10,initial,36.05,324,342,361,379,397,9,9,9,9,9,,,,,0,0,0,0,0,17,17,36,,,,,num_4,2.5404059999855235,num_4,0.45,0.6,0.20000000000000007,0.7,7.20859,25.23005,return,6.869875799980946,,,,,,,10,21,female,up_down_width,2023_Aug_28_1516,exp1,2021.2.3,60.05075489302205,
,,,,,,,,,,,,,,,,4,8.95,9.65,10.35,11.05,0,0.7,0.44999999999999996,0.25,2.3499999999999996,10,initial,36.05,323,348,373,398,0,9,9,9,9,0,,,,,0,0,0,0,0,18,18,26,,,,,num_5,2.724169500055723,num_5,0.2,0.9,0.2,0.85,7.20859,30.63649,return,7.414393200073391,,,,,,,10,21,female,up_down_width,2023_Aug_28_1516,exp1,2021.2.3,60.05075489302205,
,,,,,,,,,,,,,,,,3,8.6,10,11.4,0,0,1.4,1.2999999999999998,0.1,2.9,10,match,36.05,310,361,411,0,0,9,9,9,0,0,,,,,0,0,0,0,0,19,19,43,,,,,num_3,2.1750877000158653,num_3,0.2,0.8,0.15000000000000002,1.15,5.40644,41.44937,return,12.38592430006247,,,,,,,10,21,female,up_down_width,2023_Aug_28_1516,exp1,2021.2.3,60.05075489302205,
,,,,,,,,,,,,,,,,4,9.3,9.766666666666667,10.233333333333333,10.7,0,0.4666666666666667,0.3666666666666667,0.1,1.5,10,match,36.05,335,352,369,386,0,9,9,9,9,0,,,,,0,0,0,0,0,20,20,7,,,,,num_4,1.780232600052841,num_4,0.45,0.8,0.10000000000000007,0.8,3.60429,28.83434,return,15.78770230000373,,,,,,,10,21,female,up_down_width,2023_Aug_28_1516,exp1,2021.2.3,60.05075489302205,
,,,,,,,,,,,,,,,,5,8.6,9.3,10,10.7,11.4,0.7,0.29999999999999993,0.4,3.1999999999999997,10,initial,36.05,310,335,361,386,411,9,9,9,9,9,,,,,0,0,0,0,0,21,21,46,,,,,num_4,2.925743500003591,num_4,0.3,1.3,0.25,0.6,9.01073,21.62576,return,6.549682599958032,,,,,,,10,21,female,up_down_width,2023_Aug_28_1516,exp1,2021.2.3,60.05075489302205,
,,,,,,,,,,,,,,,,4,9.1,9.7,10.3,10.9,0,0.6000000000000001,0.20000000000000004,0.4,2.2,10,match,36.05,328,350,371,393,0,9,9,9,9,0,,,,,0,0,0,0,0,22,22,17,,,,,num_4,2.5964196000713855,num_4,0.45,0.8,0.45,0.7,16.21932,25.23005,return,3.2588149000657722,,,,,,,10,21,female,up_down_width,2023_Aug_28_1516,exp1,2021.2.3,60.05075489302205,
,,,,,,,,,,,,,,,,5,8.65,9.325,10,10.675,11.35,0.675,0.42500000000000004,0.25,2.95,10,match,36.05,312,336,361,385,409,9,9,9,9,9,,,,,0,0,0,0,0,23,23,33,,,,,num_5,1.675681299995631,num_5,0.25,0.8,0.25,0.55,9.01073,19.82361,return,5.43229489994701,,,,,,,10,21,female,up_down_width,2023_Aug_28_1516,exp1,2021.2.3,60.05075489302205,
,,,,,,,,,,,,,,,,5,8.95,9.475,10,10.525,11.05,0.525,0.125,0.4,2.5,10,match,36.05,323,342,361,379,398,9,9,9,9,9,,,,,0,0,0,0,0,24,24,29,,,,,num_5,2.5644487000536174,num_5,0.45,0.8,0.45,0.65,16.21932,23.4279,return,4.092966899974272,,,,,,,10,21,female,up_down_width,2023_Aug_28_1516,exp1,2021.2.3,60.05075489302205,
,,,,,,,,,,,,,,,,4,9.25,9.75,10.25,10.75,0,0.5,0.25,0.25,1.75,10,initial,36.05,333,351,370,388,0,9,9,9,9,0,,,,,0,0,0,0,0,25,25,20,,,,,num_4,2.5607028999365866,num_4,0.4,1.2,0.4,0.7,14.41717,25.23005,return,2.6210473000537604,,,,,,,10,21,female,up_down_width,2023_Aug_28_1516,exp1,2021.2.3,60.05075489302205,
,,,,,,,,,,,,,,,,3,9,10,11,0,0,1,0.75,0.25,2.25,10,match,36.05,324,361,397,0,0,9,9,9,0,0,,,,,0,0,0,0,0,26,26,39,,,,,num_3,3.1697100999299437,num_3,0.15,1.3,0.44999999999999996,0.85,16.21932,30.63649,return,13.039967899909243,,,,,,,10,21,female,up_down_width,2023_Aug_28_1516,exp1,2021.2.3,60.05075489302205,
,,,,,,,,,,,,,,,,3,8.525,10,11.475,0,0,1.475,1.225,0.25,3.2,10,match,36.05,307,361,414,0,0,9,9,9,0,0,,,,,0,0,0,0,0,27,27,47,,,,,num_3,2.1157480999827385,num_3,0.25,1.2,0.3,1.3,10.81288,46.85581,return,4.653690699953586,,,,,,,10,21,female,up_down_width,2023_Aug_28_1516,exp1,2021.2.3,60.05075489302205,
,,,,,,,,,,,,,,,,4,9.1,9.7,10.3,10.9,0,0.5999999999999999,0.3499999999999999,0.25,2.05,10,match,36.05,328,350,371,393,0,9,9,9,9,0,,,,,0,0,0,0,0,28,28,15,,,,,num_4,3.061109900008887,num_4,0.25,0.7,0.25,0.7,9.01073,25.23005,return,1.2736815999960527,,,,,,,10,21,female,up_down_width,2023_Aug_28_1516,exp1,2021.2.3,60.05075489302205,
,,,,,,,,,,,,,,,,4,8.65,9.55,10.45,11.35,0,0.9,0.65,0.25,2.95,10,initial,36.05,312,344,377,409,0,9,9,9,9,0,,,,,0,0,0,0,0,29,29,32,,,,,num_4,1.4915931000141427,num_4,0.25,0.6,0.2,1.0,7.20859,36.04293,return,4.26343910000287,,,,,,,10,21,female,up_down_width,2023_Aug_28_1516,exp1,2021.2.3,60.05075489302205,
,,,,,,,,,,,,,,,,3,9,10,11,0,0,1,0.9,0.1,2.1,10,match,36.05,324,361,397,0,0,9,9,9,0,0,,,,,0,0,0,0,0,30,30,37,,,,,num_3,1.929929899983108,num_3,0.45,0.5,0.20000000000000007,0.85,7.20859,30.63649,return,6.36224809999112,,,,,,,10,21,female,up_down_width,2023_Aug_28_1516,exp1,2021.2.3,60.05075489302205,
,,,,,,,,,,,,,,,,3,9.5,10,10.5,0,0,0.5,0.09999999999999998,0.4,1.4000000000000001,10,initial,36.05,342,361,379,0,0,9,9,9,0,0,,,,,0,0,0,0,0,31,31,4,,,,,num_3,2.6311673000454903,num_3,0.2,1,0.5499999999999999,0.7,19.82361,25.23005,return,12.380613300018013,,,,,,,10,21,female,up_down_width,2023_Aug_28_1516,exp1,2021.2.3,60.05075489302205,
,,,,,,,,,,,,,,,,3,9.3,10,10.7,0,0,0.7,0.29999999999999993,0.4,1.8,10,initial,36.05,335,361,386,0,0,9,9,9,0,0,,,,,0,0,0,0,0,32,32,10,,,,,num_3,2.0201166999759153,num_3,0.25,0.9,0.44999999999999996,0.7,16.21932,25.23005,return,8.27192389999982,,,,,,,10,21,female,up_down_width,2023_Aug_28_1516,exp1,2021.2.3,60.05075489302205,
,,,,,,,,,,,,,,,,3,9.1,10,10.9,0,0,0.9,0.65,0.25,2.05,10,initial,36.05,328,361,393,0,0,9,9,9,0,0,,,,,0,0,0,0,0,33,33,14,,,,,num_3,2.2315861999522895,num_3,0.2,0.6,0.39999999999999997,0.95,14.41717,34.24078,return,7.372943700058386,,,,,,,10,21,female,up_down_width,2023_Aug_28_1516,exp1,2021.2.3,60.05075489302205,
,,,,,,,,,,,,,,,,3,8.2,10,11.8,0,0,1.7999999999999998,1.4,0.4,4,10,match,36.05,296,361,425,0,0,9,9,9,0,0,,,,,0,0,0,0,0,34,34,53,,,,,num_3,1.8549066000850871,num_3,0.3,1.1,0.5499999999999999,1.6,19.82361,57.66869,return,7.171246699988842,,,,,,,10,21,female,up_down_width,2023_Aug_28_1516,exp1,2021.2.3,60.05075489302205,
,,,,,,,,,,,,,,,,4,9.25,9.75,10.25,10.75,0,0.5,0.09999999999999998,0.4,1.9,10,initial,36.05,333,351,370,388,0,9,9,9,9,0,,,,,0,0,0,0,0,35,35,22,,,,,num_3,2.0054060999536887,num_3,0.1,1,0.8000000000000002,1,28.83434,36.04293,return,7.087422200012952,,,,,,,10,21,female,up_down_width,2023_Aug_28_1516,exp1,2021.2.3,60.05075489302205,
,,,,,,,,,,,,,,,,5,8.2,9.1,10,10.9,11.8,0.9,0.5,0.4,4,10,initial,36.05,296,328,361,393,425,9,9,9,9,9,,,,,0,0,0,0,0,36,36,52,,,,,num_5,1.7917620000662282,num_5,0.45,1.1,0.35000000000000003,0.7,12.61502,25.23005,return,6.708667599945329,,,,,,,10,21,female,up_down_width,2023_Aug_28_1516,exp1,2021.2.3,60.05075489302205,
,,,,,,,,,,,,,,,,3,9.3,10,10.7,0,0,0.7,0.6,0.1,1.5,10,initial,36.05,335,361,386,0,0,9,9,9,0,0,,,,,0,0,0,0,0,37,37,6,,,,,num_3,1.9869699999690056,num_3,0.4,0.9,0.15000000000000008,0.9,5.40644,32.43864,return,9.075404900009744,,,,,,,10,21,female,up_down_width,2023_Aug_28_1516,exp1,2021.2.3,60.05075489302205,
,,,,,,,,,,,,,,,,5,8.95,9.475,10,10.525,11.05,0.525,0.42500000000000004,0.1,2.2,10,match,36.05,323,342,361,379,398,9,9,9,9,9,,,,,0,0,0,0,0,38,38,25,,,,,num_4,1.9195822000037879,num_4,0.1,1.3,0.05,0.6,1.80215,21.62576,return,10.351975700003095,,,,,,,10,21,female,up_down_width,2023_Aug_28_1516,exp1,2021.2.3,60.05075489302205,
,,,,,,,,,,,,,,,,5,9.25,9.625,10,10.375,10.75,0.375,0.125,0.25,1.75,10,match,36.05,333,347,361,374,388,9,9,9,9,9,,,,,0,0,0,0,0,39,39,21,,,,,num_4,1.850142000010237,num_4,0.25,0.4,0.2,0.4,7.20859,14.41717,return,5.122627099975944,,,,,,,10,21,female,up_down_width,2023_Aug_28_1516,exp1,2021.2.3,60.05075489302205,
,,,,,,,,,,,,,,,,3,8.6,10,11.4,0,0,1.4,1.15,0.25,3.05,10,match,36.05,310,361,411,0,0,9,9,9,0,0,,,,,0,0,0,0,0,40,40,45,,,,,num_4,2.363779200008139,num_4,0.45,1.3,0.25000000000000006,0.9,9.01073,32.43864,return,5.082552000065334,,,,,,,10,21,female,up_down_width,2023_Aug_28_1516,exp1,2021.2.3,60.05075489302205,
,,,,,,,,,,,,,,,,3,9,10,11,0,0,0.9999999999999999,0.5999999999999999,0.4,2.4,10,match,36.05,324,361,397,0,0,9,9,9,0,0,,,,,0,0,0,0,0,41,41,41,,,,,num_3,2.899385800003074,num_3,0.4,0.5,0.25000000000000006,0.6,9.01073,21.62576,return,7.8708796999417245,,,,,,,10,21,female,up_down_width,2023_Aug_28_1516,exp1,2021.2.3,60.05075489302205,
,,,,,,,,,,,,,,,,4,8.95,9.65,10.35,11.05,0,0.7,0.29999999999999993,0.4,2.5,10,initial,36.05,323,348,373,398,0,9,9,9,9,0,,,,,0,0,0,0,0,42,42,28,,,,,num_4,2.5447292999597266,num_4,0.15,1.1,0.49999999999999994,0.7,18.02146,25.23005,return,5.207265099976212,,,,,,,10,21,female,up_down_width,2023_Aug_28_1516,exp1,2021.2.3,60.05075489302205,
,,,,,,,,,,,,,,,,5,8.95,9.475,10,10.525,11.05,0.525,0.275,0.25,2.35,10,match,36.05,323,342,361,379,398,9,9,9,9,9,,,,,0,0,0,0,0,43,43,27,,,,,num_5,1.5431537000695243,num_5,0.1,0.6,0.25,0.55,9.01073,19.82361,return,4.793101999908686,,,,,,,10,21,female,up_down_width,2023_Aug_28_1516,exp1,2021.2.3,60.05075489302205,
,,,,,,,,,,,,,,,,5,8.2,9.1,10,10.9,11.8,0.9,0.65,0.25,3.85,10,initial,36.05,296,328,361,393,425,9,9,9,9,9,,,,,0,0,0,0,0,44,44,50,,,,,num_5,1.7650567999808118,num_5,0.35,1.1,0.25,0.95,9.01073,34.24078,return,4.510020700050518,,,,,,,10,21,female,up_down_width,2023_Aug_28_1516,exp1,2021.2.3,60.05075489302205,
,,,,,,,,,,,,,,,,5,9.25,9.625,10,10.375,10.75,0.375,0.275,0.1,1.6,10,match,36.05,333,347,361,374,388,9,9,9,9,9,,,,,0,0,0,0,0,45,45,19,,,,,num_5,1.6439361999509856,num_5,0.15,0.7,0.15,0.6,5.40644,21.62576,return,4.086101999972016,,,,,,,10,21,female,up_down_width,2023_Aug_28_1516,exp1,2021.2.3,60.05075489302205,
,,,,,,,,,,,,,,,,4,9.3,9.766666666666667,10.233333333333333,10.7,0,0.4666666666666667,0.06666666666666665,0.4,1.8,10,match,36.05,335,352,369,386,0,9,9,9,9,0,,,,,0,0,0,0,0,46,46,11,,,,,num_4,1.4849459999240935,num_4,0.1,1.0,0.39999999999999997,0.6,14.41717,21.62576,return,7.934231599909253,,,,,,,10,21,female,up_down_width,2023_Aug_28_1516,exp1,2021.2.3,60.05075489302205,
,,,,,,,,,,,,,,,,5,9,9.5,10,10.5,11,0.5,0.25,0.25,2.25,10,initial,36.05,324,342,361,379,397,9,9,9,9,9,,,,,0,0,0,0,0,47,47,38,,,,,num_5,2.0630317999748513,num_5,0.2,0.5,0.2,0.5,7.20859,18.02146,return,2.4908949000528082,,,,,,,10,21,female,up_down_width,2023_Aug_28_1516,exp1,2021.2.3,60.05075489302205,
,,,,,,,,,,,,,,,,4,9.25,9.75,10.25,10.75,0,0.5,0.4,0.1,1.6,10,initial,36.05,333,351,370,388,0,9,9,9,9,0,,,,,0,0,0,0,0,48,48,18,,,,,num_4,2.448356800014153,num_4,0.25,0.6,0.10000000000000002,0.6,3.60429,21.62576,return,6.303090100060217,,,,,,,10,21,female,up_down_width,2023_Aug_28_1516,exp1,2021.2.3,60.05075489302205,
,,,,,,,,,,,,,,,,3,8.2,10,11.8,0,0,1.8,1.55,0.25,3.85,10,match,36.05,296,361,425,0,0,9,9,9,0,0,,,,,0,0,0,0,0,49,49,51,,,,,num_3,2.1221223999746144,num_3,0.45,0.5,0.10000000000000007,1.05,3.60429,37.84507,return,11.42782320000697,,,,,,,10,21,female,up_down_width,2023_Aug_28_1516,exp1,2021.2.3,60.05075489302205,
,,,,,,,,,,,,,,,,5,8.65,9.325,10,10.675,11.35,0.675,0.275,0.4,3.1,10,match,36.05,312,336,361,385,409,9,9,9,9,9,,,,,0,0,0,0,0,50,50,35,,,,,num_4,1.4221209000097588,num_4,0.15,1.2,0.25,0.9,9.01073,32.43864,return,5.317910899990238,,,,,,,10,21,female,up_down_width,2023_Aug_28_1516,exp1,2021.2.3,60.05075489302205,
,,,,,,,,,,,,,,,,5,8.6,9.3,10,10.7,11.4,0.7,0.6,0.1,2.9,10,initial,36.05,310,335,361,386,411,9,9,9,9,9,,,,,0,0,0,0,0,51,51,42,,,,,num_5,2.5143818000797182,num_5,0.25,1.1,0.10000000000000002,0.85,3.60429,30.63649,return,6.090390600031242,,,,,,,10,21,female,up_down_width,2023_Aug_28_1516,exp1,2021.2.3,60.05075489302205,
,,,,,,,,,,,,,,,,4,8.65,9.55,10.45,11.35,0,0.9,0.5,0.4,3.1,10,initial,36.05,312,344,377,409,0,9,9,9,9,0,,,,,0,0,0,0,0,52,52,34,,,,,num_4,1.6574506000615656,num_4,0.3,0.4,0.2,0.9,7.20859,32.43864,return,6.324243200011551,,,,,,,10,21,female,up_down_width,2023_Aug_28_1516,exp1,2021.2.3,60.05075489302205,
,,,,,,,,,,,,,,,,5,8.6,9.3,10,10.7,11.4,0.7,0.44999999999999996,0.25,3.05,10,initial,36.05,310,335,361,386,411,9,9,9,9,9,,,,,0,0,0,0,0,53,53,44,,,,,num_5,1.61542379995808,num_5,0.3,1.0,0.2,0.85,7.20859,30.63649,return,4.043518099933863,,,,,,,10,21,female,up_down_width,2023_Aug_28_1516,exp1,2021.2.3,60.05075489302205,
,,,,,,,,,,,,,,,,,,,,,,,,,,,,,,,,,,,,,,,,,,,0,0,0,0,,,,,,,,,,,,,,,,,,,,,,1191.0140982000157,None,1191.0140982000157,None,10,21,female,up_down_width,2023_Aug_28_1516,exp1,2021.2.3,60.05075489302205,
,,,,,,,,,,,,,,,,4,9.3,9.766666666666667,10.233333333333333,10.7,0,0.4666666666666667,0.21666666666666665,0.25,1.65,10,match,36.05,335,352,369,386,0,9,9,9,9,0,,,,,1,0,1,0,0,0,0,9,,,,,num_4,1.5402150999289006,num_4,0.25,1.1,0.2,0.5,7.20859,18.02146,return,4.706653699977323,,,,,,,10,21,female,up_down_width,2023_Aug_28_1516,exp1,2021.2.3,60.05075489302205,
,,,,,,,,,,,,,,,,4,8.65,9.55,10.45,11.35,0,0.9,0.65,0.25,2.95,10,initial,36.05,312,344,377,409,0,9,9,9,9,0,,,,,1,0,1,0,0,1,1,32,,,,,num_5,1.799886199994944,num_5,0.45,0.7,0.25000000000000006,0.65,9.01073,23.4279,return,5.392107399995439,,,,,,,10,21,female,up_down_width,2023_Aug_28_1516,exp1,2021.2.3,60.05075489302205,
,,,,,,,,,,,,,,,,3,9.5,10,10.5,0,0,0.5,0.09999999999999998,0.4,1.4000000000000001,10,initial,36.05,342,361,379,0,0,9,9,9,0,0,,,,,1,0,1,0,0,2,2,4,,,,,num_4,2.2234386999625713,num_4,0.35,1.2,0.35,0.6,12.61502,21.62576,return,5.23944329994265,,,,,,,10,21,female,up_down_width,2023_Aug_28_1516,exp1,2021.2.3,60.05075489302205,
,,,,,,,,,,,,,,,,5,8.2,9.1,10,10.9,11.8,0.9,0.5,0.4,4,10,initial,36.05,296,328,361,393,425,9,9,9,9,9,,,,,1,0,1,0,0,3,3,52,,,,,num_5,1.5368479000171646,num_5,0.15,1.1,0.49999999999999994,0.95,18.02146,34.24078,return,5.378410000004806,,,,,,,10,21,female,up_down_width,2023_Aug_28_1516,exp1,2021.2.3,60.05075489302205,
,,,,,,,,,,,,,,,,4,9.3,9.766666666666667,10.233333333333333,10.7,0,0.4666666666666667,0.06666666666666665,0.4,1.8,10,match,36.05,335,352,369,386,0,9,9,9,9,0,,,,,1,0,1,0,0,4,4,11,,,,,num_4,2.131782899959944,num_4,0.2,0.3,0.6,0.7,21.62576,25.23005,return,12.478215000010096,,,,,,,10,21,female,up_down_width,2023_Aug_28_1516,exp1,2021.2.3,60.05075489302205,
,,,,,,,,,,,,,,,,5,9,9.5,10,10.5,11,0.5,0.25,0.25,2.25,10,initial,36.05,324,342,361,379,397,9,9,9,9,9,,,,,1,0,1,0,0,5,5,38,,,,,num_5,1.8209674999816343,num_5,0.35,0.8,0.25,0.5,9.01073,18.02146,return,5.953552099992521,,,,,,,10,21,female,up_down_width,2023_Aug_28_1516,exp1,2021.2.3,60.05075489302205,
,,,,,,,,,,,,,,,,3,9,10,11,0,0,1,0.9,0.1,2.1,10,match,36.05,324,361,397,0,0,9,9,9,0,0,,,,,1,0,1,0,0,6,6,37,,,,,num_3,2.6638287999667227,num_3,0.3,0.4,0.05000000000000002,0.65,1.80215,23.4279,return,5.64268239994999,,,,,,,10,21,female,up_down_width,2023_Aug_28_1516,exp1,2021.2.3,60.05075489302205,
,,,,,,,,,,,,,,,,3,8.2,10,11.8,0,0,1.8,1.55,0.25,3.85,10,match,36.05,296,361,425,0,0,9,9,9,0,0,,,,,1,0,1,0,0,7,7,51,,,,,num_3,2.698859700001776,num_3,0.45,0.5,0.15000000000000008,0.95,5.40644,34.24078,return,7.820954099996015,,,,,,,10,21,female,up_down_width,2023_Aug_28_1516,exp1,2021.2.3,60.05075489302205,
,,,,,,,,,,,,,,,,5,9.25,9.625,10,10.375,10.75,0.375,0.275,0.1,1.6,10,match,36.05,333,347,361,374,388,9,9,9,9,9,,,,,1,0,1,0,0,8,8,19,,,,,num_4,2.37990660010837,num_4,0.25,0.6,0.2,0.8,7.20859,28.83434,return,4.426796599989757,,,,,,,10,21,female,up_down_width,2023_Aug_28_1516,exp1,2021.2.3,60.05075489302205,
,,,,,,,,,,,,,,,,4,8.95,9.65,10.35,11.05,0,0.7,0.29999999999999993,0.4,2.5,10,initial,36.05,323,348,373,398,0,9,9,9,9,0,,,,,1,0,1,0,0,9,9,28,,,,,num_4,1.3834443999221548,num_4,0.3,0.6,0.44999999999999996,0.7,16.21932,25.23005,return,4.121624400024302,,,,,,,10,21,female,up_down_width,2023_Aug_28_1516,exp1,2021.2.3,60.05075489302205,
,,,,,,,,,,,,,,,,4,9.25,9.75,10.25,10.75,0,0.5,0.4,0.1,1.6,10,initial,36.05,333,351,370,388,0,9,9,9,9,0,,,,,1,0,1,0,0,10,10,18,,,,,num_4,2.411263099987991,num_4,0.3,0.6,0.3,0.7,10.81288,25.23005,return,4.951661800034344,,,,,,,10,21,female,up_down_width,2023_Aug_28_1516,exp1,2021.2.3,60.05075489302205,
,,,,,,,,,,,,,,,,4,8.95,9.65,10.35,11.05,0,0.7,0.44999999999999996,0.25,2.3499999999999996,10,initial,36.05,323,348,373,398,0,9,9,9,9,0,,,,,1,0,1,0,0,11,11,26,,,,,num_4,1.3663719000760466,num_4,0.4,1.3,0.20000000000000007,0.7,7.20859,25.23005,return,4.159832599922083,,,,,,,10,21,female,up_down_width,2023_Aug_28_1516,exp1,2021.2.3,60.05075489302205,
,,,,,,,,,,,,,,,,4,9.1,9.7,10.3,10.9,0,0.6000000000000001,0.20000000000000004,0.4,2.2,10,match,36.05,328,350,371,393,0,9,9,9,9,0,,,,,1,0,1,0,0,12,12,17,,,,,num_5,2.1977436000015587,num_5,0.45,0.8,0.20000000000000007,0.65,7.20859,23.4279,return,4.919667799957097,,,,,,,10,21,female,up_down_width,2023_Aug_28_1516,exp1,2021.2.3,60.05075489302205,
,,,,,,,,,,,,,,,,4,9.5,9.833333333333334,10.166666666666666,10.5,0,0.33333333333333337,0.23333333333333336,0.1,1.1,10,match,36.05,342,354,367,379,0,9,9,9,9,0,,,,,1,0,1,0,0,13,13,1,,,,,num_4,1.5402683999855071,num_4,0.4,0.7,0.15000000000000008,0.8,5.40644,28.83434,return,7.110504099982791,,,,,,,10,21,female,up_down_width,2023_Aug_28_1516,exp1,2021.2.3,60.05075489302205,
,,,,,,,,,,,,,,,,4,9.3,9.766666666666667,10.233333333333333,10.7,0,0.4666666666666667,0.3666666666666667,0.1,1.5,10,match,36.05,335,352,369,386,0,9,9,9,9,0,,,,,1,0,1,0,0,14,14,7,,,,,num_4,1.4837473999941722,num_4,0.3,0.5,0.10000000000000002,0.8,3.60429,28.83434,return,6.863744000089355,,,,,,,10,21,female,up_down_width,2023_Aug_28_1516,exp1,2021.2.3,60.05075489302205,
,,,,,,,,,,,,,,,,5,8.6,9.3,10,10.7,11.4,0.7,0.44999999999999996,0.25,3.05,10,initial,36.05,310,335,361,386,411,9,9,9,9,9,,,,,1,0,1,0,0,15,15,44,,,,,num_2,1.789832100039348,num_2,0.3,1.6,0.2,1.5,7.20859,54.06439,return,4.116036199964583,,,,,,,10,21,female,up_down_width,2023_Aug_28_1516,exp1,2021.2.3,60.05075489302205,
,,,,,,,,,,,,,,,,3,9.5,10,10.5,0,0,0.5,0.4,0.1,1.1,10,initial,36.05,342,361,379,0,0,9,9,9,0,0,,,,,1,0,1,0,0,16,16,0,,,,,num_3,1.449299200088717,num_3,0.3,0.4,0.15000000000000002,0.85,5.40644,30.63649,return,6.87854989990592,,,,,,,10,21,female,up_down_width,2023_Aug_28_1516,exp1,2021.2.3,60.05075489302205,
,,,,,,,,,,,,,,,,3,9.3,10,10.7,0,0,0.7,0.29999999999999993,0.4,1.8,10,initial,36.05,335,361,386,0,0,9,9,9,0,0,,,,,1,0,1,0,0,17,17,10,,,,,num_3,1.9076577000087127,num_3,0.25,1,0.49999999999999994,1,18.02146,36.04293,return,3.604211000027135,,,,,,,10,21,female,up_down_width,2023_Aug_28_1516,exp1,2021.2.3,60.05075489302205,
,,,,,,,,,,,,,,,,4,9.1,9.7,10.3,10.9,0,0.6,0.5,0.1,1.9,10,match,36.05,328,350,371,393,0,9,9,9,9,0,,,,,1,0,1,0,0,18,18,13,,,,,num_4,2.3742707000346854,num_4,0.3,0.6,0.10000000000000002,0.6,3.60429,21.62576,return,4.518864699988626,,,,,,,10,21,female,up_down_width,2023_Aug_28_1516,exp1,2021.2.3,60.05075489302205,
,,,,,,,,,,,,,,,,5,8.95,9.475,10,10.525,11.05,0.525,0.42500000000000004,0.1,2.2,10,match,36.05,323,342,361,379,398,9,9,9,9,9,,,,,1,0,1,0,0,19,19,25,,,,,num_5,1.486402399954386,num_5,0.2,0.3,0.05000000000000002,0.45,1.80215,16.21932,return,3.5520397999789566,,,,,,,10,21,female,up_down_width,2023_Aug_28_1516,exp1,2021.2.3,60.05075489302205,
,,,,,,,,,,,,,,,,5,8.65,9.325,10,10.675,11.35,0.675,0.42500000000000004,0.25,2.95,10,match,36.05,312,336,361,385,409,9,9,9,9,9,,,,,1,0,1,0,0,20,20,33,,,,,num_5,1.8662294999230653,num_5,0.15,0.7,0.25,0.7,9.01073,25.23005,return,2.783510099980049,,,,,,,10,21,female,up_down_width,2023_Aug_28_1516,exp1,2021.2.3,60.05075489302205,
,,,,,,,,,,,,,,,,5,8.65,9.325,10,10.675,11.35,0.675,0.275,0.4,3.1,10,match,36.05,312,336,361,385,409,9,9,9,9,9,,,,,1,0,1,0,0,21,21,35,,,,,num_5,1.9446592000313103,num_5,0.35,1.2,0.2,0.5,7.20859,18.02146,return,8.985903299995698,,,,,,,10,21,female,up_down_width,2023_Aug_28_1516,exp1,2021.2.3,60.05075489302205,
,,,,,,,,,,,,,,,,3,8.2,10,11.8,0,0,1.7999999999999998,1.4,0.4,4,10,match,36.05,296,361,425,0,0,9,9,9,0,0,,,,,1,0,1,0,0,22,22,53,,,,,num_2,1.57680179993622,num_2,0.2,1.6,0.49999999999999994,1.8,18.02146,64.87727,return,7.298701999941841,,,,,,,10,21,female,up_down_width,2023_Aug_28_1516,exp1,2021.2.3,60.05075489302205,
,,,,,,,,,,,,,,,,3,8.6,10,11.4,0,0,1.4,1.15,0.25,3.05,10,match,36.05,310,361,411,0,0,9,9,9,0,0,,,,,1,0,1,0,0,23,23,45,,,,,num_2,2.1296278999652714,num_2,0.3,1.6,0.3,2.2,10.81288,79.29444,return,2.7948795999400318,,,,,,,10,21,female,up_down_width,2023_Aug_28_1516,exp1,2021.2.3,60.05075489302205,
,,,,,,,,,,,,,,,,3,9.5,10,10.5,0,0,0.5,0.25,0.25,1.25,10,initial,36.05,342,361,379,0,0,9,9,9,0,0,,,,,1,0,1,0,0,24,24,2,,,,,num_2,1.8063581000315025,num_2,0.4,1.6,0.30000000000000004,1.6,10.81288,57.66869,return,2.948112600017339,,,,,,,10,21,female,up_down_width,2023_Aug_28_1516,exp1,2021.2.3,60.05075489302205,
,,,,,,,,,,,,,,,,4,9.1,9.7,10.3,10.9,0,0.5999999999999999,0.3499999999999999,0.25,2.05,10,match,36.05,328,350,371,393,0,9,9,9,9,0,,,,,1,0,1,0,0,25,25,15,,,,,num_3,2.0119536999845877,num_3,0.15,0.9,0.2,0.9,7.20859,32.43864,return,5.256039600004442,,,,,,,10,21,female,up_down_width,2023_Aug_28_1516,exp1,2021.2.3,60.05075489302205,
,,,,,,,,,,,,,,,,5,8.6,9.3,10,10.7,11.4,0.7,0.29999999999999993,0.4,3.1999999999999997,10,initial,36.05,310,335,361,386,411,9,9,9,9,9,,,,,1,0,1,0,0,26,26,46,,,,,num_4,1.1363896999973804,num_4,0.4,0.8,0.30000000000000004,0.7,10.81288,25.23005,return,4.882449200027622,,,,,,,10,21,female,up_down_width,2023_Aug_28_1516,exp1,2021.2.3,60.05075489302205,
,,,,,,,,,,,,,,,,3,8.6,10,11.4,0,0,1.4,1.2999999999999998,0.1,2.9,10,match,36.05,310,361,411,0,0,9,9,9,0,0,,,,,1,0,1,0,0,27,27,43,,,,,num_2,1.6070993999019265,num_2,0.4,1.6,0.10000000000000007,1.6,3.60429,57.66869,return,2.8834713000105694,,,,,,,10,21,female,up_down_width,2023_Aug_28_1516,exp1,2021.2.3,60.05075489302205,
,,,,,,,,,,,,,,,,3,9.1,10,10.9,0,0,0.9,0.65,0.25,2.05,10,initial,36.05,328,361,393,0,0,9,9,9,0,0,,,,,1,0,1,0,0,28,28,14,,,,,num_3,1.9068750999867916,num_3,0.1,0.5,0.15000000000000002,1.0,5.40644,36.04293,return,9.87630760006141,,,,,,,10,21,female,up_down_width,2023_Aug_28_1516,exp1,2021.2.3,60.05075489302205,
,,,,,,,,,,,,,,,,3,9.3,10,10.7,0,0,0.7,0.6,0.1,1.5,10,initial,36.05,335,361,386,0,0,9,9,9,0,0,,,,,1,0,1,0,0,29,29,6,,,,,num_3,1.8527588000288233,num_3,0.4,0.9,0.05000000000000007,0.95,1.80215,34.24078,return,6.2099162000231445,,,,,,,10,21,female,up_down_width,2023_Aug_28_1516,exp1,2021.2.3,60.05075489302205,
,,,,,,,,,,,,,,,,4,9.25,9.75,10.25,10.75,0,0.5,0.09999999999999998,0.4,1.9,10,initial,36.05,333,351,370,388,0,9,9,9,9,0,,,,,1,0,1,0,0,30,30,22,,,,,num_4,2.4319727000547573,num_4,0.45,1.2,0.25000000000000006,0.4,9.01073,14.41717,return,7.035917500033975,,,,,,,10,21,female,up_down_width,2023_Aug_28_1516,exp1,2021.2.3,60.05075489302205,
,,,,,,,,,,,,,,,,5,9,9.5,10,10.5,11,0.5,0.09999999999999998,0.4,2.4,10,initial,36.05,324,342,361,379,397,9,9,9,9,9,,,,,1,0,1,0,0,31,31,40,,,,,num_4,1.4047382000135258,num_4,0.1,1.1,0.39999999999999997,0.6,14.41717,21.62576,return,5.504840100067668,,,,,,,10,21,female,up_down_width,2023_Aug_28_1516,exp1,2021.2.3,60.05075489302205,
,,,,,,,,,,,,,,,,4,9.5,9.833333333333334,10.166666666666666,10.5,0,0.3333333333333333,0.08333333333333333,0.25,1.25,10,match,36.05,342,354,367,379,0,9,9,9,9,0,,,,,1,0,1,0,0,32,32,3,,,,,num_4,1.9238072999287397,num_4,0.2,0.8,0.39999999999999997,0.5,14.41717,18.02146,return,10.214294599951245,,,,,,,10,21,female,up_down_width,2023_Aug_28_1516,exp1,2021.2.3,60.05075489302205,
,,,,,,,,,,,,,,,,3,9.1,10,10.9,0,0,0.9,0.8,0.1,1.9000000000000001,10,initial,36.05,328,361,393,0,0,9,9,9,0,0,,,,,1,0,1,0,0,33,33,12,,,,,num_3,1.7315573000814766,num_3,0.2,1.2,0.25,0.9,9.01073,32.43864,return,21.357849000021815,,,,,,,10,21,female,up_down_width,2023_Aug_28_1516,exp1,2021.2.3,60.05075489302205,
,,,,,,,,,,,,,,,,3,8.2,10,11.8,0,0,1.8000000000000003,1.7000000000000002,0.1,3.7,10,match,36.05,296,361,425,0,0,9,9,9,0,0,,,,,1,0,1,0,0,34,34,49,,,,,num_3,1.8639130999799818,num_3,0.35,0.5,0.10000000000000002,1.25,3.60429,45.05366,return,6.765813200036064,,,,,,,10,21,female,up_down_width,2023_Aug_28_1516,exp1,2021.2.3,60.05075489302205,
,,,,,,,,,,,,,,,,5,8.2,9.1,10,10.9,11.8,0.9,0.65,0.25,3.85,10,initial,36.05,296,328,361,393,425,9,9,9,9,9,,,,,1,0,1,0,0,35,35,50,,,,,num_5,1.2163854000391439,num_5,0.3,1.1,0.25,1.1,9.01073,39.64722,return,5.581402600044385,,,,,,,10,21,female,up_down_width,2023_Aug_28_1516,exp1,2021.2.3,60.05075489302205,
,,,,,,,,,,,,,,,,4,9.25,9.75,10.25,10.75,0,0.5,0.25,0.25,1.75,10,initial,36.05,333,351,370,388,0,9,9,9,9,0,,,,,1,0,1,0,0,36,36,20,,,,,num_4,1.3945458999369293,num_4,0.1,0.4,0.2,0.5,7.20859,18.02146,return,5.497128200018778,,,,,,,10,21,female,up_down_width,2023_Aug_28_1516,exp1,2021.2.3,60.05075489302205,
,,,,,,,,,,,,,,,,4,8.65,9.55,10.45,11.35,0,0.9,0.8,0.1,2.8000000000000003,10,initial,36.05,312,344,377,409,0,9,9,9,9,0,,,,,1,0,1,0,0,37,37,30,,,,,num_4,1.8703185999765992,num_4,0.2,0.8,0.15000000000000002,0.7,5.40644,25.23005,return,4.178681300021708,,,,,,,10,21,female,up_down_width,2023_Aug_28_1516,exp1,2021.2.3,60.05075489302205,
,,,,,,,,,,,,,,,,4,8.95,9.65,10.35,11.05,0,0.7,0.6,0.1,2.1999999999999997,10,initial,36.05,323,348,373,398,0,9,9,9,9,0,,,,,1,0,1,0,0,38,38,24,,,,,num_5,1.4799967999570072,num_5,0.3,0.7,0.10000000000000002,0.6,3.60429,21.62576,return,4.233231399906799,,,,,,,10,21,female,up_down_width,2023_Aug_28_1516,exp1,2021.2.3,60.05075489302205,
,,,,,,,,,,,,,,,,5,9.25,9.625,10,10.375,10.75,0.375,0.125,0.25,1.75,10,match,36.05,333,347,361,374,388,9,9,9,9,9,,,,,1,0,1,0,0,39,39,21,,,,,num_4,1.161242900067009,num_4,0.35,1.3,0.25,0.4,9.01073,14.41717,return,6.743861600058153,,,,,,,10,21,female,up_down_width,2023_Aug_28_1516,exp1,2021.2.3,60.05075489302205,
,,,,,,,,,,,,,,,,5,9,9.5,10,10.5,11,0.5,0.4,0.1,2.1,10,initial,36.05,324,342,361,379,397,9,9,9,9,9,,,,,1,0,1,0,0,40,40,36,,,,,num_5,1.6459858999587595,num_5,0.15,0.4,0.15,0.45,5.40644,16.21932,return,2.9233696000883356,,,,,,,10,21,female,up_down_width,2023_Aug_28_1516,exp1,2021.2.3,60.05075489302205,
,,,,,,,,,,,,,,,,5,8.2,9.1,10,10.9,11.8,0.9,0.8,0.1,3.7,10,initial,36.05,296,328,361,393,425,9,9,9,9,9,,,,,1,0,1,0,0,41,41,48,,,,,num_5,1.5619854000397027,num_5,0.35,1.3,0.10000000000000002,0.85,3.60429,30.63649,return,8.058112799888477,,,,,,,10,21,female,up_down_width,2023_Aug_28_1516,exp1,2021.2.3,60.05075489302205,
,,,,,,,,,,,,,,,,5,8.65,9.325,10,10.675,11.35,0.6749999999999999,0.575,0.1,2.8,10,match,36.05,312,336,361,385,409,9,9,9,9,9,,,,,1,0,1,0,0,42,42,31,,,,,num_5,1.6743998999008909,num_5,0.3,1.0,0.10000000000000002,0.9,3.60429,32.43864,return,5.445468100020662,,,,,,,10,21,female,up_down_width,2023_Aug_28_1516,exp1,2021.2.3,60.05075489302205,
,,,,,,,,,,,,,,,,4,9.425,9.808333333333334,10.191666666666666,10.575,0,0.3833333333333333,0.1333333333333333,0.25,1.4,10,match,36.05,340,354,367,381,0,9,9,9,9,0,,,,,1,0,1,0,0,43,43,5,,,,,num_4,1.1291086999699473,num_4,0.45,1.1,0.35000000000000003,0.6,12.61502,21.62576,return,8.184471099986695,,,,,,,10,21,female,up_down_width,2023_Aug_28_1516,exp1,2021.2.3,60.05075489302205,
,,,,,,,,,,,,,,,,3,9,10,11,0,0,0.9999999999999999,0.5999999999999999,0.4,2.4,10,match,36.05,324,361,397,0,0,9,9,9,0,0,,,,,1,0,1,0,0,44,44,41,,,,,num_3,1.8605899999383837,num_3,0.3,0.7,0.49999999999999994,0.7,18.02146,25.23005,return,4.617105099954642,,,,,,,10,21,female,up_down_width,2023_Aug_28_1516,exp1,2021.2.3,60.05075489302205,
,,,,,,,,,,,,,,,,5,9.175,9.5875,10,10.4125,10.825,0.4125,0.16249999999999998,0.25,1.9,10,match,36.05,331,346,361,375,390,9,9,9,9,9,,,,,1,0,1,0,0,45,45,23,,,,,num_4,1.5452956000808626,num_4,0.35,0.5,0.49999999999999994,0.7,18.02146,25.23005,return,6.986844199942425,,,,,,,10,21,female,up_down_width,2023_Aug_28_1516,exp1,2021.2.3,60.05075489302205,
,,,,,,,,,,,,,,,,3,9.3,10,10.7,0,0,0.7,0.44999999999999996,0.25,1.65,10,initial,36.05,335,361,386,0,0,9,9,9,0,0,,,,,1,0,1,0,0,46,46,8,,,,,num_3,1.8283209999790415,num_3,0.2,0.5,0.5499999999999999,0.95,19.82361,34.24078,return,8.2017640999984,,,,,,,10,21,female,up_down_width,2023_Aug_28_1516,exp1,2021.2.3,60.05075489302205,
,,,,,,,,,,,,,,,,5,8.6,9.3,10,10.7,11.4,0.7,0.6,0.1,2.9,10,initial,36.05,310,335,361,386,411,9,9,9,9,9,,,,,1,0,1,0,0,47,47,42,,,,,num_5,1.268797899945639,num_5,0.3,0.6,0.15000000000000002,0.85,5.40644,30.63649,return,5.583863400039263,,,,,,,10,21,female,up_down_width,2023_Aug_28_1516,exp1,2021.2.3,60.05075489302205,
,,,,,,,,,,,,,,,,3,9,10,11,0,0,1,0.75,0.25,2.25,10,match,36.05,324,361,397,0,0,9,9,9,0,0,,,,,1,0,1,0,0,48,48,39,,,,,num_3,2.8684118998935446,num_3,0.4,0.6,0.25000000000000006,0.8,9.01073,28.83434,return,5.135190600063652,,,,,,,10,21,female,up_down_width,2023_Aug_28_1516,exp1,2021.2.3,60.05075489302205,
,,,,,,,,,,,,,,,,3,9.1,10,10.9,0,0,0.9,0.5,0.4,2.2,10,initial,36.05,328,361,393,0,0,9,9,9,0,0,,,,,1,0,1,0,0,49,49,16,,,,,num_3,1.5418522000545636,num_3,0.35,0.5,0.25,1.0,9.01073,36.04293,return,6.391533900052309,,,,,,,10,21,female,up_down_width,2023_Aug_28_1516,exp1,2021.2.3,60.05075489302205,
,,,,,,,,,,,,,,,,4,8.65,9.55,10.45,11.35,0,0.9,0.5,0.4,3.1,10,initial,36.05,312,344,377,409,0,9,9,9,9,0,,,,,1,0,1,0,0,50,50,34,,,,,num_4,1.5177456999663264,num_4,0.2,0.4,0.35,0.8,12.61502,28.83434,return,4.2222945999819785,,,,,,,10,21,female,up_down_width,2023_Aug_28_1516,exp1,2021.2.3,60.05075489302205,
,,,,,,,,,,,,,,,,5,8.95,9.475,10,10.525,11.05,0.525,0.125,0.4,2.5,10,match,36.05,323,342,361,379,398,9,9,9,9,9,,,,,1,0,1,0,0,51,51,29,,,,,num_5,1.86961280007381,num_5,0.25,1.3,0.25,0.45,9.01073,16.21932,return,6.290274300030433,,,,,,,10,21,female,up_down_width,2023_Aug_28_1516,exp1,2021.2.3,60.05075489302205,
,,,,,,,,,,,,,,,,3,8.525,10,11.475,0,0,1.475,1.225,0.25,3.2,10,match,36.05,307,361,414,0,0,9,9,9,0,0,,,,,1,0,1,0,0,52,52,47,,,,,num_3,1.8485096000367776,num_3,0.1,1.1,0.3,1.2,10.81288,43.25151,return,6.29928680008743,,,,,,,10,21,female,up_down_width,2023_Aug_28_1516,exp1,2021.2.3,60.05075489302205,
,,,,,,,,,,,,,,,,5,8.95,9.475,10,10.525,11.05,0.525,0.275,0.25,2.35,10,match,36.05,323,342,361,379,398,9,9,9,9,9,,,,,1,0,1,0,0,53,53,27,,,,,num_4,1.437851700000465,num_4,0.15,0.6,0.15000000000000002,0.6,5.40644,21.62576,return,4.785941999987699,,,,,,,10,21,female,up_down_width,2023_Aug_28_1516,exp1,2021.2.3,60.05075489302205,
,,,,,,,,,,,,,,,,,,,,,,,,,,,,,,,,,,,,,,,,,,,1,0,1,0,,,,,,,,,,,,,,,,,,,,,,2237.5927592000226,None,2237.5927592000226,None,10,21,female,up_down_width,2023_Aug_28_1516,exp1,2021.2.3,60.05075489302205,
,,,,,,,,,,,,,,,,3,9.1,10,10.9,0,0,0.9,0.65,0.25,2.05,10,initial,36.05,328,361,393,0,0,9,9,9,0,0,,,,,2,0,2,0,0,0,0,14,,,,,num_3,1.49840970011428,num_3,0.2,0.7,0.2,1.0,7.20859,36.04293,return,4.12611279997509,,,,,,,10,21,female,up_down_width,2023_Aug_28_1516,exp1,2021.2.3,60.05075489302205,
,,,,,,,,,,,,,,,,5,8.95,9.475,10,10.525,11.05,0.525,0.275,0.25,2.35,10,match,36.05,323,342,361,379,398,9,9,9,9,9,,,,,2,0,2,0,0,1,1,27,,,,,num_5,1.4031112999655306,num_5,0.1,0.3,0.2,0.55,7.20859,19.82361,return,7.330122100072913,,,,,,,10,21,female,up_down_width,2023_Aug_28_1516,exp1,2021.2.3,60.05075489302205,
,,,,,,,,,,,,,,,,5,8.6,9.3,10,10.7,11.4,0.7,0.29999999999999993,0.4,3.1999999999999997,10,initial,36.05,310,335,361,386,411,9,9,9,9,9,,,,,2,0,2,0,0,2,2,46,,,,,num_5,1.3370442000450566,num_5,0.3,0.7,0.3,0.6,10.81288,21.62576,return,3.5690149000147358,,,,,,,10,21,female,up_down_width,2023_Aug_28_1516,exp1,2021.2.3,60.05075489302205,
,,,,,,,,,,,,,,,,4,9.1,9.7,10.3,10.9,0,0.6000000000000001,0.20000000000000004,0.4,2.2,10,match,36.05,328,350,371,393,0,9,9,9,9,0,,,,,2,0,2,0,0,3,3,17,,,,,num_4,1.296645800000988,num_4,0.15,1.1,0.2,0.9,7.20859,32.43864,return,5.339492099941708,,,,,,,10,21,female,up_down_width,2023_Aug_28_1516,exp1,2021.2.3,60.05075489302205,
,,,,,,,,,,,,,,,,3,8.6,10,11.4,0,0,1.4,1.2999999999999998,0.1,2.9,10,match,36.05,310,361,411,0,0,9,9,9,0,0,,,,,2,0,2,0,0,4,4,43,,,,,num_2,1.7143912999890745,num_2,0.35,1.6,0.10000000000000002,2.1,3.60429,75.69015,return,6.094127199961804,,,,,,,10,21,female,up_down_width,2023_Aug_28_1516,exp1,2021.2.3,60.05075489302205,
,,,,,,,,,,,,,,,,5,8.6,9.3,10,10.7,11.4,0.7,0.44999999999999996,0.25,3.05,10,initial,36.05,310,335,361,386,411,9,9,9,9,9,,,,,2,0,2,0,0,5,5,44,,,,,num_5,2.4335259000072256,num_5,0.1,0.8,0.15000000000000002,0.75,5.40644,27.0322,return,5.472853900049813,,,,,,,10,21,female,up_down_width,2023_Aug_28_1516,exp1,2021.2.3,60.05075489302205,
,,,,,,,,,,,,,,,,3,8.525,10,11.475,0,0,1.475,1.225,0.25,3.2,10,match,36.05,307,361,414,0,0,9,9,9,0,0,,,,,2,0,2,0,0,6,6,47,,,,,num_2,1.3570235000224784,num_2,0.4,1.6,0.15000000000000008,2.1,5.40644,75.69015,return,5.061563899973407,,,,,,,10,21,female,up_down_width,2023_Aug_28_1516,exp1,2021.2.3,60.05075489302205,
,,,,,,,,,,,,,,,,4,8.95,9.65,10.35,11.05,0,0.7,0.29999999999999993,0.4,2.5,10,initial,36.05,323,348,373,398,0,9,9,9,9,0,,,,,2,0,2,0,0,7,7,28,,,,,num_4,1.3619143000105396,num_4,0.35,1.1,0.25,0.6,9.01073,21.62576,return,4.426134700071998,,,,,,,10,21,female,up_down_width,2023_Aug_28_1516,exp1,2021.2.3,60.05075489302205,
,,,,,,,,,,,,,,,,3,8.2,10,11.8,0,0,1.7999999999999998,1.4,0.4,4,10,match,36.05,296,361,425,0,0,9,9,9,0,0,,,,,2,0,2,0,0,8,8,53,,,,,num_3,1.8781870000530034,num_3,0.15,1.1,0.35,1.35,12.61502,48.65795,return,6.506756599992514,,,,,,,10,21,female,up_down_width,2023_Aug_28_1516,exp1,2021.2.3,60.05075489302205,
,,,,,,,,,,,,,,,,5,8.2,9.1,10,10.9,11.8,0.9,0.65,0.25,3.85,10,initial,36.05,296,328,361,393,425,9,9,9,9,9,,,,,2,0,2,0,0,9,9,50,,,,,num_5,1.374956699903123,num_5,0.25,1.3,0.2,0.7,7.20859,25.23005,return,5.190636400016956,,,,,,,10,21,female,up_down_width,2023_Aug_28_1516,exp1,2021.2.3,60.05075489302205,
,,,,,,,,,,,,,,,,5,9.25,9.625,10,10.375,10.75,0.375,0.125,0.25,1.75,10,match,36.05,333,347,361,374,388,9,9,9,9,9,,,,,2,0,2,0,0,10,10,21,,,,,num_4,1.3434174000285566,num_4,0.3,0.9,0.3,0.5,10.81288,18.02146,return,2.4928463000105694,,,,,,,10,21,female,up_down_width,2023_Aug_28_1516,exp1,2021.2.3,60.05075489302205,
,,,,,,,,,,,,,,,,5,9,9.5,10,10.5,11,0.5,0.4,0.1,2.1,10,initial,36.05,324,342,361,379,397,9,9,9,9,9,,,,,2,0,2,0,0,11,11,36,,,,,num_5,1.589426799910143,num_5,0.4,0.7,0.20000000000000007,0.45,7.20859,16.21932,return,6.688680300023407,,,,,,,10,21,female,up_down_width,2023_Aug_28_1516,exp1,2021.2.3,60.05075489302205,
,,,,,,,,,,,,,,,,4,9.1,9.7,10.3,10.9,0,0.5999999999999999,0.3499999999999999,0.25,2.05,10,match,36.05,328,350,371,393,0,9,9,9,9,0,,,,,2,0,2,0,0,12,12,15,,,,,num_4,1.729776700027287,num_4,0.35,1.1,0.15000000000000002,0.7,5.40644,25.23005,return,3.0514608999947086,,,,,,,10,21,female,up_down_width,2023_Aug_28_1516,exp1,2021.2.3,60.05075489302205,
,,,,,,,,,,,,,,,,4,9.5,9.833333333333334,10.166666666666666,10.5,0,0.33333333333333337,0.23333333333333336,0.1,1.1,10,match,36.05,342,354,367,379,0,9,9,9,9,0,,,,,2,0,2,0,0,13,13,1,,,,,num_5,2.1322840999346226,num_5,0.3,1.3,0.15000000000000002,0.55,5.40644,19.82361,return,5.695487899938598,,,,,,,10,21,female,up_down_width,2023_Aug_28_1516,exp1,2021.2.3,60.05075489302205,
,,,,,,,,,,,,,,,,5,9.175,9.5875,10,10.4125,10.825,0.4125,0.16249999999999998,0.25,1.9,10,match,36.05,331,346,361,375,390,9,9,9,9,9,,,,,2,0,2,0,0,14,14,23,,,,,num_5,1.2439564000815153,num_5,0.15,1.1,0.15000000000000002,0.5,5.40644,18.02146,return,6.585016699973494,,,,,,,10,21,female,up_down_width,2023_Aug_28_1516,exp1,2021.2.3,60.05075489302205,
,,,,,,,,,,,,,,,,3,9,10,11,0,0,1,0.75,0.25,2.25,10,match,36.05,324,361,397,0,0,9,9,9,0,0,,,,,2,0,2,0,0,15,15,39,,,,,num_3,1.9460538000566885,num_3,0.2,0.8,0.3,0.85,10.81288,30.63649,return,3.2600041000405326,,,,,,,10,21,female,up_down_width,2023_Aug_28_1516,exp1,2021.2.3,60.05075489302205,
,,,,,,,,,,,,,,,,4,9.1,9.7,10.3,10.9,0,0.6,0.5,0.1,1.9,10,match,36.05,328,350,371,393,0,9,9,9,9,0,,,,,2,0,2,0,0,16,16,13,,,,,num_3,2.081202199915424,num_3,0.1,0.4,0.10000000000000002,0.75,3.60429,27.0322,return,7.406105700065382,,,,,,,10,21,female,up_down_width,2023_Aug_28_1516,exp1,2021.2.3,60.05075489302205,
,,,,,,,,,,,,,,,,3,9.1,10,10.9,0,0,0.9,0.8,0.1,1.9000000000000001,10,initial,36.05,328,361,393,0,0,9,9,9,0,0,,,,,2,0,2,0,0,17,17,12,,,,,num_3,1.4932626999216154,num_3,0.2,0.7,0.10000000000000002,0.85,3.60429,30.63649,return,4.873157600057311,,,,,,,10,21,female,up_down_width,2023_Aug_28_1516,exp1,2021.2.3,60.05075489302205,
,,,,,,,,,,,,,,,,4,9.25,9.75,10.25,10.75,0,0.5,0.09999999999999998,0.4,1.9,10,initial,36.05,333,351,370,388,0,9,9,9,9,0,,,,,2,0,2,0,0,18,18,22,,,,,num_4,1.8900729999877512,num_4,0.35,1.1,0.25,0.4,9.01073,14.41717,return,3.9738007000414655,,,,,,,10,21,female,up_down_width,2023_Aug_28_1516,exp1,2021.2.3,60.05075489302205,
,,,,,,,,,,,,,,,,3,9.3,10,10.7,0,0,0.7,0.29999999999999993,0.4,1.8,10,initial,36.05,335,361,386,0,0,9,9,9,0,0,,,,,2,0,2,0,0,19,19,10,,,,,num_3,1.5903058000840247,num_3,0.15,0.8,0.44999999999999996,0.65,16.21932,23.4279,return,10.100941200042143,,,,,,,10,21,female,up_down_width,2023_Aug_28_1516,exp1,2021.2.3,60.05075489302205,
,,,,,,,,,,,,,,,,3,9.5,10,10.5,0,0,0.5,0.09999999999999998,0.4,1.4000000000000001,10,initial,36.05,342,361,379,0,0,9,9,9,0,0,,,,,2,0,2,0,0,20,20,4,,,,,num_3,2.440567700075917,num_3,0.35,0.4,0.35,0.5,12.61502,18.02146,return,3.254031699965708,,,,,,,10,21,female,up_down_width,2023_Aug_28_1516,exp1,2021.2.3,60.05075489302205,
,,,,,,,,,,,,,,,,5,8.65,9.325,10,10.675,11.35,0.6749999999999999,0.575,0.1,2.8,10,match,36.05,312,336,361,385,409,9,9,9,9,9,,,,,2,0,2,0,0,21,21,31,,,,,num_5,2.63445390004199,num_5,0.45,1.2,0.10000000000000007,0.75,3.60429,27.0322,return,4.7043443999718875,,,,,,,10,21,female,up_down_width,2023_Aug_28_1516,exp1,2021.2.3,60.05075489302205,
,,,,,,,,,,,,,,,,4,8.65,9.55,10.45,11.35,0,0.9,0.65,0.25,2.95,10,initial,36.05,312,344,377,409,0,9,9,9,9,0,,,,,2,0,2,0,0,22,22,32,,,,,num_4,1.7816192000173032,num_4,0.3,0.5,0.10000000000000002,0.8,3.60429,28.83434,return,3.436275399988517,,,,,,,10,21,female,up_down_width,2023_Aug_28_1516,exp1,2021.2.3,60.05075489302205,
,,,,,,,,,,,,,,,,3,9.1,10,10.9,0,0,0.9,0.5,0.4,2.2,10,initial,36.05,328,361,393,0,0,9,9,9,0,0,,,,,2,0,2,0,0,23,23,16,,,,,num_3,1.5683647999539971,num_3,0.25,0.6,0.15000000000000002,0.95,5.40644,34.24078,return,5.649777399958111,,,,,,,10,21,female,up_down_width,2023_Aug_28_1516,exp1,2021.2.3,60.05075489302205,
,,,,,,,,,,,,,,,,5,8.2,9.1,10,10.9,11.8,0.9,0.5,0.4,4,10,initial,36.05,296,328,361,393,425,9,9,9,9,9,,,,,2,0,2,0,0,24,24,52,,,,,num_5,2.715158600010909,num_5,0.3,0.4,0.39999999999999997,0.85,14.41717,30.63649,return,6.94173290010076,,,,,,,10,21,female,up_down_width,2023_Aug_28_1516,exp1,2021.2.3,60.05075489302205,
,,,,,,,,,,,,,,,,4,9.25,9.75,10.25,10.75,0,0.5,0.25,0.25,1.75,10,initial,36.05,333,351,370,388,0,9,9,9,9,0,,,,,2,0,2,0,0,25,25,20,,,,,num_4,1.6649264000589028,num_4,0.3,0.6,0.35,0.8,12.61502,28.83434,return,2.686009200057015,,,,,,,10,21,female,up_down_width,2023_Aug_28_1516,exp1,2021.2.3,60.05075489302205,
,,,,,,,,,,,,,,,,4,9.425,9.808333333333334,10.191666666666666,10.575,0,0.3833333333333333,0.1333333333333333,0.25,1.4,10,match,36.05,340,354,367,381,0,9,9,9,9,0,,,,,2,0,2,0,0,26,26,5,,,,,num_4,1.1505785000044852,num_4,0.35,1.1,0.3,0.5,10.81288,18.02146,return,3.487884399946779,,,,,,,10,21,female,up_down_width,2023_Aug_28_1516,exp1,2021.2.3,60.05075489302205,
,,,,,,,,,,,,,,,,4,8.95,9.65,10.35,11.05,0,0.7,0.6,0.1,2.1999999999999997,10,initial,36.05,323,348,373,398,0,9,9,9,9,0,,,,,2,0,2,0,0,27,27,24,,,,,num_4,1.2391727999784052,num_4,0.2,1.3,0.15000000000000002,0.8,5.40644,28.83434,return,3.315425500040874,,,,,,,10,21,female,up_down_width,2023_Aug_28_1516,exp1,2021.2.3,60.05075489302205,
,,,,,,,,,,,,,,,,3,8.6,10,11.4,0,0,1.4,1.15,0.25,3.05,10,match,36.05,310,361,411,0,0,9,9,9,0,0,,,,,2,0,2,0,0,28,28,45,,,,,num_3,1.7608184999553487,num_3,0.2,1.3,0.2,1.3,7.20859,46.85581,return,1.5784720999654382,,,,,,,10,21,female,up_down_width,2023_Aug_28_1516,exp1,2021.2.3,60.05075489302205,
,,,,,,,,,,,,,,,,4,9.3,9.766666666666667,10.233333333333333,10.7,0,0.4666666666666667,0.21666666666666665,0.25,1.65,10,match,36.05,335,352,369,386,0,9,9,9,9,0,,,,,2,0,2,0,0,29,29,9,,,,,num_4,1.1584859000286087,num_4,0.4,1.1,0.25000000000000006,0.7,9.01073,25.23005,return,3.2207728000357747,,,,,,,10,21,female,up_down_width,2023_Aug_28_1516,exp1,2021.2.3,60.05075489302205,
,,,,,,,,,,,,,,,,5,9.25,9.625,10,10.375,10.75,0.375,0.275,0.1,1.6,10,match,36.05,333,347,361,374,388,9,9,9,9,9,,,,,2,0,2,0,0,30,30,19,,,,,num_5,1.3472840000176802,num_5,0.15,1.2,0.15,0.85,5.40644,30.63649,return,5.374131099903025,,,,,,,10,21,female,up_down_width,2023_Aug_28_1516,exp1,2021.2.3,60.05075489302205,
,,,,,,,,,,,,,,,,5,9,9.5,10,10.5,11,0.5,0.25,0.25,2.25,10,initial,36.05,324,342,361,379,397,9,9,9,9,9,,,,,2,0,2,0,0,31,31,38,,,,,num_5,1.8253524999599904,num_5,0.25,1.2,0.2,0.7,7.20859,25.23005,return,6.324972600094043,,,,,,,10,21,female,up_down_width,2023_Aug_28_1516,exp1,2021.2.3,60.05075489302205,
,,,,,,,,,,,,,,,,4,9.3,9.766666666666667,10.233333333333333,10.7,0,0.4666666666666667,0.3666666666666667,0.1,1.5,10,match,36.05,335,352,369,386,0,9,9,9,9,0,,,,,2,0,2,0,0,32,32,7,,,,,num_4,1.6349309999495745,num_4,0.35,1.3,0.15000000000000002,0.7,5.40644,25.23005,return,5.006513600004837,,,,,,,10,21,female,up_down_width,2023_Aug_28_1516,exp1,2021.2.3,60.05075489302205,
,,,,,,,,,,,,,,,,5,9,9.5,10,10.5,11,0.5,0.09999999999999998,0.4,2.4,10,initial,36.05,324,342,361,379,397,9,9,9,9,9,,,,,2,0,2,0,0,33,33,40,,,,,num_5,2.267050900030881,num_5,0.1,0.8,0.49999999999999994,0.65,18.02146,23.4279,return,5.5995625999057665,,,,,,,10,21,female,up_down_width,2023_Aug_28_1516,exp1,2021.2.3,60.05075489302205,
,,,,,,,,,,,,,,,,4,9.25,9.75,10.25,10.75,0,0.5,0.4,0.1,1.6,10,initial,36.05,333,351,370,388,0,9,9,9,9,0,,,,,2,0,2,0,0,34,34,18,,,,,num_4,1.19648819998838,num_4,0.4,1.1,0.10000000000000007,0.9,3.60429,32.43864,return,4.829005900071934,,,,,,,10,21,female,up_down_width,2023_Aug_28_1516,exp1,2021.2.3,60.05075489302205,
,,,,,,,,,,,,,,,,3,8.2,10,11.8,0,0,1.8,1.55,0.25,3.85,10,match,36.05,296,361,425,0,0,9,9,9,0,0,,,,,2,0,2,0,0,35,35,51,,,,,num_4,2.6669910999480635,num_4,0.15,0.5,0.15,1.0,5.40644,36.04293,return,2.06114050000906,,,,,,,10,21,female,up_down_width,2023_Aug_28_1516,exp1,2021.2.3,60.05075489302205,
,,,,,,,,,,,,,,,,4,9.3,9.766666666666667,10.233333333333333,10.7,0,0.4666666666666667,0.06666666666666665,0.4,1.8,10,match,36.05,335,352,369,386,0,9,9,9,9,0,,,,,2,0,2,0,0,36,36,11,,,,,num_4,1.0619521000189707,num_4,0.25,0.8,0.39999999999999997,0.5,14.41717,18.02146,return,3.6579078999347985,,,,,,,10,21,female,up_down_width,2023_Aug_28_1516,exp1,2021.2.3,60.05075489302205,
,,,,,,,,,,,,,,,,3,9.3,10,10.7,0,0,0.7,0.6,0.1,1.5,10,initial,36.05,335,361,386,0,0,9,9,9,0,0,,,,,2,0,2,0,0,37,37,6,,,,,num_3,2.2287158999824896,num_3,0.25,1.2,0.10000000000000002,0.9,3.60429,32.43864,return,3.435799299972132,,,,,,,10,21,female,up_down_width,2023_Aug_28_1516,exp1,2021.2.3,60.05075489302205,
,,,,,,,,,,,,,,,,3,9,10,11,0,0,0.9999999999999999,0.5999999999999999,0.4,2.4,10,match,36.05,324,361,397,0,0,9,9,9,0,0,,,,,2,0,2,0,0,38,38,41,,,,,num_3,1.7417860000859946,num_3,0.15,0.7,0.25,0.9,9.01073,32.43864,return,3.4001791999908164,,,,,,,10,21,female,up_down_width,2023_Aug_28_1516,exp1,2021.2.3,60.05075489302205,
,,,,,,,,,,,,,,,,4,8.95,9.65,10.35,11.05,0,0.7,0.44999999999999996,0.25,2.3499999999999996,10,initial,36.05,323,348,373,398,0,9,9,9,9,0,,,,,2,0,2,0,0,39,39,26,,,,,num_4,1.2479382999008521,num_4,0.1,0.4,0.15000000000000002,0.7,5.40644,25.23005,return,3.307023400091566,,,,,,,10,21,female,up_down_width,2023_Aug_28_1516,exp1,2021.2.3,60.05075489302205,
,,,,,,,,,,,,,,,,3,9,10,11,0,0,1,0.9,0.1,2.1,10,match,36.05,324,361,397,0,0,9,9,9,0,0,,,,,2,0,2,0,0,40,40,37,,,,,num_3,2.3793005000334233,num_3,0.3,0.5,0.25,0.5,9.01073,18.02146,return,4.248978100018576,,,,,,,10,21,female,up_down_width,2023_Aug_28_1516,exp1,2021.2.3,60.05075489302205,
,,,,,,,,,,,,,,,,3,9.5,10,10.5,0,0,0.5,0.4,0.1,1.1,10,initial,36.05,342,361,379,0,0,9,9,9,0,0,,,,,2,0,2,0,0,41,41,0,,,,,num_3,1.73577699996531,num_3,0.3,0.6,0.15000000000000002,0.7,5.40644,25.23005,return,2.8172629000619054,,,,,,,10,21,female,up_down_width,2023_Aug_28_1516,exp1,2021.2.3,60.05075489302205,
,,,,,,,,,,,,,,,,5,8.95,9.475,10,10.525,11.05,0.525,0.42500000000000004,0.1,2.2,10,match,36.05,323,342,361,379,398,9,9,9,9,9,,,,,2,0,2,0,0,42,42,25,,,,,num_4,1.1909636000636965,num_4,0.15,1.2,0.15,0.8,5.40644,28.83434,return,3.9250964999664575,,,,,,,10,21,female,up_down_width,2023_Aug_28_1516,exp1,2021.2.3,60.05075489302205,
,,,,,,,,,,,,,,,,3,9.5,10,10.5,0,0,0.5,0.25,0.25,1.25,10,initial,36.05,342,361,379,0,0,9,9,9,0,0,,,,,2,0,2,0,0,43,43,2,,,,,num_3,1.739650100003928,num_3,0.3,0.4,0.2,0.55,7.20859,19.82361,return,4.246141399955377,,,,,,,10,21,female,up_down_width,2023_Aug_28_1516,exp1,2021.2.3,60.05075489302205,
,,,,,,,,,,,,,,,,4,8.65,9.55,10.45,11.35,0,0.9,0.8,0.1,2.8000000000000003,10,initial,36.05,312,344,377,409,0,9,9,9,9,0,,,,,2,0,2,0,0,44,44,30,,,,,num_4,0.8915995999705046,num_4,0.15,0.7,0.15,1.2,5.40644,43.25151,return,2.9511603000573814,,,,,,,10,21,female,up_down_width,2023_Aug_28_1516,exp1,2021.2.3,60.05075489302205,
,,,,,,,,,,,,,,,,4,8.65,9.55,10.45,11.35,0,0.9,0.5,0.4,3.1,10,initial,36.05,312,344,377,409,0,9,9,9,9,0,,,,,2,0,2,0,0,45,45,34,,,,,num_5,1.4904648000374436,num_5,0.3,0.9,0.39999999999999997,0.9,14.41717,32.43864,return,2.99691480002366,,,,,,,10,21,female,up_down_width,2023_Aug_28_1516,exp1,2021.2.3,60.05075489302205,
,,,,,,,,,,,,,,,,3,9.3,10,10.7,0,0,0.7,0.44999999999999996,0.25,1.65,10,initial,36.05,335,361,386,0,0,9,9,9,0,0,,,,,2,0,2,0,0,46,46,8,,,,,num_3,1.4663016999838874,num_3,0.2,0.3,0.35,1.05,12.61502,37.84507,return,5.3103039000416175,,,,,,,10,21,female,up_down_width,2023_Aug_28_1516,exp1,2021.2.3,60.05075489302205,
,,,,,,,,,,,,,,,,5,8.2,9.1,10,10.9,11.8,0.9,0.8,0.1,3.7,10,initial,36.05,296,328,361,393,425,9,9,9,9,9,,,,,2,0,2,0,0,47,47,48,,,,,num_4,1.393212000024505,num_4,0.15,0.3,0.15,1.0,5.40644,36.04293,return,2.5673788000131026,,,,,,,10,21,female,up_down_width,2023_Aug_28_1516,exp1,2021.2.3,60.05075489302205,
,,,,,,,,,,,,,,,,4,9.5,9.833333333333334,10.166666666666666,10.5,0,0.3333333333333333,0.08333333333333333,0.25,1.25,10,match,36.05,342,354,367,379,0,9,9,9,9,0,,,,,2,0,2,0,0,48,48,3,,,,,num_4,2.0984618000220507,num_4,0.1,1.1,0.2,0.4,7.20859,14.41717,return,3.163498100009747,,,,,,,10,21,female,up_down_width,2023_Aug_28_1516,exp1,2021.2.3,60.05075489302205,
,,,,,,,,,,,,,,,,5,8.65,9.325,10,10.675,11.35,0.675,0.275,0.4,3.1,10,match,36.05,312,336,361,385,409,9,9,9,9,9,,,,,2,0,2,0,0,49,49,35,,,,,num_5,1.1601489000022411,num_5,0.2,1.0,0.25,0.6,9.01073,21.62576,return,5.081761800101958,,,,,,,10,21,female,up_down_width,2023_Aug_28_1516,exp1,2021.2.3,60.05075489302205,
,,,,,,,,,,,,,,,,5,8.95,9.475,10,10.525,11.05,0.525,0.125,0.4,2.5,10,match,36.05,323,342,361,379,398,9,9,9,9,9,,,,,2,0,2,0,0,50,50,29,,,,,num_5,1.183919099974446,num_5,0.2,0.6,0.35,0.5,12.61502,18.02146,return,6.289267600048333,,,,,,,10,21,female,up_down_width,2023_Aug_28_1516,exp1,2021.2.3,60.05075489302205,
,,,,,,,,,,,,,,,,5,8.6,9.3,10,10.7,11.4,0.7,0.6,0.1,2.9,10,initial,36.05,310,335,361,386,411,9,9,9,9,9,,,,,2,0,2,0,0,51,51,42,,,,,num_5,1.981148699996993,num_5,0.35,1.0,0.25,0.5,9.01073,18.02146,return,3.886307399952784,,,,,,,10,21,female,up_down_width,2023_Aug_28_1516,exp1,2021.2.3,60.05075489302205,
,,,,,,,,,,,,,,,,3,8.2,10,11.8,0,0,1.8000000000000003,1.7000000000000002,0.1,3.7,10,match,36.05,296,361,425,0,0,9,9,9,0,0,,,,,2,0,2,0,0,52,52,49,,,,,num_3,1.8103460000129417,num_3,0.25,1,0.15000000000000002,1,5.40644,36.04293,return,2.2976688999915496,,,,,,,10,21,female,up_down_width,2023_Aug_28_1516,exp1,2021.2.3,60.05075489302205,
,,,,,,,,,,,,,,,,5,8.65,9.325,10,10.675,11.35,0.675,0.42500000000000004,0.25,2.95,10,match,36.05,312,336,361,385,409,9,9,9,9,9,,,,,2,0,2,0,0,53,53,33,,,,,num_6,1.8339410999324173,num_6,0.15,0.8,0.09999999999999999,0.4,3.60429,14.41717,return,2.4779345999704674,,,,,,,10,21,female,up_down_width,2023_Aug_28_1516,exp1,2021.2.3,60.05075489302205,
,,,,,,,,,,,,,,,,,,,,,,,,,,,,,,,,,,,,,,,,,,,2,0,2,0,,,,,,,,,,,,,,,,,,,,,,2671.4096337999217,None,2671.4096337999217,None,10,21,female,up_down_width,2023_Aug_28_1516,exp1,2021.2.3,60.05075489302205,
,,,,,,,,,,,,,,,,4,9.1,9.7,10.3,10.9,0,0.5999999999999999,0.3499999999999999,0.25,2.05,10,match,36.05,328,350,371,393,0,9,9,9,9,0,,,,,3,0,3,0,0,0,0,15,,,,,num_4,1.5864731000037864,num_4,0.2,0.9,0.25,0.6,9.01073,21.62576,return,3.5064234000165015,,,,,,,10,21,female,up_down_width,2023_Aug_28_1516,exp1,2021.2.3,60.05075489302205,
,,,,,,,,,,,,,,,,3,9.1,10,10.9,0,0,0.9,0.5,0.4,2.2,10,initial,36.05,328,361,393,0,0,9,9,9,0,0,,,,,3,0,3,0,0,1,1,16,,,,,num_3,1.7357060000067577,num_3,0.45,0.7,0.35000000000000003,0.7,12.61502,25.23005,return,2.956867099972442,,,,,,,10,21,female,up_down_width,2023_Aug_28_1516,exp1,2021.2.3,60.05075489302205,
,,,,,,,,,,,,,,,,4,9.5,9.833333333333334,10.166666666666666,10.5,0,0.33333333333333337,0.23333333333333336,0.1,1.1,10,match,36.05,342,354,367,379,0,9,9,9,9,0,,,,,3,0,3,0,0,2,2,1,,,,,num_4,1.227413700078614,num_4,0.2,1.2,0.15000000000000002,0.6,5.40644,21.62576,return,2.7135038999840617,,,,,,,10,21,female,up_down_width,2023_Aug_28_1516,exp1,2021.2.3,60.05075489302205,
,,,,,,,,,,,,,,,,5,8.2,9.1,10,10.9,11.8,0.9,0.5,0.4,4,10,initial,36.05,296,328,361,393,425,9,9,9,9,9,,,,,3,0,3,0,0,3,3,52,,,,,num_6,1.5393380000023171,num_6,0.4,1.0,0.20000000000000007,0.8,7.20859,28.83434,return,3.6215156000107527,,,,,,,10,21,female,up_down_width,2023_Aug_28_1516,exp1,2021.2.3,60.05075489302205,
,,,,,,,,,,,,,,,,5,8.2,9.1,10,10.9,11.8,0.9,0.65,0.25,3.85,10,initial,36.05,296,328,361,393,425,9,9,9,9,9,,,,,3,0,3,0,0,4,4,50,,,,,num_5,1.564703300013207,num_5,0.4,0.7,0.20000000000000007,0.85,7.20859,30.63649,return,3.4809409000445157,,,,,,,10,21,female,up_down_width,2023_Aug_28_1516,exp1,2021.2.3,60.05075489302205,
,,,,,,,,,,,,,,,,4,9.3,9.766666666666667,10.233333333333333,10.7,0,0.4666666666666667,0.3666666666666667,0.1,1.5,10,match,36.05,335,352,369,386,0,9,9,9,9,0,,,,,3,0,3,0,0,5,5,7,,,,,num_5,1.7913857999956235,num_5,0.3,1.1,0.15000000000000002,0.65,5.40644,23.4279,return,3.8604777000145987,,,,,,,10,21,female,up_down_width,2023_Aug_28_1516,exp1,2021.2.3,60.05075489302205,
,,,,,,,,,,,,,,,,5,9.25,9.625,10,10.375,10.75,0.375,0.125,0.25,1.75,10,match,36.05,333,347,361,374,388,9,9,9,9,9,,,,,3,0,3,0,0,6,6,21,,,,,num_5,1.5967468000017107,num_5,0.25,1.2,0.2,0.75,7.20859,27.0322,return,7.935163800022565,,,,,,,10,21,female,up_down_width,2023_Aug_28_1516,exp1,2021.2.3,60.05075489302205,
,,,,,,,,,,,,,,,,5,9.25,9.625,10,10.375,10.75,0.375,0.275,0.1,1.6,10,match,36.05,333,347,361,374,388,9,9,9,9,9,,,,,3,0,3,0,0,7,7,19,,,,,num_5,1.2152645000023767,num_5,0.1,0.4,0.2,0.55,7.20859,19.82361,return,4.092154500074685,,,,,,,10,21,female,up_down_width,2023_Aug_28_1516,exp1,2021.2.3,60.05075489302205,
,,,,,,,,,,,,,,,,3,9.5,10,10.5,0,0,0.5,0.09999999999999998,0.4,1.4000000000000001,10,initial,36.05,342,361,379,0,0,9,9,9,0,0,,,,,3,0,3,0,0,8,8,4,,,,,num_3,1.9325703999493271,num_3,0.25,0.7,0.39999999999999997,0.55,14.41717,19.82361,return,4.702352400054224,,,,,,,10,21,female,up_down_width,2023_Aug_28_1516,exp1,2021.2.3,60.05075489302205,
,,,,,,,,,,,,,,,,3,9,10,11,0,0,1,0.9,0.1,2.1,10,match,36.05,324,361,397,0,0,9,9,9,0,0,,,,,3,0,3,0,0,9,9,37,,,,,num_3,1.9774197998922318,num_3,0.25,1,0.05000000000000002,0.9,1.80215,32.43864,return,3.84711019997485,,,,,,,10,21,female,up_down_width,2023_Aug_28_1516,exp1,2021.2.3,60.05075489302205,
,,,,,,,,,,,,,,,,3,9.5,10,10.5,0,0,0.5,0.25,0.25,1.25,10,initial,36.05,342,361,379,0,0,9,9,9,0,0,,,,,3,0,3,0,0,10,10,2,,,,,num_3,1.9198723000008613,num_3,0.15,0.8,0.25,0.5,9.01073,18.02146,return,3.346199999912642,,,,,,,10,21,female,up_down_width,2023_Aug_28_1516,exp1,2021.2.3,60.05075489302205,
,,,,,,,,,,,,,,,,3,8.2,10,11.8,0,0,1.8000000000000003,1.7000000000000002,0.1,3.7,10,match,36.05,296,361,425,0,0,9,9,9,0,0,,,,,3,0,3,0,0,11,11,49,,,,,num_3,1.56645479996223,num_3,0.4,1.2,0.10000000000000007,1.35,3.60429,48.65795,return,3.5516326000215486,,,,,,,10,21,female,up_down_width,2023_Aug_28_1516,exp1,2021.2.3,60.05075489302205,
,,,,,,,,,,,,,,,,5,8.95,9.475,10,10.525,11.05,0.525,0.42500000000000004,0.1,2.2,10,match,36.05,323,342,361,379,398,9,9,9,9,9,,,,,3,0,3,0,0,12,12,25,,,,,num_5,1.258096699952148,num_5,0.3,0.4,0.10000000000000002,0.7,3.60429,25.23005,return,2.6280614999122918,,,,,,,10,21,female,up_down_width,2023_Aug_28_1516,exp1,2021.2.3,60.05075489302205,
,,,,,,,,,,,,,,,,3,8.2,10,11.8,0,0,1.8,1.55,0.25,3.85,10,match,36.05,296,361,425,0,0,9,9,9,0,0,,,,,3,0,3,0,0,13,13,51,,,,,num_2,1.8460676999529824,num_2,0.1,1.6,0.35,2.0,12.61502,72.08586,return,4.184725899947807,,,,,,,10,21,female,up_down_width,2023_Aug_28_1516,exp1,2021.2.3,60.05075489302205,
,,,,,,,,,,,,,,,,5,8.95,9.475,10,10.525,11.05,0.525,0.275,0.25,2.35,10,match,36.05,323,342,361,379,398,9,9,9,9,9,,,,,3,0,3,0,0,14,14,27,,,,,num_5,4.512738600024022,num_5,0.4,0.5,0.25000000000000006,0.8,9.01073,28.83434,return,2.8887557999696583,,,,,,,10,21,female,up_down_width,2023_Aug_28_1516,exp1,2021.2.3,60.05075489302205,
,,,,,,,,,,,,,,,,5,9,9.5,10,10.5,11,0.5,0.09999999999999998,0.4,2.4,10,initial,36.05,324,342,361,379,397,9,9,9,9,9,,,,,3,0,3,0,0,15,15,40,,,,,num_5,1.4919445000123233,num_5,0.1,0.7,0.39999999999999997,0.55,14.41717,19.82361,return,4.16731350007467,,,,,,,10,21,female,up_down_width,2023_Aug_28_1516,exp1,2021.2.3,60.05075489302205,
,,,,,,,,,,,,,,,,3,8.525,10,11.475,0,0,1.475,1.225,0.25,3.2,10,match,36.05,307,361,414,0,0,9,9,9,0,0,,,,,3,0,3,0,0,16,16,47,,,,,num_3,1.8751288999337703,num_3,0.35,0.4,0.3,1.1,10.81288,39.64722,return,6.6001139000291005,,,,,,,10,21,female,up_down_width,2023_Aug_28_1516,exp1,2021.2.3,60.05075489302205,
,,,,,,,,,,,,,,,,3,9,10,11,0,0,0.9999999999999999,0.5999999999999999,0.4,2.4,10,match,36.05,324,361,397,0,0,9,9,9,0,0,,,,,3,0,3,0,0,17,17,41,,,,,num_2,1.6178136999951676,num_2,0.3,1.6,0.49999999999999994,1.6,18.02146,57.66869,return,1.7579698000336066,,,,,,,10,21,female,up_down_width,2023_Aug_28_1516,exp1,2021.2.3,60.05075489302205,
,,,,,,,,,,,,,,,,5,8.6,9.3,10,10.7,11.4,0.7,0.6,0.1,2.9,10,initial,36.05,310,335,361,386,411,9,9,9,9,9,,,,,3,0,3,0,0,18,18,42,,,,,num_5,1.0665116000454873,num_5,0.15,0.3,0.25,0.5,9.01073,18.02146,return,4.559887900017202,,,,,,,10,21,female,up_down_width,2023_Aug_28_1516,exp1,2021.2.3,60.05075489302205,
,,,,,,,,,,,,,,,,5,8.95,9.475,10,10.525,11.05,0.525,0.125,0.4,2.5,10,match,36.05,323,342,361,379,398,9,9,9,9,9,,,,,3,0,3,0,0,19,19,29,,,,,num_5,2.649171099998057,num_5,0.25,1.1,0.15000000000000002,0.65,5.40644,23.4279,return,10.415159999975003,,,,,,,10,21,female,up_down_width,2023_Aug_28_1516,exp1,2021.2.3,60.05075489302205,
,,,,,,,,,,,,,,,,3,8.6,10,11.4,0,0,1.4,1.2999999999999998,0.1,2.9,10,match,36.05,310,361,411,0,0,9,9,9,0,0,,,,,3,0,3,0,0,20,20,43,,,,,num_2,1.7824777000350878,num_2,0.4,1.6,0.10000000000000007,2.3,3.60429,82.89874,return,2.9563752999529243,,,,,,,10,21,female,up_down_width,2023_Aug_28_1516,exp1,2021.2.3,60.05075489302205,
,,,,,,,,,,,,,,,,5,8.6,9.3,10,10.7,11.4,0.7,0.44999999999999996,0.25,3.05,10,initial,36.05,310,335,361,386,411,9,9,9,9,9,,,,,3,0,3,0,0,21,21,44,,,,,num_5,1.6966841999674216,num_5,0.4,1.2,0.15000000000000008,0.95,5.40644,34.24078,return,8.571457899990492,,,,,,,10,21,female,up_down_width,2023_Aug_28_1516,exp1,2021.2.3,60.05075489302205,
,,,,,,,,,,,,,,,,5,8.2,9.1,10,10.9,11.8,0.9,0.8,0.1,3.7,10,initial,36.05,296,328,361,393,425,9,9,9,9,9,,,,,3,0,3,0,0,22,22,48,,,,,num_5,1.5531591000035405,num_5,0.45,0.6,0.10000000000000007,0.9,3.60429,32.43864,return,3.5173752999398857,,,,,,,10,21,female,up_down_width,2023_Aug_28_1516,exp1,2021.2.3,60.05075489302205,
,,,,,,,,,,,,,,,,3,9.3,10,10.7,0,0,0.7,0.6,0.1,1.5,10,initial,36.05,335,361,386,0,0,9,9,9,0,0,,,,,3,0,3,0,0,23,23,6,,,,,num_3,1.7420798001112416,num_3,0.45,0.7,0.20000000000000007,0.65,7.20859,23.4279,return,5.368495800066739,,,,,,,10,21,female,up_down_width,2023_Aug_28_1516,exp1,2021.2.3,60.05075489302205,
,,,,,,,,,,,,,,,,5,8.6,9.3,10,10.7,11.4,0.7,0.29999999999999993,0.4,3.1999999999999997,10,initial,36.05,310,335,361,386,411,9,9,9,9,9,,,,,3,0,3,0,0,24,24,46,,,,,num_5,1.0736887999810278,num_5,0.25,0.7,0.44999999999999996,0.7,16.21932,25.23005,return,2.3096679999725893,,,,,,,10,21,female,up_down_width,2023_Aug_28_1516,exp1,2021.2.3,60.05075489302205,
,,,,,,,,,,,,,,,,4,8.95,9.65,10.35,11.05,0,0.7,0.29999999999999993,0.4,2.5,10,initial,36.05,323,348,373,398,0,9,9,9,9,0,,,,,3,0,3,0,0,25,25,28,,,,,num_4,1.067506300052628,num_4,0.2,0.6,0.3,0.6,10.81288,21.62576,return,1.9685549000278115,,,,,,,10,21,female,up_down_width,2023_Aug_28_1516,exp1,2021.2.3,60.05075489302205,
,,,,,,,,,,,,,,,,5,9,9.5,10,10.5,11,0.5,0.25,0.25,2.25,10,initial,36.05,324,342,361,379,397,9,9,9,9,9,,,,,3,0,3,0,0,26,26,38,,,,,num_5,1.2578437000047415,num_5,0.1,1.0,0.3,0.55,10.81288,19.82361,return,3.9565439000725746,,,,,,,10,21,female,up_down_width,2023_Aug_28_1516,exp1,2021.2.3,60.05075489302205,
,,,,,,,,,,,,,,,,4,8.65,9.55,10.45,11.35,0,0.9,0.8,0.1,2.8000000000000003,10,initial,36.05,312,344,377,409,0,9,9,9,9,0,,,,,3,0,3,0,0,27,27,30,,,,,num_4,2.216115300077945,num_4,0.2,0.7,0.10000000000000002,0.6,3.60429,21.62576,return,3.0385943999281153,,,,,,,10,21,female,up_down_width,2023_Aug_28_1516,exp1,2021.2.3,60.05075489302205,
,,,,,,,,,,,,,,,,4,9.1,9.7,10.3,10.9,0,0.6,0.5,0.1,1.9,10,match,36.05,328,350,371,393,0,9,9,9,9,0,,,,,3,0,3,0,0,28,28,13,,,,,num_4,0.9404793999856338,num_4,0.15,1.1,0.09999999999999999,0.9,3.60429,32.43864,return,2.6609011000255123,,,,,,,10,21,female,up_down_width,2023_Aug_28_1516,exp1,2021.2.3,60.05075489302205,
,,,,,,,,,,,,,,,,5,9.175,9.5875,10,10.4125,10.825,0.4125,0.16249999999999998,0.25,1.9,10,match,36.05,331,346,361,375,390,9,9,9,9,9,,,,,3,0,3,0,0,29,29,23,,,,,num_4,0.9718547000084072,num_4,0.25,0.8,0.2,0.4,7.20859,14.41717,return,2.4855718999169767,,,,,,,10,21,female,up_down_width,2023_Aug_28_1516,exp1,2021.2.3,60.05075489302205,
,,,,,,,,,,,,,,,,5,8.65,9.325,10,10.675,11.35,0.6749999999999999,0.575,0.1,2.8,10,match,36.05,312,336,361,385,409,9,9,9,9,9,,,,,3,0,3,0,0,30,30,31,,,,,num_5,1.133396500023082,num_5,0.3,0.4,0.10000000000000002,0.5,3.60429,18.02146,return,4.381269500008784,,,,,,,10,21,female,up_down_width,2023_Aug_28_1516,exp1,2021.2.3,60.05075489302205,
,,,,,,,,,,,,,,,,5,8.65,9.325,10,10.675,11.35,0.675,0.42500000000000004,0.25,2.95,10,match,36.05,312,336,361,385,409,9,9,9,9,9,,,,,3,0,3,0,0,31,31,33,,,,,num_5,1.1426173999207094,num_5,0.25,0.9,0.15000000000000002,0.7,5.40644,25.23005,return,2.1562655000016093,,,,,,,10,21,female,up_down_width,2023_Aug_28_1516,exp1,2021.2.3,60.05075489302205,
,,,,,,,,,,,,,,,,4,9.25,9.75,10.25,10.75,0,0.5,0.25,0.25,1.75,10,initial,36.05,333,351,370,388,0,9,9,9,9,0,,,,,3,0,3,0,0,32,32,20,,,,,num_4,0.9467616999754682,num_4,0.3,0.4,0.15000000000000002,0.7,5.40644,25.23005,return,1.8538665999658406,,,,,,,10,21,female,up_down_width,2023_Aug_28_1516,exp1,2021.2.3,60.05075489302205,
,,,,,,,,,,,,,,,,3,9.5,10,10.5,0,0,0.5,0.4,0.1,1.1,10,initial,36.05,342,361,379,0,0,9,9,9,0,0,,,,,3,0,3,0,0,33,33,0,,,,,num_4,1.4823320000432432,num_4,0.4,0.8,0.10000000000000007,0.4,3.60429,14.41717,return,5.535018200054765,,,,,,,10,21,female,up_down_width,2023_Aug_28_1516,exp1,2021.2.3,60.05075489302205,
,,,,,,,,,,,,,,,,4,9.3,9.766666666666667,10.233333333333333,10.7,0,0.4666666666666667,0.21666666666666665,0.25,1.65,10,match,36.05,335,352,369,386,0,9,9,9,9,0,,,,,3,0,3,0,0,34,34,9,,,,,num_4,1.3859118999680504,num_4,0.2,0.7,0.15000000000000002,0.4,5.40644,14.41717,return,2.4318956999341026,,,,,,,10,21,female,up_down_width,2023_Aug_28_1516,exp1,2021.2.3,60.05075489302205,
,,,,,,,,,,,,,,,,3,9.1,10,10.9,0,0,0.9,0.8,0.1,1.9000000000000001,10,initial,36.05,328,361,393,0,0,9,9,9,0,0,,,,,3,0,3,0,0,35,35,12,,,,,num_3,1.7765565000008792,num_3,0.45,0.8,0.10000000000000007,0.6,3.60429,21.62576,return,8.182215599925257,,,,,,,10,21,female,up_down_width,2023_Aug_28_1516,exp1,2021.2.3,60.05075489302205,
,,,,,,,,,,,,,,,,4,9.1,9.7,10.3,10.9,0,0.6000000000000001,0.20000000000000004,0.4,2.2,10,match,36.05,328,350,371,393,0,9,9,9,9,0,,,,,3,0,3,0,0,36,36,17,,,,,num_4,1.118598400033079,num_4,0.1,0.5,0.35,0.7,12.61502,25.23005,return,5.504172900109552,,,,,,,10,21,female,up_down_width,2023_Aug_28_1516,exp1,2021.2.3,60.05075489302205,
,,,,,,,,,,,,,,,,4,9.25,9.75,10.25,10.75,0,0.5,0.4,0.1,1.6,10,initial,36.05,333,351,370,388,0,9,9,9,9,0,,,,,3,0,3,0,0,37,37,18,,,,,num_4,0.9505031999433413,num_4,0.45,1.0,0.15000000000000008,0.7,5.40644,25.23005,return,3.0400359999621287,,,,,,,10,21,female,up_down_width,2023_Aug_28_1516,exp1,2021.2.3,60.05075489302205,
,,,,,,,,,,,,,,,,3,9,10,11,0,0,1,0.75,0.25,2.25,10,match,36.05,324,361,397,0,0,9,9,9,0,0,,,,,3,0,3,0,0,38,38,39,,,,,num_3,1.5824659999925643,num_3,0.15,1.3,0.39999999999999997,1.3,14.41717,46.85581,return,1.663039100007154,,,,,,,10,21,female,up_down_width,2023_Aug_28_1516,exp1,2021.2.3,60.05075489302205,
,,,,,,,,,,,,,,,,3,8.2,10,11.8,0,0,1.7999999999999998,1.4,0.4,4,10,match,36.05,296,361,425,0,0,9,9,9,0,0,,,,,3,0,3,0,0,39,39,53,,,,,num_3,1.492829900002107,num_3,0.25,0.9,0.44999999999999996,0.95,16.21932,34.24078,return,3.352817500010133,,,,,,,10,21,female,up_down_width,2023_Aug_28_1516,exp1,2021.2.3,60.05075489302205,
,,,,,,,,,,,,,,,,3,8.6,10,11.4,0,0,1.4,1.15,0.25,3.05,10,match,36.05,310,361,411,0,0,9,9,9,0,0,,,,,3,0,3,0,0,40,40,45,,,,,num_3,1.1407264999579638,num_3,0.1,1.3,0.39999999999999997,1.35,14.41717,48.65795,return,6.582445799955167,,,,,,,10,21,female,up_down_width,2023_Aug_28_1516,exp1,2021.2.3,60.05075489302205,
,,,,,,,,,,,,,,,,4,8.65,9.55,10.45,11.35,0,0.9,0.65,0.25,2.95,10,initial,36.05,312,344,377,409,0,9,9,9,9,0,,,,,3,0,3,0,0,41,41,32,,,,,num_4,1.1794375999597833,num_4,0.25,1.3,0.3,0.9,10.81288,32.43864,return,3.0042472999775782,,,,,,,10,21,female,up_down_width,2023_Aug_28_1516,exp1,2021.2.3,60.05075489302205,
,,,,,,,,,,,,,,,,3,9.1,10,10.9,0,0,0.9,0.65,0.25,2.05,10,initial,36.05,328,361,393,0,0,9,9,9,0,0,,,,,3,0,3,0,0,42,42,14,,,,,num_3,1.6640357000287622,num_3,0.2,0.7,0.39999999999999997,1.05,14.41717,37.84507,return,3.820921999984421,,,,,,,10,21,female,up_down_width,2023_Aug_28_1516,exp1,2021.2.3,60.05075489302205,
,,,,,,,,,,,,,,,,4,8.95,9.65,10.35,11.05,0,0.7,0.6,0.1,2.1999999999999997,10,initial,36.05,323,348,373,398,0,9,9,9,9,0,,,,,3,0,3,0,0,43,43,24,,,,,num_4,1.4184847999131307,num_4,0.3,1.3,0.10000000000000002,1.0,3.60429,36.04293,return,3.7137922999681905,,,,,,,10,21,female,up_down_width,2023_Aug_28_1516,exp1,2021.2.3,60.05075489302205,
,,,,,,,,,,,,,,,,4,9.5,9.833333333333334,10.166666666666666,10.5,0,0.3333333333333333,0.08333333333333333,0.25,1.25,10,match,36.05,342,354,367,379,0,9,9,9,9,0,,,,,3,0,3,0,0,44,44,3,,,,,num_4,1.1186244999989867,num_4,0.2,1.2,0.2,0.4,7.20859,14.41717,return,3.518832099973224,,,,,,,10,21,female,up_down_width,2023_Aug_28_1516,exp1,2021.2.3,60.05075489302205,
,,,,,,,,,,,,,,,,3,9.3,10,10.7,0,0,0.7,0.44999999999999996,0.25,1.65,10,initial,36.05,335,361,386,0,0,9,9,9,0,0,,,,,3,0,3,0,0,45,45,8,,,,,num_3,1.302642000024207,num_3,0.35,1,0.25,0.65,9.01073,23.4279,return,4.801927899941802,,,,,,,10,21,female,up_down_width,2023_Aug_28_1516,exp1,2021.2.3,60.05075489302205,
,,,,,,,,,,,,,,,,4,8.65,9.55,10.45,11.35,0,0.9,0.5,0.4,3.1,10,initial,36.05,312,344,377,409,0,9,9,9,9,0,,,,,3,0,3,0,0,46,46,34,,,,,num_4,1.117898799944669,num_4,0.25,1.0,0.44999999999999996,0.7,16.21932,25.23005,return,3.665469200001098,,,,,,,10,21,female,up_down_width,2023_Aug_28_1516,exp1,2021.2.3,60.05075489302205,
,,,,,,,,,,,,,,,,5,9,9.5,10,10.5,11,0.5,0.4,0.1,2.1,10,initial,36.05,324,342,361,379,397,9,9,9,9,9,,,,,3,0,3,0,0,47,47,36,,,,,num_5,1.4127479000017047,num_5,0.3,0.5,0.15000000000000002,0.5,5.40644,18.02146,return,2.445635400013998,,,,,,,10,21,female,up_down_width,2023_Aug_28_1516,exp1,2021.2.3,60.05075489302205,
,,,,,,,,,,,,,,,,4,9.425,9.808333333333334,10.191666666666666,10.575,0,0.3833333333333333,0.1333333333333333,0.25,1.4,10,match,36.05,340,354,367,381,0,9,9,9,9,0,,,,,3,0,3,0,0,48,48,5,,,,,num_4,1.4880636000307277,num_4,0.4,0.9,0.35000000000000003,0.6,12.61502,21.62576,return,3.5070524000329897,,,,,,,10,21,female,up_down_width,2023_Aug_28_1516,exp1,2021.2.3,60.05075489302205,
,,,,,,,,,,,,,,,,4,9.25,9.75,10.25,10.75,0,0.5,0.09999999999999998,0.4,1.9,10,initial,36.05,333,351,370,388,0,9,9,9,9,0,,,,,3,0,3,0,0,49,49,22,,,,,num_4,0.9155689999461174,num_4,0.1,0.5,0.39999999999999997,0.6,14.41717,21.62576,return,4.462109099957161,,,,,,,10,21,female,up_down_width,2023_Aug_28_1516,exp1,2021.2.3,60.05075489302205,
,,,,,,,,,,,,,,,,5,8.65,9.325,10,10.675,11.35,0.675,0.275,0.4,3.1,10,match,36.05,312,336,361,385,409,9,9,9,9,9,,,,,3,0,3,0,0,50,50,35,,,,,num_4,1.2358822000678629,num_4,0.15,0.3,0.5499999999999999,0.7,19.82361,25.23005,return,4.6411360000493005,,,,,,,10,21,female,up_down_width,2023_Aug_28_1516,exp1,2021.2.3,60.05075489302205,
,,,,,,,,,,,,,,,,3,9.3,10,10.7,0,0,0.7,0.29999999999999993,0.4,1.8,10,initial,36.05,335,361,386,0,0,9,9,9,0,0,,,,,3,0,3,0,0,51,51,10,,,,,num_3,1.5563246000092477,num_3,0.45,1.1,0.45,0.7,16.21932,25.23005,return,3.4775779999326915,,,,,,,10,21,female,up_down_width,2023_Aug_28_1516,exp1,2021.2.3,60.05075489302205,
,,,,,,,,,,,,,,,,4,9.3,9.766666666666667,10.233333333333333,10.7,0,0.4666666666666667,0.06666666666666665,0.4,1.8,10,match,36.05,335,352,369,386,0,9,9,9,9,0,,,,,3,0,3,0,0,52,52,11,,,,,num_3,1.664056400069967,num_3,0.35,1.3,0.35,0.45,12.61502,16.21932,return,5.42191199993249,,,,,,,10,21,female,up_down_width,2023_Aug_28_1516,exp1,2021.2.3,60.05075489302205,
,,,,,,,,,,,,,,,,4,8.95,9.65,10.35,11.05,0,0.7,0.44999999999999996,0.25,2.3499999999999996,10,initial,36.05,323,348,373,398,0,9,9,9,9,0,,,,,3,0,3,0,0,53,53,26,,,,,num_4,1.0504303999477997,num_4,0.25,1.2,0.44999999999999996,0.7,16.21932,25.23005,return,4.496583899948746,,,,,,,10,21,female,up_down_width,2023_Aug_28_1516,exp1,2021.2.3,60.05075489302205,
,,,,,,,,,,,,,,,,,,,,,,,,,,,,,,,,,,,,,,,,,,,3,0,3,0,,,,,,,,,,,,,,,,,,,,,,3282.2266709000105,None,3282.2266709000105,None,10,21,female,up_down_width,2023_Aug_28_1516,exp1,2021.2.3,60.05075489302205,
,,,,,,,,,,,,,,,,3,8.2,10,11.8,0,0,1.8,1.55,0.25,3.85,10,match,36.05,296,361,425,0,0,9,9,9,0,0,,,,,4,0,4,0,0,0,0,51,,,,,num_3,2.5133866999531165,num_3,0.25,1,0.15000000000000002,1.5,5.40644,54.06439,return,4.9864246000070125,,,,,,,10,21,female,up_down_width,2023_Aug_28_1516,exp1,2021.2.3,60.05075489302205,
,,,,,,,,,,,,,,,,3,8.525,10,11.475,0,0,1.475,1.225,0.25,3.2,10,match,36.05,307,361,414,0,0,9,9,9,0,0,,,,,4,0,4,0,0,1,1,47,,,,,num_3,1.3092982000671327,num_3,0.35,0.8,0.15000000000000002,1.15,5.40644,41.44937,return,3.000096599920653,,,,,,,10,21,female,up_down_width,2023_Aug_28_1516,exp1,2021.2.3,60.05075489302205,
,,,,,,,,,,,,,,,,4,9.3,9.766666666666667,10.233333333333333,10.7,0,0.4666666666666667,0.3666666666666667,0.1,1.5,10,match,36.05,335,352,369,386,0,9,9,9,9,0,,,,,4,0,4,0,0,2,2,7,,,,,num_4,1.0467653999803588,num_4,0.15,0.6,0.15,0.6,5.40644,21.62576,return,1.8207087001064792,,,,,,,10,21,female,up_down_width,2023_Aug_28_1516,exp1,2021.2.3,60.05075489302205,
,,,,,,,,,,,,,,,,3,9.5,10,10.5,0,0,0.5,0.4,0.1,1.1,10,initial,36.05,342,361,379,0,0,9,9,9,0,0,,,,,4,0,4,0,0,3,3,0,,,,,num_3,1.3218514999607578,num_3,0.25,0.6,0.10000000000000002,0.6,3.60429,21.62576,return,1.8270914999302477,,,,,,,10,21,female,up_down_width,2023_Aug_28_1516,exp1,2021.2.3,60.05075489302205,
,,,,,,,,,,,,,,,,4,9.5,9.833333333333334,10.166666666666666,10.5,0,0.33333333333333337,0.23333333333333336,0.1,1.1,10,match,36.05,342,354,367,379,0,9,9,9,9,0,,,,,4,0,4,0,0,4,4,1,,,,,num_4,1.0274192999349907,num_4,0.15,0.5,0.09999999999999999,0.5,3.60429,18.02146,return,2.6985927999485284,,,,,,,10,21,female,up_down_width,2023_Aug_28_1516,exp1,2021.2.3,60.05075489302205,
,,,,,,,,,,,,,,,,3,9.1,10,10.9,0,0,0.9,0.5,0.4,2.2,10,initial,36.05,328,361,393,0,0,9,9,9,0,0,,,,,4,0,4,0,0,5,5,16,,,,,num_3,1.4281594000058249,num_3,0.25,0.9,0.3,0.8,10.81288,28.83434,return,3.9892571999225765,,,,,,,10,21,female,up_down_width,2023_Aug_28_1516,exp1,2021.2.3,60.05075489302205,
,,,,,,,,,,,,,,,,5,8.6,9.3,10,10.7,11.4,0.7,0.6,0.1,2.9,10,initial,36.05,310,335,361,386,411,9,9,9,9,9,,,,,4,0,4,0,0,6,6,42,,,,,num_5,1.0373444999568164,num_5,0.4,0.5,0.10000000000000007,0.75,3.60429,27.0322,return,4.146164099918678,,,,,,,10,21,female,up_down_width,2023_Aug_28_1516,exp1,2021.2.3,60.05075489302205,
,,,,,,,,,,,,,,,,4,9.1,9.7,10.3,10.9,0,0.6000000000000001,0.20000000000000004,0.4,2.2,10,match,36.05,328,350,371,393,0,9,9,9,9,0,,,,,4,0,4,0,0,7,7,17,,,,,num_4,2.4091110000154004,num_4,0.25,1.1,0.2,0.6,7.20859,21.62576,return,4.0538116999669,,,,,,,10,21,female,up_down_width,2023_Aug_28_1516,exp1,2021.2.3,60.05075489302205,
,,,,,,,,,,,,,,,,5,8.2,9.1,10,10.9,11.8,0.9,0.5,0.4,4,10,initial,36.05,296,328,361,393,425,9,9,9,9,9,,,,,4,0,4,0,0,8,8,52,,,,,num_6,1.985990299959667,num_6,0.15,0.4,0.3,0.6,10.81288,21.62576,return,5.586437999969348,,,,,,,10,21,female,up_down_width,2023_Aug_28_1516,exp1,2021.2.3,60.05075489302205,
,,,,,,,,,,,,,,,,5,8.2,9.1,10,10.9,11.8,0.9,0.8,0.1,3.7,10,initial,36.05,296,328,361,393,425,9,9,9,9,9,,,,,4,0,4,0,0,9,9,48,,,,,num_6,1.7147190000396222,num_6,0.25,1.3,0.15000000000000002,0.6,5.40644,21.62576,return,3.773611900047399,,,,,,,10,21,female,up_down_width,2023_Aug_28_1516,exp1,2021.2.3,60.05075489302205,
,,,,,,,,,,,,,,,,5,8.95,9.475,10,10.525,11.05,0.525,0.275,0.25,2.35,10,match,36.05,323,342,361,379,398,9,9,9,9,9,,,,,4,0,4,0,0,10,10,27,,,,,num_5,1.218514300067909,num_5,0.45,1.1,0.20000000000000007,0.8,7.20859,28.83434,return,3.5503978999331594,,,,,,,10,21,female,up_down_width,2023_Aug_28_1516,exp1,2021.2.3,60.05075489302205,
,,,,,,,,,,,,,,,,3,8.6,10,11.4,0,0,1.4,1.2999999999999998,0.1,2.9,10,match,36.05,310,361,411,0,0,9,9,9,0,0,,,,,4,0,4,0,0,11,11,43,,,,,num_3,1.701779399998486,num_3,0.1,0.6,0.3,0.7,10.81288,25.23005,return,3.489814899978228,,,,,,,10,21,female,up_down_width,2023_Aug_28_1516,exp1,2021.2.3,60.05075489302205,
,,,,,,,,,,,,,,,,4,9.5,9.833333333333334,10.166666666666666,10.5,0,0.3333333333333333,0.08333333333333333,0.25,1.25,10,match,36.05,342,354,367,379,0,9,9,9,9,0,,,,,4,0,4,0,0,12,12,3,,,,,num_4,1.5313994999742135,num_4,0.15,0.4,0.15,0.6,5.40644,21.62576,return,1.806419000029564,,,,,,,10,21,female,up_down_width,2023_Aug_28_1516,exp1,2021.2.3,60.05075489302205,
,,,,,,,,,,,,,,,,5,9.175,9.5875,10,10.4125,10.825,0.4125,0.16249999999999998,0.25,1.9,10,match,36.05,331,346,361,375,390,9,9,9,9,9,,,,,4,0,4,0,0,13,13,23,,,,,num_5,1.3887914000079036,num_5,0.3,0.4,0.3,0.55,10.81288,19.82361,return,1.641863500000909,,,,,,,10,21,female,up_down_width,2023_Aug_28_1516,exp1,2021.2.3,60.05075489302205,
,,,,,,,,,,,,,,,,4,8.95,9.65,10.35,11.05,0,0.7,0.29999999999999993,0.4,2.5,10,initial,36.05,323,348,373,398,0,9,9,9,9,0,,,,,4,0,4,0,0,14,14,28,,,,,num_4,1.8335876000346616,num_4,0.4,0.6,0.30000000000000004,0.6,10.81288,21.62576,return,3.712006999994628,,,,,,,10,21,female,up_down_width,2023_Aug_28_1516,exp1,2021.2.3,60.05075489302205,
,,,,,,,,,,,,,,,,5,9,9.5,10,10.5,11,0.5,0.4,0.1,2.1,10,initial,36.05,324,342,361,379,397,9,9,9,9,9,,,,,4,0,4,0,0,15,15,36,,,,,num_5,1.1566927001113072,num_5,0.2,0.7,0.10000000000000002,0.7,3.60429,25.23005,return,3.094014799920842,,,,,,,10,21,female,up_down_width,2023_Aug_28_1516,exp1,2021.2.3,60.05075489302205,
,,,,,,,,,,,,,,,,3,9.1,10,10.9,0,0,0.9,0.8,0.1,1.9000000000000001,10,initial,36.05,328,361,393,0,0,9,9,9,0,0,,,,,4,0,4,0,0,16,16,12,,,,,num_3,1.8017933999653906,num_3,0.4,0.9,0.05000000000000007,0.95,1.80215,34.24078,return,3.902705100015737,,,,,,,10,21,female,up_down_width,2023_Aug_28_1516,exp1,2021.2.3,60.05075489302205,
,,,,,,,,,,,,,,,,4,8.65,9.55,10.45,11.35,0,0.9,0.8,0.1,2.8000000000000003,10,initial,36.05,312,344,377,409,0,9,9,9,9,0,,,,,4,0,4,0,0,17,17,30,,,,,num_4,0.9699587000068277,num_4,0.35,1.3,0.10000000000000002,0.9,3.60429,32.43864,return,5.544339600019157,,,,,,,10,21,female,up_down_width,2023_Aug_28_1516,exp1,2021.2.3,60.05075489302205,
,,,,,,,,,,,,,,,,5,8.65,9.325,10,10.675,11.35,0.675,0.42500000000000004,0.25,2.95,10,match,36.05,312,336,361,385,409,9,9,9,9,9,,,,,4,0,4,0,0,18,18,33,,,,,num_4,2.1992252999916673,num_4,0.35,0.8,0.25,0.6,9.01073,21.62576,return,3.0674590000417084,,,,,,,10,21,female,up_down_width,2023_Aug_28_1516,exp1,2021.2.3,60.05075489302205,
,,,,,,,,,,,,,,,,5,8.65,9.325,10,10.675,11.35,0.675,0.275,0.4,3.1,10,match,36.05,312,336,361,385,409,9,9,9,9,9,,,,,4,0,4,0,0,19,19,35,,,,,num_5,1.1567301000468433,num_5,0.1,1.0,0.3,0.75,10.81288,27.0322,return,4.406433399999514,,,,,,,10,21,female,up_down_width,2023_Aug_28_1516,exp1,2021.2.3,60.05075489302205,
,,,,,,,,,,,,,,,,5,8.95,9.475,10,10.525,11.05,0.525,0.125,0.4,2.5,10,match,36.05,323,342,361,379,398,9,9,9,9,9,,,,,4,0,4,0,0,20,20,29,,,,,num_5,1.0952050000196323,num_5,0.1,0.6,0.35,0.6,12.61502,21.62576,return,3.226267599966377,,,,,,,10,21,female,up_down_width,2023_Aug_28_1516,exp1,2021.2.3,60.05075489302205,
,,,,,,,,,,,,,,,,5,8.65,9.325,10,10.675,11.35,0.6749999999999999,0.575,0.1,2.8,10,match,36.05,312,336,361,385,409,9,9,9,9,9,,,,,4,0,4,0,0,21,21,31,,,,,num_5,1.114571199985221,num_5,0.15,0.4,0.3,0.5,10.81288,18.02146,return,3.823633800027892,,,,,,,10,21,female,up_down_width,2023_Aug_28_1516,exp1,2021.2.3,60.05075489302205,
,,,,,,,,,,,,,,,,4,9.1,9.7,10.3,10.9,0,0.5999999999999999,0.3499999999999999,0.25,2.05,10,match,36.05,328,350,371,393,0,9,9,9,9,0,,,,,4,0,4,0,0,22,22,15,,,,,num_4,1.1586033999919891,num_4,0.1,0.6,0.3,0.7,10.81288,25.23005,return,1.8801162999588996,,,,,,,10,21,female,up_down_width,2023_Aug_28_1516,exp1,2021.2.3,60.05075489302205,
,,,,,,,,,,,,,,,,3,8.2,10,11.8,0,0,1.7999999999999998,1.4,0.4,4,10,match,36.05,296,361,425,0,0,9,9,9,0,0,,,,,4,0,4,0,0,23,23,53,,,,,num_3,1.8427978999679908,num_3,0.4,0.7,0.35000000000000003,1.2,12.61502,43.25151,return,4.200002299970947,,,,,,,10,21,female,up_down_width,2023_Aug_28_1516,exp1,2021.2.3,60.05075489302205,
,,,,,,,,,,,,,,,,3,9.3,10,10.7,0,0,0.7,0.44999999999999996,0.25,1.65,10,initial,36.05,335,361,386,0,0,9,9,9,0,0,,,,,4,0,4,0,0,24,24,8,,,,,num_3,1.7725078000221401,num_3,0.1,1.1,0.35,1.1,12.61502,39.64722,return,2.1021488000405952,,,,,,,10,21,female,up_down_width,2023_Aug_28_1516,exp1,2021.2.3,60.05075489302205,
,,,,,,,,,,,,,,,,4,9.3,9.766666666666667,10.233333333333333,10.7,0,0.4666666666666667,0.06666666666666665,0.4,1.8,10,match,36.05,335,352,369,386,0,9,9,9,9,0,,,,,4,0,4,0,0,25,25,11,,,,,num_3,1.4434788000071421,num_3,0.4,0.7,0.4,0.55,14.41717,19.82361,return,2.2008253999520093,,,,,,,10,21,female,up_down_width,2023_Aug_28_1516,exp1,2021.2.3,60.05075489302205,
,,,,,,,,,,,,,,,,4,9.425,9.808333333333334,10.191666666666666,10.575,0,0.3833333333333333,0.1333333333333333,0.25,1.4,10,match,36.05,340,354,367,381,0,9,9,9,9,0,,,,,4,0,4,0,0,26,26,5,,,,,num_1,1.4733580000465736,num_1,0.25,9999,0.25,9999,9.01073,360393.24009,return,2.05376919999253,,,,,,,10,21,female,up_down_width,2023_Aug_28_1516,exp1,2021.2.3,60.05075489302205,
,,,,,,,,,,,,,,,,4,9.3,9.766666666666667,10.233333333333333,10.7,0,0.4666666666666667,0.21666666666666665,0.25,1.65,10,match,36.05,335,352,369,386,0,9,9,9,9,0,,,,,4,0,4,0,0,27,27,9,,,,,num_4,1.148221499985084,num_4,0.3,0.9,0.3,0.4,10.81288,14.41717,return,2.1370457999873906,,,,,,,10,21,female,up_down_width,2023_Aug_28_1516,exp1,2021.2.3,60.05075489302205,
,,,,,,,,,,,,,,,,5,9.25,9.625,10,10.375,10.75,0.375,0.125,0.25,1.75,10,match,36.05,333,347,361,374,388,9,9,9,9,9,,,,,4,0,4,0,0,28,28,21,,,,,num_5,1.0565871000289917,num_5,0.25,0.9,0.25,0.35,9.01073,12.61502,return,3.349165500025265,,,,,,,10,21,female,up_down_width,2023_Aug_28_1516,exp1,2021.2.3,60.05075489302205,
,,,,,,,,,,,,,,,,3,9,10,11,0,0,1,0.9,0.1,2.1,10,match,36.05,324,361,397,0,0,9,9,9,0,0,,,,,4,0,4,0,0,29,29,37,,,,,num_2,1.7281421000370756,num_2,0.45,1.6,0.05000000000000007,1.5,1.80215,54.06439,return,5.317999399965629,,,,,,,10,21,female,up_down_width,2023_Aug_28_1516,exp1,2021.2.3,60.05075489302205,
,,,,,,,,,,,,,,,,3,9.5,10,10.5,0,0,0.5,0.09999999999999998,0.4,1.4000000000000001,10,initial,36.05,342,361,379,0,0,9,9,9,0,0,,,,,4,0,4,0,0,30,30,4,,,,,num_2,1.6872286000289023,num_2,0.15,1.6,0.39999999999999997,0.5,14.41717,18.02146,return,6.8829284000676125,,,,,,,10,21,female,up_down_width,2023_Aug_28_1516,exp1,2021.2.3,60.05075489302205,
,,,,,,,,,,,,,,,,4,8.65,9.55,10.45,11.35,0,0.9,0.65,0.25,2.95,10,initial,36.05,312,344,377,409,0,9,9,9,9,0,,,,,4,0,4,0,0,31,31,32,,,,,num_4,2.4500379000091925,num_4,0.25,0.5,0.35,0.7,12.61502,25.23005,return,3.7436262000119314,,,,,,,10,21,female,up_down_width,2023_Aug_28_1516,exp1,2021.2.3,60.05075489302205,
,,,,,,,,,,,,,,,,4,8.95,9.65,10.35,11.05,0,0.7,0.6,0.1,2.1999999999999997,10,initial,36.05,323,348,373,398,0,9,9,9,9,0,,,,,4,0,4,0,0,32,32,24,,,,,num_4,1.6179729999275878,num_4,0.2,0.9,0.15000000000000002,0.6,5.40644,21.62576,return,3.3599541999865323,,,,,,,10,21,female,up_down_width,2023_Aug_28_1516,exp1,2021.2.3,60.05075489302205,
,,,,,,,,,,,,,,,,5,8.95,9.475,10,10.525,11.05,0.525,0.42500000000000004,0.1,2.2,10,match,36.05,323,342,361,379,398,9,9,9,9,9,,,,,4,0,4,0,0,33,33,25,,,,,num_5,1.4527791999280453,num_5,0.15,0.9,0.09999999999999999,0.6,3.60429,21.62576,return,2.1786177000030875,,,,,,,10,21,female,up_down_width,2023_Aug_28_1516,exp1,2021.2.3,60.05075489302205,
,,,,,,,,,,,,,,,,4,9.25,9.75,10.25,10.75,0,0.5,0.4,0.1,1.6,10,initial,36.05,333,351,370,388,0,9,9,9,9,0,,,,,4,0,4,0,0,34,34,18,,,,,num_4,1.3508710999740288,num_4,0.35,0.8,0.10000000000000002,0.8,3.60429,28.83434,return,2.4809080000268295,,,,,,,10,21,female,up_down_width,2023_Aug_28_1516,exp1,2021.2.3,60.05075489302205,
,,,,,,,,,,,,,,,,5,9,9.5,10,10.5,11,0.5,0.25,0.25,2.25,10,initial,36.05,324,342,361,379,397,9,9,9,9,9,,,,,4,0,4,0,0,35,35,38,,,,,num_5,1.3693236999679357,num_5,0.35,1.0,0.15000000000000002,0.6,5.40644,21.62576,return,2.530321200028993,,,,,,,10,21,female,up_down_width,2023_Aug_28_1516,exp1,2021.2.3,60.05075489302205,
,,,,,,,,,,,,,,,,3,9.3,10,10.7,0,0,0.7,0.29999999999999993,0.4,1.8,10,initial,36.05,335,361,386,0,0,9,9,9,0,0,,,,,4,0,4,0,0,36,36,10,,,,,num_3,1.4329669000580907,num_3,0.15,1.3,0.35,0.8,12.61502,28.83434,return,3.7276443999726325,,,,,,,10,21,female,up_down_width,2023_Aug_28_1516,exp1,2021.2.3,60.05075489302205,
,,,,,,,,,,,,,,,,5,8.6,9.3,10,10.7,11.4,0.7,0.44999999999999996,0.25,3.05,10,initial,36.05,310,335,361,386,411,9,9,9,9,9,,,,,4,0,4,0,0,37,37,44,,,,,num_4,1.3283560000127181,num_4,0.35,0.6,0.44999999999999996,0.7,16.21932,25.23005,return,2.267193900072016,,,,,,,10,21,female,up_down_width,2023_Aug_28_1516,exp1,2021.2.3,60.05075489302205,
,,,,,,,,,,,,,,,,4,8.95,9.65,10.35,11.05,0,0.7,0.44999999999999996,0.25,2.3499999999999996,10,initial,36.05,323,348,373,398,0,9,9,9,9,0,,,,,4,0,4,0,0,38,38,26,,,,,num_4,1.2000818999949843,num_4,0.15,0.8,0.39999999999999997,0.8,14.41717,28.83434,return,3.2004357000114396,,,,,,,10,21,female,up_down_width,2023_Aug_28_1516,exp1,2021.2.3,60.05075489302205,
,,,,,,,,,,,,,,,,5,8.2,9.1,10,10.9,11.8,0.9,0.65,0.25,3.85,10,initial,36.05,296,328,361,393,425,9,9,9,9,9,,,,,4,0,4,0,0,39,39,50,,,,,num_5,1.4942845000186935,num_5,0.2,0.6,0.35,0.75,12.61502,27.0322,return,2.5059865000657737,,,,,,,10,21,female,up_down_width,2023_Aug_28_1516,exp1,2021.2.3,60.05075489302205,
,,,,,,,,,,,,,,,,4,9.25,9.75,10.25,10.75,0,0.5,0.25,0.25,1.75,10,initial,36.05,333,351,370,388,0,9,9,9,9,0,,,,,4,0,4,0,0,40,40,20,,,,,num_4,1.133364800014533,num_4,0.35,0.4,0.25,0.8,9.01073,28.83434,return,3.1542068000417203,,,,,,,10,21,female,up_down_width,2023_Aug_28_1516,exp1,2021.2.3,60.05075489302205,
,,,,,,,,,,,,,,,,5,9,9.5,10,10.5,11,0.5,0.09999999999999998,0.4,2.4,10,initial,36.05,324,342,361,379,397,9,9,9,9,9,,,,,4,0,4,0,0,41,41,40,,,,,num_4,0.9378528000088409,num_4,0.35,1.3,0.44999999999999996,0.6,16.21932,21.62576,return,4.070535999955609,,,,,,,10,21,female,up_down_width,2023_Aug_28_1516,exp1,2021.2.3,60.05075489302205,
,,,,,,,,,,,,,,,,3,8.6,10,11.4,0,0,1.4,1.15,0.25,3.05,10,match,36.05,310,361,411,0,0,9,9,9,0,0,,,,,4,0,4,0,0,42,42,45,,,,,num_2,2.24110990006011,num_2,0.4,1.6,0.4,1.6,14.41717,57.66869,return,1.286098099895753,,,,,,,10,21,female,up_down_width,2023_Aug_28_1516,exp1,2021.2.3,60.05075489302205,
,,,,,,,,,,,,,,,,3,9.5,10,10.5,0,0,0.5,0.25,0.25,1.25,10,initial,36.05,342,361,379,0,0,9,9,9,0,0,,,,,4,0,4,0,0,43,43,2,,,,,num_2,1.9248292000265792,num_2,0.3,1.6,0.44999999999999996,0.6,16.21932,21.62576,return,4.261824399931356,,,,,,,10,21,female,up_down_width,2023_Aug_28_1516,exp1,2021.2.3,60.05075489302205,
,,,,,,,,,,,,,,,,4,9.25,9.75,10.25,10.75,0,0.5,0.09999999999999998,0.4,1.9,10,initial,36.05,333,351,370,388,0,9,9,9,9,0,,,,,4,0,4,0,0,44,44,22,,,,,num_3,1.7007192000746727,num_3,0.35,0.8,0.5499999999999999,0.7,19.82361,25.23005,return,3.4536324999062344,,,,,,,10,21,female,up_down_width,2023_Aug_28_1516,exp1,2021.2.3,60.05075489302205,
,,,,,,,,,,,,,,,,4,9.1,9.7,10.3,10.9,0,0.6,0.5,0.1,1.9,10,match,36.05,328,350,371,393,0,9,9,9,9,0,,,,,4,0,4,0,0,45,45,13,,,,,num_3,1.368332999991253,num_3,0.25,0.8,0.10000000000000002,0.75,3.60429,27.0322,return,2.3390655000694096,,,,,,,10,21,female,up_down_width,2023_Aug_28_1516,exp1,2021.2.3,60.05075489302205,
,,,,,,,,,,,,,,,,3,9,10,11,0,0,0.9999999999999999,0.5999999999999999,0.4,2.4,10,match,36.05,324,361,397,0,0,9,9,9,0,0,,,,,4,0,4,0,0,46,46,41,,,,,num_2,1.3532139000017196,num_2,0.45,1.6,0.45,0.6,16.21932,21.62576,return,3.154690600000322,,,,,,,10,21,female,up_down_width,2023_Aug_28_1516,exp1,2021.2.3,60.05075489302205,
,,,,,,,,,,,,,,,,5,8.6,9.3,10,10.7,11.4,0.7,0.29999999999999993,0.4,3.1999999999999997,10,initial,36.05,310,335,361,386,411,9,9,9,9,9,,,,,4,0,4,0,0,47,47,46,,,,,num_4,1.882695300038904,num_4,0.2,0.5,0.39999999999999997,0.6,14.41717,21.62576,return,6.401937199989334,,,,,,,10,21,female,up_down_width,2023_Aug_28_1516,exp1,2021.2.3,60.05075489302205,
,,,,,,,,,,,,,,,,4,8.65,9.55,10.45,11.35,0,0.9,0.5,0.4,3.1,10,initial,36.05,312,344,377,409,0,9,9,9,9,0,,,,,4,0,4,0,0,48,48,34,,,,,num_4,2.29348990006838,num_4,0.2,0.7,0.44999999999999996,0.7,16.21932,25.23005,return,1.8474215000169352,,,,,,,10,21,female,up_down_width,2023_Aug_28_1516,exp1,2021.2.3,60.05075489302205,
,,,,,,,,,,,,,,,,3,9.3,10,10.7,0,0,0.7,0.6,0.1,1.5,10,initial,36.05,335,361,386,0,0,9,9,9,0,0,,,,,4,0,4,0,0,49,49,6,,,,,num_2,1.2235094000352547,num_2,0.15,1.6,0.09999999999999999,1.4,3.60429,50.4601,return,4.31034660001751,,,,,,,10,21,female,up_down_width,2023_Aug_28_1516,exp1,2021.2.3,60.05075489302205,
,,,,,,,,,,,,,,,,3,9,10,11,0,0,1,0.75,0.25,2.25,10,match,36.05,324,361,397,0,0,9,9,9,0,0,,,,,4,0,4,0,0,50,50,39,,,,,num_3,1.285205899970606,num_3,0.35,0.5,0.2,0.8,7.20859,28.83434,return,5.14040939998813,,,,,,,10,21,female,up_down_width,2023_Aug_28_1516,exp1,2021.2.3,60.05075489302205,
,,,,,,,,,,,,,,,,3,8.2,10,11.8,0,0,1.8000000000000003,1.7000000000000002,0.1,3.7,10,match,36.05,296,361,425,0,0,9,9,9,0,0,,,,,4,0,4,0,0,51,51,49,,,,,num_2,1.1099916999228299,num_2,0.4,1.6,0.10000000000000007,2.2,3.60429,79.29444,return,6.377143700025044,,,,,,,10,21,female,up_down_width,2023_Aug_28_1516,exp1,2021.2.3,60.05075489302205,
,,,,,,,,,,,,,,,,5,9.25,9.625,10,10.375,10.75,0.375,0.275,0.1,1.6,10,match,36.05,333,347,361,374,388,9,9,9,9,9,,,,,4,0,4,0,0,52,52,19,,,,,num_4,1.6219603000208735,num_4,0.1,1.1,0.1,0.5,3.60429,18.02146,return,4.726049999939278,,,,,,,10,21,female,up_down_width,2023_Aug_28_1516,exp1,2021.2.3,60.05075489302205,
,,,,,,,,,,,,,,,,3,9.1,10,10.9,0,0,0.9,0.65,0.25,2.05,10,initial,36.05,328,361,393,0,0,9,9,9,0,0,,,,,4,0,4,0,0,53,53,14,,,,,num_3,1.5113082999596372,num_3,0.25,0.6,0.15000000000000002,0.9,5.40644,32.43864,return,4.794979500002228,,,,,,,10,21,female,up_down_width,2023_Aug_28_1516,exp1,2021.2.3,60.05075489302205,
,,,,,,,,,,,,,,,,,,,,,,,,,,,,,,,,,,,,,,,,,,,4,0,4,0,,,,,,,,,,,,,,,,,,,,,,3709.876810799935,None,3709.876810799935,None,10,21,female,up_down_width,2023_Aug_28_1516,exp1,2021.2.3,60.05075489302205,
,,,,,,,,,,,,,,,,3,9.3,10,10.7,0,0,0.7,0.44999999999999996,0.25,1.65,10,initial,36.05,335,361,386,0,0,9,9,9,0,0,,,,,5,0,5,0,0,0,0,8,,,,,num_3,1.5978343000169843,num_3,0.45,0.8,0.30000000000000004,0.55,10.81288,19.82361,return,4.204635599977337,,,,,,,10,21,female,up_down_width,2023_Aug_28_1516,exp1,2021.2.3,60.05075489302205,
,,,,,,,,,,,,,,,,5,9.175,9.5875,10,10.4125,10.825,0.4125,0.16249999999999998,0.25,1.9,10,match,36.05,331,346,361,375,390,9,9,9,9,9,,,,,5,0,5,0,0,1,1,23,,,,,num_5,2.5614148000022396,num_5,0.35,1.3,0.2,0.55,7.20859,19.82361,return,3.3860132000409067,,,,,,,10,21,female,up_down_width,2023_Aug_28_1516,exp1,2021.2.3,60.05075489302205,
,,,,,,,,,,,,,,,,3,8.6,10,11.4,0,0,1.4,1.2999999999999998,0.1,2.9,10,match,36.05,310,361,411,0,0,9,9,9,0,0,,,,,5,0,5,0,0,2,2,43,,,,,num_2,1.3794595999643207,num_2,0.4,1.6,0.15000000000000008,1.5,5.40644,54.06439,return,2.0607850999804214,,,,,,,10,21,female,up_down_width,2023_Aug_28_1516,exp1,2021.2.3,60.05075489302205,
,,,,,,,,,,,,,,,,4,9.3,9.766666666666667,10.233333333333333,10.7,0,0.4666666666666667,0.21666666666666665,0.25,1.65,10,match,36.05,335,352,369,386,0,9,9,9,9,0,,,,,5,0,5,0,0,3,3,9,,,,,num_4,1.929563199984841,num_4,0.45,0.8,0.30000000000000004,0.6,10.81288,21.62576,return,5.501391600002535,,,,,,,10,21,female,up_down_width,2023_Aug_28_1516,exp1,2021.2.3,60.05075489302205,
,,,,,,,,,,,,,,,,5,9,9.5,10,10.5,11,0.5,0.25,0.25,2.25,10,initial,36.05,324,342,361,379,397,9,9,9,9,9,,,,,5,0,5,0,0,4,4,38,,,,,num_4,1.223744099959731,num_4,0.25,1.0,0.25,0.5,9.01073,18.02146,return,1.634046999970451,,,,,,,10,21,female,up_down_width,2023_Aug_28_1516,exp1,2021.2.3,60.05075489302205,
,,,,,,,,,,,,,,,,4,9.5,9.833333333333334,10.166666666666666,10.5,0,0.33333333333333337,0.23333333333333336,0.1,1.1,10,match,36.05,342,354,367,379,0,9,9,9,9,0,,,,,5,0,5,0,0,5,5,1,,,,,num_4,1.8373172000283375,num_4,0.35,0.4,0.10000000000000002,0.4,3.60429,14.41717,return,2.484061300056055,,,,,,,10,21,female,up_down_width,2023_Aug_28_1516,exp1,2021.2.3,60.05075489302205,
,,,,,,,,,,,,,,,,5,9.25,9.625,10,10.375,10.75,0.375,0.125,0.25,1.75,10,match,36.05,333,347,361,374,388,9,9,9,9,9,,,,,5,0,5,0,0,6,6,21,,,,,num_5,1.5381447999970987,num_5,0.4,1.1,0.30000000000000004,0.55,10.81288,19.82361,return,17.34758909989614,,,,,,,10,21,female,up_down_width,2023_Aug_28_1516,exp1,2021.2.3,60.05075489302205,
,,,,,,,,,,,,,,,,5,8.2,9.1,10,10.9,11.8,0.9,0.65,0.25,3.85,10,initial,36.05,296,328,361,393,425,9,9,9,9,9,,,,,5,0,5,0,0,7,7,50,,,,,num_5,1.3699466999387369,num_5,0.35,1.0,0.3,0.75,10.81288,27.0322,return,6.484038800001144,,,,,,,10,21,female,up_down_width,2023_Aug_28_1516,exp1,2021.2.3,60.05075489302205,
,,,,,,,,,,,,,,,,4,9.25,9.75,10.25,10.75,0,0.5,0.4,0.1,1.6,10,initial,36.05,333,351,370,388,0,9,9,9,9,0,,,,,5,0,5,0,0,8,8,18,,,,,num_4,1.717462099972181,num_4,0.1,0.5,0.25,0.7,9.01073,25.23005,return,3.6172144999727607,,,,,,,10,21,female,up_down_width,2023_Aug_28_1516,exp1,2021.2.3,60.05075489302205,
,,,,,,,,,,,,,,,,3,9.3,10,10.7,0,0,0.7,0.6,0.1,1.5,10,initial,36.05,335,361,386,0,0,9,9,9,0,0,,,,,5,0,5,0,0,9,9,6,,,,,num_3,1.3174240000080317,num_3,0.45,1.1,0.15000000000000008,0.95,5.40644,34.24078,return,2.6875264999689534,,,,,,,10,21,female,up_down_width,2023_Aug_28_1516,exp1,2021.2.3,60.05075489302205,
,,,,,,,,,,,,,,,,3,9.5,10,10.5,0,0,0.5,0.09999999999999998,0.4,1.4000000000000001,10,initial,36.05,342,361,379,0,0,9,9,9,0,0,,,,,5,0,5,0,0,10,10,4,,,,,num_3,1.1085936999879777,num_3,0.25,1.2,0.35,0.45,12.61502,16.21932,return,6.551943699945696,,,,,,,10,21,female,up_down_width,2023_Aug_28_1516,exp1,2021.2.3,60.05075489302205,
,,,,,,,,,,,,,,,,3,8.6,10,11.4,0,0,1.4,1.15,0.25,3.05,10,match,36.05,310,361,411,0,0,9,9,9,0,0,,,,,5,0,5,0,0,11,11,45,,,,,num_3,1.4859763000858948,num_3,0.2,0.9,0.39999999999999997,0.95,14.41717,34.24078,return,2.9500274000456557,,,,,,,10,21,female,up_down_width,2023_Aug_28_1516,exp1,2021.2.3,60.05075489302205,
,,,,,,,,,,,,,,,,5,8.2,9.1,10,10.9,11.8,0.9,0.8,0.1,3.7,10,initial,36.05,296,328,361,393,425,9,9,9,9,9,,,,,5,0,5,0,0,12,12,48,,,,,num_4,1.1700210999697447,num_4,0.15,0.7,0.39999999999999997,0.7,14.41717,25.23005,return,2.9623624000232667,,,,,,,10,21,female,up_down_width,2023_Aug_28_1516,exp1,2021.2.3,60.05075489302205,
,,,,,,,,,,,,,,,,3,9.5,10,10.5,0,0,0.5,0.25,0.25,1.25,10,initial,36.05,342,361,379,0,0,9,9,9,0,0,,,,,5,0,5,0,0,13,13,2,,,,,num_3,1.2280553999589756,num_3,0.2,0.6,0.39999999999999997,0.6,14.41717,21.62576,return,1.6902917999541387,,,,,,,10,21,female,up_down_width,2023_Aug_28_1516,exp1,2021.2.3,60.05075489302205,
,,,,,,,,,,,,,,,,4,9.3,9.766666666666667,10.233333333333333,10.7,0,0.4666666666666667,0.3666666666666667,0.1,1.5,10,match,36.05,335,352,369,386,0,9,9,9,9,0,,,,,5,0,5,0,0,14,14,7,,,,,num_4,1.4012472999747843,num_4,0.45,0.6,0.20000000000000007,0.8,7.20859,28.83434,return,3.117735799984075,,,,,,,10,21,female,up_down_width,2023_Aug_28_1516,exp1,2021.2.3,60.05075489302205,
,,,,,,,,,,,,,,,,5,9,9.5,10,10.5,11,0.5,0.4,0.1,2.1,10,initial,36.05,324,342,361,379,397,9,9,9,9,9,,,,,5,0,5,0,0,15,15,36,,,,,num_5,1.1301654999842867,num_5,0.1,0.6,0.2,0.7,7.20859,25.23005,return,2.1731708999723196,,,,,,,10,21,female,up_down_width,2023_Aug_28_1516,exp1,2021.2.3,60.05075489302205,
,,,,,,,,,,,,,,,,5,9.25,9.625,10,10.375,10.75,0.375,0.275,0.1,1.6,10,match,36.05,333,347,361,374,388,9,9,9,9,9,,,,,5,0,5,0,0,16,16,19,,,,,num_3,1.163884700043127,num_3,0.45,0.5,0.10000000000000007,0.3,3.60429,10.81288,return,4.92513190000318,,,,,,,10,21,female,up_down_width,2023_Aug_28_1516,exp1,2021.2.3,60.05075489302205,
,,,,,,,,,,,,,,,,4,9.1,9.7,10.3,10.9,0,0.5999999999999999,0.3499999999999999,0.25,2.05,10,match,36.05,328,350,371,393,0,9,9,9,9,0,,,,,5,0,5,0,0,17,17,15,,,,,num_4,1.2834590999409556,num_4,0.45,0.5,0.15000000000000008,0.5,5.40644,18.02146,return,4.255469799973071,,,,,,,10,21,female,up_down_width,2023_Aug_28_1516,exp1,2021.2.3,60.05075489302205,
,,,,,,,,,,,,,,,,3,9,10,11,0,0,1,0.75,0.25,2.25,10,match,36.05,324,361,397,0,0,9,9,9,0,0,,,,,5,0,5,0,0,18,18,39,,,,,num_4,1.9573924000142142,num_4,0.15,0.8,0.5499999999999999,0.7,19.82361,25.23005,return,3.574853099999018,,,,,,,10,21,female,up_down_width,2023_Aug_28_1516,exp1,2021.2.3,60.05075489302205,
,,,,,,,,,,,,,,,,4,9.5,9.833333333333334,10.166666666666666,10.5,0,0.3333333333333333,0.08333333333333333,0.25,1.25,10,match,36.05,342,354,367,379,0,9,9,9,9,0,,,,,5,0,5,0,0,19,19,3,,,,,num_3,1.3259919000556692,num_3,0.3,0.8,0.3,0.45,10.81288,16.21932,return,2.3274807000998408,,,,,,,10,21,female,up_down_width,2023_Aug_28_1516,exp1,2021.2.3,60.05075489302205,
,,,,,,,,,,,,,,,,4,9.1,9.7,10.3,10.9,0,0.6000000000000001,0.20000000000000004,0.4,2.2,10,match,36.05,328,350,371,393,0,9,9,9,9,0,,,,,5,0,5,0,0,20,20,17,,,,,num_3,2.528819700004533,num_3,0.25,0.3,0.7500000000000001,0.9,27.0322,32.43864,return,8.844052899978124,,,,,,,10,21,female,up_down_width,2023_Aug_28_1516,exp1,2021.2.3,60.05075489302205,
,,,,,,,,,,,,,,,,5,8.2,9.1,10,10.9,11.8,0.9,0.5,0.4,4,10,initial,36.05,296,328,361,393,425,9,9,9,9,9,,,,,5,0,5,0,0,21,21,52,,,,,num_2,1.2817738000303507,num_2,0.45,1.6,0.45,0.6,16.21932,21.62576,return,4.9745956000406295,,,,,,,10,21,female,up_down_width,2023_Aug_28_1516,exp1,2021.2.3,60.05075489302205,
,,,,,,,,,,,,,,,,4,8.65,9.55,10.45,11.35,0,0.9,0.8,0.1,2.8000000000000003,10,initial,36.05,312,344,377,409,0,9,9,9,9,0,,,,,5,0,5,0,0,22,22,30,,,,,num_4,1.0486040000105277,num_4,0.3,0.4,0.10000000000000002,0.8,3.60429,28.83434,return,3.133017999934964,,,,,,,10,21,female,up_down_width,2023_Aug_28_1516,exp1,2021.2.3,60.05075489302205,
