amount_p,posx1_p,posx2_p,posx3_p,posx4_p,posx5_p,center_to_center_p,edge_to_edge_p,w_p,stim_lengt_p,eccentricity_p,line1_p,line2_p,line3_p,line4_p,line5_p,amount,posx1,posx2,posx3,posx4,posx5,center_to_center,edge_to_edge,w,stim_length,eccentricity,trial_type,deg_to_pix_index,posx1_in_pix,posx2_in_pix,posx3_in_pix,posx4_in_pix,posx5_in_pix,line1,line2,line3,line4,line5,trials.thisRepN,trials.thisTrialN,trials.thisN,trials.thisIndex,blocks.thisRepN,blocks.thisTrialN,blocks.thisN,blocks.thisIndex,loop.thisRepN,loop.thisTrialN,loop.thisN,loop.thisIndex,key_resp_3.keys,key_resp_3.rt,key_resp_3.started,key_resp_3.stopped,key_resp.keys,key_resp.rt,response,starting_width_deg,starting_space_deg,response_width_degree,response_spacing_degree,response_width_pixel,response_spacing_pixel,next_5.keys,next_5.rt,key_resp_4.keys,key_resp_4.rt,text_3.started,text_3.stopped,text_4.started,text_4.stopped,participant,age,gender,resp_group,date,expName,psychopyVersion,frameRate,
,,,,,,,,,,,,,,,,,,,,,,,,,,,,,,,,,,,,,,,,,,,,,,,,,,,c,80.10452120000264,19.86876990000019,None,,,,,,,,,,,,,,,,,,15,19,female,up_down_width,2023_Oct_17_1551,exp1,2021.2.3,59.916332830493715,
4,9.5,9.833333333333334,10.166666666666666,10.5,0,0.33333333333333337,0.23333333333333336,0.1,1.1,10,9,9,9,9,0,,,,,,,,,,,,,,,,,,,,,,,,0,0,0,3,,,,,,,,,,,,,num_4,5.725730400008615,num_4,0.15,0.9,0.2,0.9,7.20859,32.43864,return,19.38338890002342,,,,,,,15,19,female,up_down_width,2023_Oct_17_1551,exp1,2021.2.3,59.916332830493715,
4,8.65,9.55,10.45,11.35,0,0.9,0.5,0.4,3.1,10,9,9,9,9,0,,,,,,,,,,,,,,,,,,,,,,,,0,1,1,5,,,,,,,,,,,,,num_3,1.8304986999719404,num_3,0.15,0.3,0.2,0.3,7.20859,10.81288,return,5.106133000052068,,,,,,,15,19,female,up_down_width,2023_Oct_17_1551,exp1,2021.2.3,59.916332830493715,
3,8.2,10,11.8,0,0,1.7999999999999998,1.4,0.4,4,10,9,9,9,0,0,,,,,,,,,,,,,,,,,,,,,,,,0,2,2,2,,,,,,,,,,,,,num_3,2.889337499975227,num_3,0.3,1.2,0.3,1.2,10.81288,43.25151,return,2.4673908000113443,,,,,,,15,19,female,up_down_width,2023_Oct_17_1551,exp1,2021.2.3,59.916332830493715,
4,9.25,9.75,10.25,10.75,0,0.5,0.25,0.25,1.75,10,9,9,9,9,0,,,,,,,,,,,,,,,,,,,,,,,,0,3,3,4,,,,,,,,,,,,,num_4,1.3495144000044093,num_4,0.3,1.2,0.35,1.2,12.61502,43.25151,return,2.2710030000307597,,,,,,,15,19,female,up_down_width,2023_Oct_17_1551,exp1,2021.2.3,59.916332830493715,
3,9,10,11,0,0,1,0.9,0.1,2.1,10,9,9,9,0,0,,,,,,,,,,,,,,,,,,,,,,,,0,4,4,1,,,,,,,,,,,,,num_3,1.396968699991703,num_3,0.2,0.4,0.05000000000000002,0.4,1.80215,14.41717,return,3.226219200005289,,,,,,,15,19,female,up_down_width,2023_Oct_17_1551,exp1,2021.2.3,59.916332830493715,
3,9.5,10,10.5,0,0,0.5,0.4,0.1,1.1,10,9,9,9,0,0,,,,,,,,,,,,,,,,,,,,,,,,0,5,5,0,,,,,,,,,,,,,num_3,1.293863800005056,num_3,0.35,0.7,0.15000000000000002,0.7,5.40644,25.23005,return,3.2254343000240624,,,,,,,15,19,female,up_down_width,2023_Oct_17_1551,exp1,2021.2.3,59.916332830493715,
5,9.25,9.625,10,10.375,10.75,0.375,0.125,0.25,1.75,10,9,9,9,9,9,,,,,,,,,,,,,,,,,,,,,,,,0,6,6,6,,,,,,,,,,,,,num_4,2.136301700025797,num_4,0.25,1.2,0.39999999999999997,1.2,14.41717,43.25151,return,5.264044799958356,,,,,,,15,19,female,up_down_width,2023_Oct_17_1551,exp1,2021.2.3,59.916332830493715,
5,9,9.5,10,10.5,11,0.5,0.09999999999999998,0.4,2.4,10,9,9,9,9,9,,,,,,,,,,,,,,,,,,,,,,,,0,7,7,8,,,,,,,,,,,,,num_5,2.2616560999886133,num_5,0.15,0.8,0.39999999999999997,0.8,14.41717,28.83434,return,6.504192999971565,,,,,,,15,19,female,up_down_width,2023_Oct_17_1551,exp1,2021.2.3,59.916332830493715,
5,8.6,9.3,10,10.7,11.4,0.7,0.29999999999999993,0.4,3.1999999999999997,10,9,9,9,9,9,,,,,,,,,,,,,,,,,,,,,,,,0,8,8,7,,,,,,,,,,,,,num_5,1.7984794999938458,num_5,0.4,0.5,0.30000000000000004,0.5,10.81288,18.02146,return,3.773577200016007,,,,,,,15,19,female,up_down_width,2023_Oct_17_1551,exp1,2021.2.3,59.916332830493715,
,,,,,,,,,,,,,,,,,,,,,,,,,,,,,,,,,,,,,,,,,,,,,,,,,,,,,,,,,,,,,,,,,,c,52.964498200046364,,,,,15,19,female,up_down_width,2023_Oct_17_1551,exp1,2021.2.3,59.916332830493715,
,,,,,,,,,,,,,,,,3,9,10,11,0,0,1,0.75,0.25,2.25,10,match,36.05,324,361,397,0,0,9,9,9,0,0,,,,,0,0,0,0,0,0,0,39,,,,,num_3,0.9722867999807931,num_3,0.15,0.4,0.2,0.4,7.20859,14.41717,return,1.779439400008414,,,,,,,15,19,female,up_down_width,2023_Oct_17_1551,exp1,2021.2.3,59.916332830493715,
,,,,,,,,,,,,,,,,5,9.25,9.625,10,10.375,10.75,0.375,0.125,0.25,1.75,10,match,36.05,333,347,361,374,388,9,9,9,9,9,,,,,0,0,0,0,0,1,1,21,,,,,num_4,1.7637141000013798,num_4,0.45,0.7,0.4,0.7,14.41717,25.23005,return,1.981422399985604,,,,,,,15,19,female,up_down_width,2023_Oct_17_1551,exp1,2021.2.3,59.916332830493715,
,,,,,,,,,,,,,,,,5,8.6,9.3,10,10.7,11.4,0.7,0.6,0.1,2.9,10,initial,36.05,310,335,361,386,411,9,9,9,9,9,,,,,0,0,0,0,0,2,2,42,,,,,num_4,1.634948400023859,num_4,0.45,0.6,0.10000000000000007,0.6,3.60429,21.62576,return,3.4389564000302926,,,,,,,15,19,female,up_down_width,2023_Oct_17_1551,exp1,2021.2.3,59.916332830493715,
,,,,,,,,,,,,,,,,4,9.1,9.7,10.3,10.9,0,0.5999999999999999,0.3499999999999999,0.25,2.05,10,match,36.05,328,350,371,393,0,9,9,9,9,0,,,,,0,0,0,0,0,3,3,15,,,,,num_4,1.5842676000320353,num_4,0.2,0.4,0.15000000000000002,0.4,5.40644,14.41717,return,2.512188399967272,,,,,,,15,19,female,up_down_width,2023_Oct_17_1551,exp1,2021.2.3,59.916332830493715,
,,,,,,,,,,,,,,,,5,9.25,9.625,10,10.375,10.75,0.375,0.275,0.1,1.6,10,match,36.05,333,347,361,374,388,9,9,9,9,9,,,,,0,0,0,0,0,4,4,19,,,,,num_5,1.3564585999702103,num_5,0.2,0.3,0.10000000000000002,0.3,3.60429,10.81288,return,2.6925258000264876,,,,,,,15,19,female,up_down_width,2023_Oct_17_1551,exp1,2021.2.3,59.916332830493715,
,,,,,,,,,,,,,,,,3,9,10,11,0,0,1,0.9,0.1,2.1,10,match,36.05,324,361,397,0,0,9,9,9,0,0,,,,,0,0,0,0,0,5,5,37,,,,,num_3,1.1736700999899767,num_3,0.45,0.8,0.05000000000000007,0.8,1.80215,28.83434,return,4.277495999995153,,,,,,,15,19,female,up_down_width,2023_Oct_17_1551,exp1,2021.2.3,59.916332830493715,
,,,,,,,,,,,,,,,,4,9.3,9.766666666666667,10.233333333333333,10.7,0,0.4666666666666667,0.3666666666666667,0.1,1.5,10,match,36.05,335,352,369,386,0,9,9,9,9,0,,,,,0,0,0,0,0,6,6,7,,,,,num_4,1.1869783000438474,num_4,0.25,1.0,0.05000000000000002,1.0,1.80215,36.04293,return,2.5940111000090837,,,,,,,15,19,female,up_down_width,2023_Oct_17_1551,exp1,2021.2.3,59.916332830493715,
,,,,,,,,,,,,,,,,3,8.2,10,11.8,0,0,1.8,1.55,0.25,3.85,10,match,36.05,296,361,425,0,0,9,9,9,0,0,,,,,0,0,0,0,0,7,7,51,,,,,num_3,1.1866980000049807,num_3,0.25,1,0.25,1,9.01073,36.04293,return,2.129867799987551,,,,,,,15,19,female,up_down_width,2023_Oct_17_1551,exp1,2021.2.3,59.916332830493715,
,,,,,,,,,,,,,,,,4,9.425,9.808333333333334,10.191666666666666,10.575,0,0.3833333333333333,0.1333333333333333,0.25,1.4,10,match,36.05,340,354,367,381,0,9,9,9,9,0,,,,,0,0,0,0,0,8,8,5,,,,,num_4,1.135571900056675,num_4,0.35,0.4,0.2,0.4,7.20859,14.41717,return,2.3984194999793544,,,,,,,15,19,female,up_down_width,2023_Oct_17_1551,exp1,2021.2.3,59.916332830493715,
,,,,,,,,,,,,,,,,4,8.95,9.65,10.35,11.05,0,0.7,0.29999999999999993,0.4,2.5,10,initial,36.05,323,348,373,398,0,9,9,9,9,0,,,,,0,0,0,0,0,9,9,28,,,,,num_4,1.1278168999706395,num_4,0.15,0.5,0.25,0.5,9.01073,18.02146,return,2.2169314000057057,,,,,,,15,19,female,up_down_width,2023_Oct_17_1551,exp1,2021.2.3,59.916332830493715,
,,,,,,,,,,,,,,,,5,8.65,9.325,10,10.675,11.35,0.675,0.275,0.4,3.1,10,match,36.05,312,336,361,385,409,9,9,9,9,9,,,,,0,0,0,0,0,10,10,35,,,,,num_4,1.0736635999637656,num_4,0.3,0.9,0.3,0.9,10.81288,32.43864,return,1.0770907999831252,,,,,,,15,19,female,up_down_width,2023_Oct_17_1551,exp1,2021.2.3,59.916332830493715,
,,,,,,,,,,,,,,,,4,9.1,9.7,10.3,10.9,0,0.6,0.5,0.1,1.9,10,match,36.05,328,350,371,393,0,9,9,9,9,0,,,,,0,0,0,0,0,11,11,13,,,,,num_4,2.0996402999735437,num_4,0.45,1.1,0.10000000000000007,1.1,3.60429,39.64722,return,2.8943397999973968,,,,,,,15,19,female,up_down_width,2023_Oct_17_1551,exp1,2021.2.3,59.916332830493715,
,,,,,,,,,,,,,,,,4,8.65,9.55,10.45,11.35,0,0.9,0.8,0.1,2.8000000000000003,10,initial,36.05,312,344,377,409,0,9,9,9,9,0,,,,,0,0,0,0,0,12,12,30,,,,,num_3,1.507736700004898,num_3,0.1,0.5,0.2,0.5,7.20859,18.02146,return,3.3027997000026517,,,,,,,15,19,female,up_down_width,2023_Oct_17_1551,exp1,2021.2.3,59.916332830493715,
,,,,,,,,,,,,,,,,4,9.5,9.833333333333334,10.166666666666666,10.5,0,0.3333333333333333,0.08333333333333333,0.25,1.25,10,match,36.05,342,354,367,379,0,9,9,9,9,0,,,,,0,0,0,0,0,13,13,3,,,,,num_4,1.6631263999734074,num_4,0.45,1.1,0.35000000000000003,0.8,12.61502,28.83434,return,11.221628400031477,,,,,,,15,19,female,up_down_width,2023_Oct_17_1551,exp1,2021.2.3,59.916332830493715,
,,,,,,,,,,,,,,,,5,9,9.5,10,10.5,11,0.5,0.25,0.25,2.25,10,initial,36.05,324,342,361,379,397,9,9,9,9,9,,,,,0,0,0,0,0,14,14,38,,,,,num_4,1.1217801999882795,num_4,0.15,0.5,0.2,0.5,7.20859,18.02146,return,5.042124999978114,,,,,,,15,19,female,up_down_width,2023_Oct_17_1551,exp1,2021.2.3,59.916332830493715,
,,,,,,,,,,,,,,,,4,9.3,9.766666666666667,10.233333333333333,10.7,0,0.4666666666666667,0.21666666666666665,0.25,1.65,10,match,36.05,335,352,369,386,0,9,9,9,9,0,,,,,0,0,0,0,0,15,15,9,,,,,num_4,1.9042172000044957,num_4,0.45,0.8,0.25000000000000006,0.6,9.01073,21.62576,return,5.201651600014884,,,,,,,15,19,female,up_down_width,2023_Oct_17_1551,exp1,2021.2.3,59.916332830493715,
,,,,,,,,,,,,,,,,5,8.95,9.475,10,10.525,11.05,0.525,0.42500000000000004,0.1,2.2,10,match,36.05,323,342,361,379,398,9,9,9,9,9,,,,,0,0,0,0,0,16,16,25,,,,,num_4,1.1513653000001796,num_4,0.45,0.5,0.20000000000000007,0.7,7.20859,25.23005,return,4.168403599993326,,,,,,,15,19,female,up_down_width,2023_Oct_17_1551,exp1,2021.2.3,59.916332830493715,
,,,,,,,,,,,,,,,,4,9.25,9.75,10.25,10.75,0,0.5,0.4,0.1,1.6,10,initial,36.05,333,351,370,388,0,9,9,9,9,0,,,,,0,0,0,0,0,17,17,18,,,,,num_4,1.0849675000063144,num_4,0.3,1.2,0.15000000000000002,1.0,5.40644,36.04293,return,6.2875826000235975,,,,,,,15,19,female,up_down_width,2023_Oct_17_1551,exp1,2021.2.3,59.916332830493715,
,,,,,,,,,,,,,,,,5,8.95,9.475,10,10.525,11.05,0.525,0.125,0.4,2.5,10,match,36.05,323,342,361,379,398,9,9,9,9,9,,,,,0,0,0,0,0,18,18,29,,,,,num_4,0.9996093000518158,num_4,0.1,0.4,0.2,0.7,7.20859,25.23005,return,2.9932652999996208,,,,,,,15,19,female,up_down_width,2023_Oct_17_1551,exp1,2021.2.3,59.916332830493715,
,,,,,,,,,,,,,,,,3,8.6,10,11.4,0,0,1.4,1.15,0.25,3.05,10,match,36.05,310,361,411,0,0,9,9,9,0,0,,,,,0,0,0,0,0,19,19,45,,,,,num_3,1.6096648999955505,num_3,0.25,1.3,0.25,1.4,9.01073,50.4601,return,3.112511600018479,,,,,,,15,19,female,up_down_width,2023_Oct_17_1551,exp1,2021.2.3,59.916332830493715,
,,,,,,,,,,,,,,,,5,8.65,9.325,10,10.675,11.35,0.6749999999999999,0.575,0.1,2.8,10,match,36.05,312,336,361,385,409,9,9,9,9,9,,,,,0,0,0,0,0,20,20,31,,,,,num_4,1.012358799984213,num_4,0.3,1.3,0.15000000000000002,1.1,5.40644,39.64722,return,3.1792927000205964,,,,,,,15,19,female,up_down_width,2023_Oct_17_1551,exp1,2021.2.3,59.916332830493715,
,,,,,,,,,,,,,,,,3,8.525,10,11.475,0,0,1.475,1.225,0.25,3.2,10,match,36.05,307,361,414,0,0,9,9,9,0,0,,,,,0,0,0,0,0,21,21,47,,,,,num_3,1.1643805000348948,num_3,0.15,1,0.25,1.35,9.01073,48.65795,return,4.687122699979227,,,,,,,15,19,female,up_down_width,2023_Oct_17_1551,exp1,2021.2.3,59.916332830493715,
,,,,,,,,,,,,,,,,4,9.5,9.833333333333334,10.166666666666666,10.5,0,0.33333333333333337,0.23333333333333336,0.1,1.1,10,match,36.05,342,354,367,379,0,9,9,9,9,0,,,,,0,0,0,0,0,22,22,1,,,,,num_4,1.9063279000110924,num_4,0.3,0.3,0.10000000000000002,0.3,3.60429,10.81288,return,4.805949000001419,,,,,,,15,19,female,up_down_width,2023_Oct_17_1551,exp1,2021.2.3,59.916332830493715,
,,,,,,,,,,,,,,,,5,8.2,9.1,10,10.9,11.8,0.9,0.65,0.25,3.85,10,initial,36.05,296,328,361,393,425,9,9,9,9,9,,,,,0,0,0,0,0,23,23,50,,,,,num_4,0.9229936999618076,num_4,0.25,0.7,0.2,0.6,7.20859,21.62576,return,4.514626000018325,,,,,,,15,19,female,up_down_width,2023_Oct_17_1551,exp1,2021.2.3,59.916332830493715,
,,,,,,,,,,,,,,,,4,9.25,9.75,10.25,10.75,0,0.5,0.09999999999999998,0.4,1.9,10,initial,36.05,333,351,370,388,0,9,9,9,9,0,,,,,0,0,0,0,0,24,24,22,,,,,num_4,1.0528174999635667,num_4,0.35,1.2,0.3,0.6,10.81288,21.62576,return,5.553308300033677,,,,,,,15,19,female,up_down_width,2023_Oct_17_1551,exp1,2021.2.3,59.916332830493715,
,,,,,,,,,,,,,,,,3,9.5,10,10.5,0,0,0.5,0.4,0.1,1.1,10,initial,36.05,342,361,379,0,0,9,9,9,0,0,,,,,0,0,0,0,0,25,25,0,,,,,num_3,1.130423599970527,num_3,0.15,0.8,0.15,0.5,5.40644,18.02146,return,2.3974696999648586,,,,,,,15,19,female,up_down_width,2023_Oct_17_1551,exp1,2021.2.3,59.916332830493715,
,,,,,,,,,,,,,,,,5,9,9.5,10,10.5,11,0.5,0.09999999999999998,0.4,2.4,10,initial,36.05,324,342,361,379,397,9,9,9,9,9,,,,,0,0,0,0,0,26,26,40,,,,,num_5,1.508503999968525,num_5,0.15,1.2,0.39999999999999997,0.6,14.41717,21.62576,return,8.660047500045039,,,,,,,15,19,female,up_down_width,2023_Oct_17_1551,exp1,2021.2.3,59.916332830493715,
,,,,,,,,,,,,,,,,5,8.2,9.1,10,10.9,11.8,0.9,0.8,0.1,3.7,10,initial,36.05,296,328,361,393,425,9,9,9,9,9,,,,,0,0,0,0,0,27,27,48,,,,,num_4,1.566292900010012,num_4,0.4,1.1,0.20000000000000007,1.2,7.20859,43.25151,return,7.760049100033939,,,,,,,15,19,female,up_down_width,2023_Oct_17_1551,exp1,2021.2.3,59.916332830493715,
,,,,,,,,,,,,,,,,3,9.1,10,10.9,0,0,0.9,0.8,0.1,1.9000000000000001,10,initial,36.05,328,361,393,0,0,9,9,9,0,0,,,,,0,0,0,0,0,28,28,12,,,,,num_3,1.179046200006269,num_3,0.25,1.2,0.10000000000000002,1.75,3.60429,63.07512,return,4.522363299969584,,,,,,,15,19,female,up_down_width,2023_Oct_17_1551,exp1,2021.2.3,59.916332830493715,
,,,,,,,,,,,,,,,,3,9.5,10,10.5,0,0,0.5,0.09999999999999998,0.4,1.4000000000000001,10,initial,36.05,342,361,379,0,0,9,9,9,0,0,,,,,0,0,0,0,0,29,29,4,,,,,num_3,1.1323526000487618,num_3,0.35,0.5,0.5499999999999999,0.8,19.82361,28.83434,return,6.628519199963193,,,,,,,15,19,female,up_down_width,2023_Oct_17_1551,exp1,2021.2.3,59.916332830493715,
,,,,,,,,,,,,,,,,5,9,9.5,10,10.5,11,0.5,0.4,0.1,2.1,10,initial,36.05,324,342,361,379,397,9,9,9,9,9,,,,,0,0,0,0,0,30,30,36,,,,,num_4,1.4516708999872208,num_4,0.35,0.4,0.10000000000000002,0.8,3.60429,28.83434,return,5.632570699963253,,,,,,,15,19,female,up_down_width,2023_Oct_17_1551,exp1,2021.2.3,59.916332830493715,
,,,,,,,,,,,,,,,,4,8.95,9.65,10.35,11.05,0,0.7,0.44999999999999996,0.25,2.3499999999999996,10,initial,36.05,323,348,373,398,0,9,9,9,9,0,,,,,0,0,0,0,0,31,31,26,,,,,num_4,1.0643858999828808,num_4,0.3,0.9,0.2,0.6,7.20859,21.62576,return,6.252553300000727,,,,,,,15,19,female,up_down_width,2023_Oct_17_1551,exp1,2021.2.3,59.916332830493715,
,,,,,,,,,,,,,,,,5,8.65,9.325,10,10.675,11.35,0.675,0.42500000000000004,0.25,2.95,10,match,36.05,312,336,361,385,409,9,9,9,9,9,,,,,0,0,0,0,0,32,32,33,,,,,num_5,1.0495593000086956,num_5,0.25,0.8,0.25,0.55,9.01073,19.82361,return,3.9967785999760963,,,,,,,15,19,female,up_down_width,2023_Oct_17_1551,exp1,2021.2.3,59.916332830493715,
,,,,,,,,,,,,,,,,5,8.95,9.475,10,10.525,11.05,0.525,0.275,0.25,2.35,10,match,36.05,323,342,361,379,398,9,9,9,9,9,,,,,0,0,0,0,0,33,33,27,,,,,num_5,1.3677031999686733,num_5,0.2,0.9,0.25,0.5,9.01073,18.02146,return,3.152366299997084,,,,,,,15,19,female,up_down_width,2023_Oct_17_1551,exp1,2021.2.3,59.916332830493715,
,,,,,,,,,,,,,,,,4,9.25,9.75,10.25,10.75,0,0.5,0.25,0.25,1.75,10,initial,36.05,333,351,370,388,0,9,9,9,9,0,,,,,0,0,0,0,0,34,34,20,,,,,num_3,1.2256930000148714,num_3,0.3,1,0.35,0.6,12.61502,21.62576,return,3.7506713999900967,,,,,,,15,19,female,up_down_width,2023_Oct_17_1551,exp1,2021.2.3,59.916332830493715,
,,,,,,,,,,,,,,,,4,9.3,9.766666666666667,10.233333333333333,10.7,0,0.4666666666666667,0.06666666666666665,0.4,1.8,10,match,36.05,335,352,369,386,0,9,9,9,9,0,,,,,0,0,0,0,0,35,35,11,,,,,num_3,1.0284679000033066,num_3,0.25,1,0.5499999999999999,0.7,19.82361,25.23005,return,5.498482900031377,,,,,,,15,19,female,up_down_width,2023_Oct_17_1551,exp1,2021.2.3,59.916332830493715,
,,,,,,,,,,,,,,,,5,9.175,9.5875,10,10.4125,10.825,0.4125,0.16249999999999998,0.25,1.9,10,match,36.05,331,346,361,375,390,9,9,9,9,9,,,,,0,0,0,0,0,36,36,23,,,,,num_4,1.199056199984625,num_4,0.1,0.6,0.44999999999999996,0.6,16.21932,21.62576,return,3.7254173000110313,,,,,,,15,19,female,up_down_width,2023_Oct_17_1551,exp1,2021.2.3,59.916332830493715,
,,,,,,,,,,,,,,,,3,8.2,10,11.8,0,0,1.8000000000000003,1.7000000000000002,0.1,3.7,10,match,36.05,296,361,425,0,0,9,9,9,0,0,,,,,0,0,0,0,0,37,37,49,,,,,num_3,1.125699300027918,num_3,0.3,1.3,0.15000000000000002,1.2,5.40644,43.25151,return,5.2718955999589525,,,,,,,15,19,female,up_down_width,2023_Oct_17_1551,exp1,2021.2.3,59.916332830493715,
,,,,,,,,,,,,,,,,3,9.1,10,10.9,0,0,0.9,0.5,0.4,2.2,10,initial,36.05,328,361,393,0,0,9,9,9,0,0,,,,,0,0,0,0,0,38,38,16,,,,,num_3,0.8854567999951541,num_3,0.15,0.8,0.44999999999999996,0.9,16.21932,32.43864,return,5.4889793000184,,,,,,,15,19,female,up_down_width,2023_Oct_17_1551,exp1,2021.2.3,59.916332830493715,
,,,,,,,,,,,,,,,,3,9.3,10,10.7,0,0,0.7,0.44999999999999996,0.25,1.65,10,initial,36.05,335,361,386,0,0,9,9,9,0,0,,,,,0,0,0,0,0,39,39,8,,,,,num_3,0.9515504000009969,num_3,0.15,0.5,0.3,0.8,10.81288,28.83434,return,5.411213500017766,,,,,,,15,19,female,up_down_width,2023_Oct_17_1551,exp1,2021.2.3,59.916332830493715,
,,,,,,,,,,,,,,,,3,9.1,10,10.9,0,0,0.9,0.65,0.25,2.05,10,initial,36.05,328,361,393,0,0,9,9,9,0,0,,,,,0,0,0,0,0,40,40,14,,,,,num_3,0.9115962000214495,num_3,0.4,0.8,0.20000000000000007,0.85,7.20859,30.63649,return,5.192874899948947,,,,,,,15,19,female,up_down_width,2023_Oct_17_1551,exp1,2021.2.3,59.916332830493715,
,,,,,,,,,,,,,,,,4,8.65,9.55,10.45,11.35,0,0.9,0.5,0.4,3.1,10,initial,36.05,312,344,377,409,0,9,9,9,9,0,,,,,0,0,0,0,0,41,41,34,,,,,num_4,1.4681555000133812,num_4,0.2,1.1,0.39999999999999997,1.0,14.41717,36.04293,return,4.639094399986789,,,,,,,15,19,female,up_down_width,2023_Oct_17_1551,exp1,2021.2.3,59.916332830493715,
,,,,,,,,,,,,,,,,4,8.65,9.55,10.45,11.35,0,0.9,0.65,0.25,2.95,10,initial,36.05,312,344,377,409,0,9,9,9,9,0,,,,,0,0,0,0,0,42,42,32,,,,,num_4,1.286596300022211,num_4,0.45,0.8,0.30000000000000004,0.9,10.81288,32.43864,return,4.098074099980295,,,,,,,15,19,female,up_down_width,2023_Oct_17_1551,exp1,2021.2.3,59.916332830493715,
,,,,,,,,,,,,,,,,5,8.6,9.3,10,10.7,11.4,0.7,0.29999999999999993,0.4,3.1999999999999997,10,initial,36.05,310,335,361,386,411,9,9,9,9,9,,,,,0,0,0,0,0,43,43,46,,,,,num_4,1.0157722000149079,num_4,0.1,0.6,0.39999999999999997,0.9,14.41717,32.43864,return,3.674678799987305,,,,,,,15,19,female,up_down_width,2023_Oct_17_1551,exp1,2021.2.3,59.916332830493715,
,,,,,,,,,,,,,,,,3,8.6,10,11.4,0,0,1.4,1.2999999999999998,0.1,2.9,10,match,36.05,310,361,411,0,0,9,9,9,0,0,,,,,0,0,0,0,0,44,44,43,,,,,num_3,1.0995106000336818,num_3,0.2,0.3,0.10000000000000002,0.85,3.60429,30.63649,return,5.439930699998513,,,,,,,15,19,female,up_down_width,2023_Oct_17_1551,exp1,2021.2.3,59.916332830493715,
,,,,,,,,,,,,,,,,3,9,10,11,0,0,0.9999999999999999,0.5999999999999999,0.4,2.4,10,match,36.05,324,361,397,0,0,9,9,9,0,0,,,,,0,0,0,0,0,45,45,41,,,,,num_3,2.4781875000335276,num_3,0.2,0.7,0.39999999999999997,0.85,14.41717,30.63649,return,3.61689349997323,,,,,,,15,19,female,up_down_width,2023_Oct_17_1551,exp1,2021.2.3,59.916332830493715,
,,,,,,,,,,,,,,,,3,9.5,10,10.5,0,0,0.5,0.25,0.25,1.25,10,initial,36.05,342,361,379,0,0,9,9,9,0,0,,,,,0,0,0,0,0,46,46,2,,,,,num_3,1.0559027999988757,num_3,0.2,0.8,0.3,0.55,10.81288,19.82361,return,2.723334399983287,,,,,,,15,19,female,up_down_width,2023_Oct_17_1551,exp1,2021.2.3,59.916332830493715,
,,,,,,,,,,,,,,,,4,9.1,9.7,10.3,10.9,0,0.6000000000000001,0.20000000000000004,0.4,2.2,10,match,36.05,328,350,371,393,0,9,9,9,9,0,,,,,0,0,0,0,0,47,47,17,,,,,num_3,0.9798082000343129,num_3,0.45,0.6,0.4,0.7,14.41717,25.23005,return,4.297341400000732,,,,,,,15,19,female,up_down_width,2023_Oct_17_1551,exp1,2021.2.3,59.916332830493715,
,,,,,,,,,,,,,,,,3,9.3,10,10.7,0,0,0.7,0.29999999999999993,0.4,1.8,10,initial,36.05,335,361,386,0,0,9,9,9,0,0,,,,,0,0,0,0,0,48,48,10,,,,,num_3,1.1584182999795303,num_3,0.3,1.3,0.35,0.7,12.61502,25.23005,return,7.973995599953923,,,,,,,15,19,female,up_down_width,2023_Oct_17_1551,exp1,2021.2.3,59.916332830493715,
,,,,,,,,,,,,,,,,5,8.6,9.3,10,10.7,11.4,0.7,0.44999999999999996,0.25,3.05,10,initial,36.05,310,335,361,386,411,9,9,9,9,9,,,,,0,0,0,0,0,49,49,44,,,,,num_4,1.405905999999959,num_4,0.45,0.9,0.30000000000000004,0.6,10.81288,21.62576,return,4.594222100044135,,,,,,,15,19,female,up_down_width,2023_Oct_17_1551,exp1,2021.2.3,59.916332830493715,
,,,,,,,,,,,,,,,,3,9.3,10,10.7,0,0,0.7,0.6,0.1,1.5,10,initial,36.05,335,361,386,0,0,9,9,9,0,0,,,,,0,0,0,0,0,50,50,6,,,,,num_3,1.0234384999494068,num_3,0.2,0.4,0.05000000000000002,0.7,1.80215,25.23005,return,3.847458900010679,,,,,,,15,19,female,up_down_width,2023_Oct_17_1551,exp1,2021.2.3,59.916332830493715,
,,,,,,,,,,,,,,,,4,8.95,9.65,10.35,11.05,0,0.7,0.6,0.1,2.1999999999999997,10,initial,36.05,323,348,373,398,0,9,9,9,9,0,,,,,0,0,0,0,0,51,51,24,,,,,num_3,1.1645110999816097,num_3,0.35,0.9,0.05000000000000002,1.05,1.80215,37.84507,return,4.460123700031545,,,,,,,15,19,female,up_down_width,2023_Oct_17_1551,exp1,2021.2.3,59.916332830493715,
,,,,,,,,,,,,,,,,5,8.2,9.1,10,10.9,11.8,0.9,0.5,0.4,4,10,initial,36.05,296,328,361,393,425,9,9,9,9,9,,,,,0,0,0,0,0,52,52,52,,,,,num_4,1.1207014999818057,num_4,0.25,1.1,0.6,1.3,21.62576,46.85581,return,5.82528629997978,,,,,,,15,19,female,up_down_width,2023_Oct_17_1551,exp1,2021.2.3,59.916332830493715,
,,,,,,,,,,,,,,,,3,8.2,10,11.8,0,0,1.7999999999999998,1.4,0.4,4,10,match,36.05,296,361,425,0,0,9,9,9,0,0,,,,,0,0,0,0,0,53,53,53,,,,,num_3,0.9663159999763593,num_3,0.4,0.5,0.5,1.45,18.02146,52.26225,return,8.924772000056691,,,,,,,15,19,female,up_down_width,2023_Oct_17_1551,exp1,2021.2.3,59.916332830493715,
,,,,,,,,,,,,,,,,,,,,,,,,,,,,,,,,,,,,,,,,,,,0,0,0,0,,,,,,,,,,,,,,,,,,,,,,640.0799753000028,None,640.0799753000028,None,15,19,female,up_down_width,2023_Oct_17_1551,exp1,2021.2.3,59.916332830493715,
,,,,,,,,,,,,,,,,4,8.95,9.65,10.35,11.05,0,0.7,0.44999999999999996,0.25,2.3499999999999996,10,initial,36.05,323,348,373,398,0,9,9,9,9,0,,,,,1,0,1,0,0,0,0,26,,,,,num_4,1.4241778000141494,num_4,0.2,1.0,0.3,0.8,10.81288,28.83434,return,3.107691499986686,,,,,,,15,19,female,up_down_width,2023_Oct_17_1551,exp1,2021.2.3,59.916332830493715,
,,,,,,,,,,,,,,,,4,9.1,9.7,10.3,10.9,0,0.6,0.5,0.1,1.9,10,match,36.05,328,350,371,393,0,9,9,9,9,0,,,,,1,0,1,0,0,1,1,13,,,,,num_4,1.046253099979367,num_4,0.15,0.7,0.09999999999999999,0.6,3.60429,21.62576,return,3.226040899986401,,,,,,,15,19,female,up_down_width,2023_Oct_17_1551,exp1,2021.2.3,59.916332830493715,
,,,,,,,,,,,,,,,,3,8.6,10,11.4,0,0,1.4,1.15,0.25,3.05,10,match,36.05,310,361,411,0,0,9,9,9,0,0,,,,,1,0,1,0,0,2,2,45,,,,,num_3,1.1168109999853186,num_3,0.25,0.5,0.2,1.0,7.20859,36.04293,return,5.455954999953974,,,,,,,15,19,female,up_down_width,2023_Oct_17_1551,exp1,2021.2.3,59.916332830493715,
,,,,,,,,,,,,,,,,5,8.95,9.475,10,10.525,11.05,0.525,0.125,0.4,2.5,10,match,36.05,323,342,361,379,398,9,9,9,9,9,,,,,1,0,1,0,0,3,3,29,,,,,num_4,0.9739030000055209,num_4,0.25,0.6,0.39999999999999997,0.6,14.41717,21.62576,return,3.797212799952831,,,,,,,15,19,female,up_down_width,2023_Oct_17_1551,exp1,2021.2.3,59.916332830493715,
,,,,,,,,,,,,,,,,5,8.65,9.325,10,10.675,11.35,0.675,0.275,0.4,3.1,10,match,36.05,312,336,361,385,409,9,9,9,9,9,,,,,1,0,1,0,0,4,4,35,,,,,num_5,1.9083697999594733,num_5,0.3,1.3,0.3,0.75,10.81288,27.0322,return,7.543734299950302,,,,,,,15,19,female,up_down_width,2023_Oct_17_1551,exp1,2021.2.3,59.916332830493715,
,,,,,,,,,,,,,,,,4,8.65,9.55,10.45,11.35,0,0.9,0.65,0.25,2.95,10,initial,36.05,312,344,377,409,0,9,9,9,9,0,,,,,1,0,1,0,0,5,5,32,,,,,num_4,1.445923599996604,num_4,0.15,1.3,0.3,0.7,10.81288,25.23005,return,4.506763500045054,,,,,,,15,19,female,up_down_width,2023_Oct_17_1551,exp1,2021.2.3,59.916332830493715,
,,,,,,,,,,,,,,,,4,9.25,9.75,10.25,10.75,0,0.5,0.25,0.25,1.75,10,initial,36.05,333,351,370,388,0,9,9,9,9,0,,,,,1,0,1,0,0,6,6,20,,,,,num_4,1.5771496000234038,num_4,0.35,0.8,0.2,0.5,7.20859,18.02146,return,5.368304900010116,,,,,,,15,19,female,up_down_width,2023_Oct_17_1551,exp1,2021.2.3,59.916332830493715,
,,,,,,,,,,,,,,,,3,9.3,10,10.7,0,0,0.7,0.44999999999999996,0.25,1.65,10,initial,36.05,335,361,386,0,0,9,9,9,0,0,,,,,1,0,1,0,0,7,7,8,,,,,num_3,1.2252552999998443,num_3,0.2,1.1,0.25,0.55,9.01073,19.82361,return,5.734603199991398,,,,,,,15,19,female,up_down_width,2023_Oct_17_1551,exp1,2021.2.3,59.916332830493715,
,,,,,,,,,,,,,,,,5,9.175,9.5875,10,10.4125,10.825,0.4125,0.16249999999999998,0.25,1.9,10,match,36.05,331,346,361,375,390,9,9,9,9,9,,,,,1,0,1,0,0,8,8,23,,,,,num_4,1.0385025999858044,num_4,0.4,0.7,0.25000000000000006,0.6,9.01073,21.62576,return,3.761909699998796,,,,,,,15,19,female,up_down_width,2023_Oct_17_1551,exp1,2021.2.3,59.916332830493715,
,,,,,,,,,,,,,,,,4,8.95,9.65,10.35,11.05,0,0.7,0.6,0.1,2.1999999999999997,10,initial,36.05,323,348,373,398,0,9,9,9,9,0,,,,,1,0,1,0,0,9,9,24,,,,,num_4,1.9978952000383288,num_4,0.25,1.3,0.05000000000000002,1.1,1.80215,39.64722,return,3.467300600023009,,,,,,,15,19,female,up_down_width,2023_Oct_17_1551,exp1,2021.2.3,59.916332830493715,
,,,,,,,,,,,,,,,,3,9.5,10,10.5,0,0,0.5,0.09999999999999998,0.4,1.4000000000000001,10,initial,36.05,342,361,379,0,0,9,9,9,0,0,,,,,1,0,1,0,0,10,10,4,,,,,num_3,1.0829960000119172,num_3,0.4,0.5,0.30000000000000004,0.45,10.81288,16.21932,return,7.039915400033351,,,,,,,15,19,female,up_down_width,2023_Oct_17_1551,exp1,2021.2.3,59.916332830493715,
,,,,,,,,,,,,,,,,5,9.25,9.625,10,10.375,10.75,0.375,0.125,0.25,1.75,10,match,36.05,333,347,361,374,388,9,9,9,9,9,,,,,1,0,1,0,0,11,11,21,,,,,num_4,1.057806900003925,num_4,0.15,0.8,0.3,0.5,10.81288,18.02146,return,16.0838056000066,,,,,,,15,19,female,up_down_width,2023_Oct_17_1551,exp1,2021.2.3,59.916332830493715,
,,,,,,,,,,,,,,,,3,9,10,11,0,0,1,0.9,0.1,2.1,10,match,36.05,324,361,397,0,0,9,9,9,0,0,,,,,1,0,1,0,0,12,12,37,,,,,num_3,1.0196480000158772,num_3,0.1,1.1,0.1,1.3,3.60429,46.85581,return,4.722556599997915,,,,,,,15,19,female,up_down_width,2023_Oct_17_1551,exp1,2021.2.3,59.916332830493715,
,,,,,,,,,,,,,,,,4,9.25,9.75,10.25,10.75,0,0.5,0.4,0.1,1.6,10,initial,36.05,333,351,370,388,0,9,9,9,9,0,,,,,1,0,1,0,0,13,13,18,,,,,num_4,1.5758389999973588,num_4,0.35,0.5,0.05000000000000002,0.9,1.80215,32.43864,return,4.050230599998031,,,,,,,15,19,female,up_down_width,2023_Oct_17_1551,exp1,2021.2.3,59.916332830493715,
,,,,,,,,,,,,,,,,4,8.65,9.55,10.45,11.35,0,0.9,0.5,0.4,3.1,10,initial,36.05,312,344,377,409,0,9,9,9,9,0,,,,,1,0,1,0,0,14,14,34,,,,,num_4,1.7519996999762952,num_4,0.1,0.7,0.39999999999999997,1.1,14.41717,39.64722,return,3.9189424000214785,,,,,,,15,19,female,up_down_width,2023_Oct_17_1551,exp1,2021.2.3,59.916332830493715,
,,,,,,,,,,,,,,,,5,9,9.5,10,10.5,11,0.5,0.4,0.1,2.1,10,initial,36.05,324,342,361,379,397,9,9,9,9,9,,,,,1,0,1,0,0,15,15,36,,,,,num_4,1.0292103000101633,num_4,0.1,0.4,0.15000000000000002,1.4,5.40644,50.4601,return,3.8008155000279658,,,,,,,15,19,female,up_down_width,2023_Oct_17_1551,exp1,2021.2.3,59.916332830493715,
,,,,,,,,,,,,,,,,4,9.25,9.75,10.25,10.75,0,0.5,0.09999999999999998,0.4,1.9,10,initial,36.05,333,351,370,388,0,9,9,9,9,0,,,,,1,0,1,0,0,16,16,22,,,,,num_4,1.2599501999793574,num_4,0.1,1.2,0.2,0.4,7.20859,14.41717,return,13.765611600014381,,,,,,,15,19,female,up_down_width,2023_Oct_17_1551,exp1,2021.2.3,59.916332830493715,
,,,,,,,,,,,,,,,,5,8.95,9.475,10,10.525,11.05,0.525,0.42500000000000004,0.1,2.2,10,match,36.05,323,342,361,379,398,9,9,9,9,9,,,,,1,0,1,0,0,17,17,25,,,,,num_4,1.1766633000224829,num_4,0.25,1.2,0.10000000000000002,1.0,3.60429,36.04293,return,4.776287399989087,,,,,,,15,19,female,up_down_width,2023_Oct_17_1551,exp1,2021.2.3,59.916332830493715,
,,,,,,,,,,,,,,,,4,9.1,9.7,10.3,10.9,0,0.6000000000000001,0.20000000000000004,0.4,2.2,10,match,36.05,328,350,371,393,0,9,9,9,9,0,,,,,1,0,1,0,0,18,18,17,,,,,num_3,1.2097116999793798,num_3,0.15,0.8,0.35,0.6,12.61502,21.62576,return,3.5440850000013597,,,,,,,15,19,female,up_down_width,2023_Oct_17_1551,exp1,2021.2.3,59.916332830493715,
,,,,,,,,,,,,,,,,5,8.6,9.3,10,10.7,11.4,0.7,0.6,0.1,2.9,10,initial,36.05,310,335,361,386,411,9,9,9,9,9,,,,,1,0,1,0,0,19,19,42,,,,,num_4,0.9232137000071816,num_4,0.2,0.9,0.05000000000000002,1.1,1.80215,39.64722,return,2.451931199990213,,,,,,,15,19,female,up_down_width,2023_Oct_17_1551,exp1,2021.2.3,59.916332830493715,
,,,,,,,,,,,,,,,,4,9.3,9.766666666666667,10.233333333333333,10.7,0,0.4666666666666667,0.21666666666666665,0.25,1.65,10,match,36.05,335,352,369,386,0,9,9,9,9,0,,,,,1,0,1,0,0,20,20,9,,,,,num_3,1.3632367000100203,num_3,0.4,0.5,0.20000000000000007,0.45,7.20859,16.21932,return,4.826777300040703,,,,,,,15,19,female,up_down_width,2023_Oct_17_1551,exp1,2021.2.3,59.916332830493715,
,,,,,,,,,,,,,,,,4,9.5,9.833333333333334,10.166666666666666,10.5,0,0.3333333333333333,0.08333333333333333,0.25,1.25,10,match,36.05,342,354,367,379,0,9,9,9,9,0,,,,,1,0,1,0,0,21,21,3,,,,,num_3,1.1165674999938346,num_3,0.1,0.7,0.25,0.4,9.01073,14.41717,return,6.735293800011277,,,,,,,15,19,female,up_down_width,2023_Oct_17_1551,exp1,2021.2.3,59.916332830493715,
,,,,,,,,,,,,,,,,5,8.65,9.325,10,10.675,11.35,0.6749999999999999,0.575,0.1,2.8,10,match,36.05,312,336,361,385,409,9,9,9,9,9,,,,,1,0,1,0,0,22,22,31,,,,,num_4,0.9758952999836765,num_4,0.45,1.2,0.20000000000000007,0.6,7.20859,21.62576,return,8.167124999978114,,,,,,,15,19,female,up_down_width,2023_Oct_17_1551,exp1,2021.2.3,59.916332830493715,
,,,,,,,,,,,,,,,,5,8.65,9.325,10,10.675,11.35,0.675,0.42500000000000004,0.25,2.95,10,match,36.05,312,336,361,385,409,9,9,9,9,9,,,,,1,0,1,0,0,23,23,33,,,,,num_4,1.1460080000106245,num_4,0.25,0.4,0.25,0.6,9.01073,21.62576,return,5.159245799994096,,,,,,,15,19,female,up_down_width,2023_Oct_17_1551,exp1,2021.2.3,59.916332830493715,
,,,,,,,,,,,,,,,,3,8.2,10,11.8,0,0,1.8000000000000003,1.7000000000000002,0.1,3.7,10,match,36.05,296,361,425,0,0,9,9,9,0,0,,,,,1,0,1,0,0,24,24,49,,,,,num_3,0.9945532999699935,num_3,0.2,0.8,0.10000000000000002,1.4,3.60429,50.4601,return,3.5914602000266314,,,,,,,15,19,female,up_down_width,2023_Oct_17_1551,exp1,2021.2.3,59.916332830493715,
,,,,,,,,,,,,,,,,3,9,10,11,0,0,1,0.75,0.25,2.25,10,match,36.05,324,361,397,0,0,9,9,9,0,0,,,,,1,0,1,0,0,25,25,39,,,,,num_3,0.9355923000257462,num_3,0.15,1,0.09999999999999999,1.4,3.60429,50.4601,return,2.7324293999699876,,,,,,,15,19,female,up_down_width,2023_Oct_17_1551,exp1,2021.2.3,59.916332830493715,
,,,,,,,,,,,,,,,,3,9,10,11,0,0,0.9999999999999999,0.5999999999999999,0.4,2.4,10,match,36.05,324,361,397,0,0,9,9,9,0,0,,,,,1,0,1,0,0,26,26,41,,,,,num_3,0.9549604000058025,num_3,0.3,1.1,0.3,1.75,10.81288,63.07512,return,3.793274299998302,,,,,,,15,19,female,up_down_width,2023_Oct_17_1551,exp1,2021.2.3,59.916332830493715,
,,,,,,,,,,,,,,,,4,9.5,9.833333333333334,10.166666666666666,10.5,0,0.33333333333333337,0.23333333333333336,0.1,1.1,10,match,36.05,342,354,367,379,0,9,9,9,9,0,,,,,1,0,1,0,0,27,27,1,,,,,num_3,0.9783539000200108,num_3,0.1,1,0.15000000000000002,0.45,5.40644,16.21932,return,4.330931400007103,,,,,,,15,19,female,up_down_width,2023_Oct_17_1551,exp1,2021.2.3,59.916332830493715,
,,,,,,,,,,,,,,,,5,9,9.5,10,10.5,11,0.5,0.25,0.25,2.25,10,initial,36.05,324,342,361,379,397,9,9,9,9,9,,,,,1,0,1,0,0,28,28,38,,,,,num_4,0.9697721000411548,num_4,0.45,0.5,0.20000000000000007,0.6,7.20859,21.62576,return,4.634727200027555,,,,,,,15,19,female,up_down_width,2023_Oct_17_1551,exp1,2021.2.3,59.916332830493715,
,,,,,,,,,,,,,,,,4,9.3,9.766666666666667,10.233333333333333,10.7,0,0.4666666666666667,0.06666666666666665,0.4,1.8,10,match,36.05,335,352,369,386,0,9,9,9,9,0,,,,,1,0,1,0,0,29,29,11,,,,,num_4,1.1129036999773234,num_4,0.35,0.9,0.25,0.5,9.01073,18.02146,return,4.794380600040313,,,,,,,15,19,female,up_down_width,2023_Oct_17_1551,exp1,2021.2.3,59.916332830493715,
,,,,,,,,,,,,,,,,3,9.1,10,10.9,0,0,0.9,0.5,0.4,2.2,10,initial,36.05,328,361,393,0,0,9,9,9,0,0,,,,,1,0,1,0,0,30,30,16,,,,,num_3,1.0742925999802537,num_3,0.4,1,0.45,0.75,16.21932,27.0322,return,3.109123699949123,,,,,,,15,19,female,up_down_width,2023_Oct_17_1551,exp1,2021.2.3,59.916332830493715,
,,,,,,,,,,,,,,,,3,9.5,10,10.5,0,0,0.5,0.4,0.1,1.1,10,initial,36.05,342,361,379,0,0,9,9,9,0,0,,,,,1,0,1,0,0,31,31,0,,,,,num_3,0.9404007000266574,num_3,0.35,0.8,0.15000000000000002,0.55,5.40644,19.82361,return,4.773849799996242,,,,,,,15,19,female,up_down_width,2023_Oct_17_1551,exp1,2021.2.3,59.916332830493715,
,,,,,,,,,,,,,,,,4,9.425,9.808333333333334,10.191666666666666,10.575,0,0.3833333333333333,0.1333333333333333,0.25,1.4,10,match,36.05,340,354,367,381,0,9,9,9,9,0,,,,,1,0,1,0,0,32,32,5,,,,,num_3,0.931062399991788,num_3,0.2,1.3,0.25,0.5,9.01073,18.02146,return,5.982380100002047,,,,,,,15,19,female,up_down_width,2023_Oct_17_1551,exp1,2021.2.3,59.916332830493715,
,,,,,,,,,,,,,,,,3,8.2,10,11.8,0,0,1.8,1.55,0.25,3.85,10,match,36.05,296,361,425,0,0,9,9,9,0,0,,,,,1,0,1,0,0,33,33,51,,,,,num_3,0.782160600007046,num_3,0.1,0.4,0.2,2.35,7.20859,84.70088,return,9.134739700006321,,,,,,,15,19,female,up_down_width,2023_Oct_17_1551,exp1,2021.2.3,59.916332830493715,
,,,,,,,,,,,,,,,,5,8.6,9.3,10,10.7,11.4,0.7,0.29999999999999993,0.4,3.1999999999999997,10,initial,36.05,310,335,361,386,411,9,9,9,9,9,,,,,1,0,1,0,0,34,34,46,,,,,num_4,1.0897313000168651,num_4,0.1,1.2,0.35,1.0,12.61502,36.04293,return,3.7332432999974117,,,,,,,15,19,female,up_down_width,2023_Oct_17_1551,exp1,2021.2.3,59.916332830493715,
,,,,,,,,,,,,,,,,5,9.25,9.625,10,10.375,10.75,0.375,0.275,0.1,1.6,10,match,36.05,333,347,361,374,388,9,9,9,9,9,,,,,1,0,1,0,0,35,35,19,,,,,num_4,1.7204809000249952,num_4,0.3,1.1,0.15000000000000002,0.6,5.40644,21.62576,return,8.517466499994043,,,,,,,15,19,female,up_down_width,2023_Oct_17_1551,exp1,2021.2.3,59.916332830493715,
,,,,,,,,,,,,,,,,5,8.95,9.475,10,10.525,11.05,0.525,0.275,0.25,2.35,10,match,36.05,323,342,361,379,398,9,9,9,9,9,,,,,1,0,1,0,0,36,36,27,,,,,num_4,1.6624807000043802,num_4,0.15,1.3,0.2,0.4,7.20859,14.41717,return,3.002006300026551,,,,,,,15,19,female,up_down_width,2023_Oct_17_1551,exp1,2021.2.3,59.916332830493715,
,,,,,,,,,,,,,,,,3,9.1,10,10.9,0,0,0.9,0.65,0.25,2.05,10,initial,36.05,328,361,393,0,0,9,9,9,0,0,,,,,1,0,1,0,0,37,37,14,,,,,num_3,0.933927699981723,num_3,0.15,0.8,0.25,0.65,9.01073,23.4279,return,2.6718942999723367,,,,,,,15,19,female,up_down_width,2023_Oct_17_1551,exp1,2021.2.3,59.916332830493715,
,,,,,,,,,,,,,,,,3,9.5,10,10.5,0,0,0.5,0.25,0.25,1.25,10,initial,36.05,342,361,379,0,0,9,9,9,0,0,,,,,1,0,1,0,0,38,38,2,,,,,num_3,0.8331158999935724,num_3,0.1,0.8,0.3,0.65,10.81288,23.4279,return,3.0837833999539725,,,,,,,15,19,female,up_down_width,2023_Oct_17_1551,exp1,2021.2.3,59.916332830493715,
,,,,,,,,,,,,,,,,4,8.95,9.65,10.35,11.05,0,0.7,0.29999999999999993,0.4,2.5,10,initial,36.05,323,348,373,398,0,9,9,9,9,0,,,,,1,0,1,0,0,39,39,28,,,,,num_4,0.8874789999681525,num_4,0.2,1.0,0.5499999999999999,0.9,19.82361,32.43864,return,2.7763280000071973,,,,,,,15,19,female,up_down_width,2023_Oct_17_1551,exp1,2021.2.3,59.916332830493715,
,,,,,,,,,,,,,,,,5,8.2,9.1,10,10.9,11.8,0.9,0.5,0.4,4,10,initial,36.05,296,328,361,393,425,9,9,9,9,9,,,,,1,0,1,0,0,40,40,52,,,,,num_5,1.3924739999929443,num_5,0.2,0.3,0.35,0.7,12.61502,25.23005,return,5.741879599983804,,,,,,,15,19,female,up_down_width,2023_Oct_17_1551,exp1,2021.2.3,59.916332830493715,
,,,,,,,,,,,,,,,,5,8.2,9.1,10,10.9,11.8,0.9,0.65,0.25,3.85,10,initial,36.05,296,328,361,393,425,9,9,9,9,9,,,,,1,0,1,0,0,41,41,50,,,,,num_4,1.4112951999995857,num_4,0.1,0.6,0.39999999999999997,0.9,14.41717,32.43864,return,3.17828189994907,,,,,,,15,19,female,up_down_width,2023_Oct_17_1551,exp1,2021.2.3,59.916332830493715,
,,,,,,,,,,,,,,,,5,9,9.5,10,10.5,11,0.5,0.09999999999999998,0.4,2.4,10,initial,36.05,324,342,361,379,397,9,9,9,9,9,,,,,1,0,1,0,0,42,42,40,,,,,num_5,1.0633800000068732,num_5,0.1,0.6,0.44999999999999996,0.6,16.21932,21.62576,return,2.618796900031157,,,,,,,15,19,female,up_down_width,2023_Oct_17_1551,exp1,2021.2.3,59.916332830493715,
,,,,,,,,,,,,,,,,5,8.2,9.1,10,10.9,11.8,0.9,0.8,0.1,3.7,10,initial,36.05,296,328,361,393,425,9,9,9,9,9,,,,,1,0,1,0,0,43,43,48,,,,,num_5,1.0778269000002183,num_5,0.3,1.3,0.05000000000000002,1.0,1.80215,36.04293,return,9.910316699999385,,,,,,,15,19,female,up_down_width,2023_Oct_17_1551,exp1,2021.2.3,59.916332830493715,
,,,,,,,,,,,,,,,,3,9.1,10,10.9,0,0,0.9,0.8,0.1,1.9000000000000001,10,initial,36.05,328,361,393,0,0,9,9,9,0,0,,,,,1,0,1,0,0,44,44,12,,,,,num_3,1.5676013000193052,num_3,0.3,1.3,0.10000000000000002,1.45,3.60429,52.26225,return,3.3763809999800287,,,,,,,15,19,female,up_down_width,2023_Oct_17_1551,exp1,2021.2.3,59.916332830493715,
,,,,,,,,,,,,,,,,4,9.1,9.7,10.3,10.9,0,0.5999999999999999,0.3499999999999999,0.25,2.05,10,match,36.05,328,350,371,393,0,9,9,9,9,0,,,,,1,0,1,0,0,45,45,15,,,,,num_4,0.9875886999652721,num_4,0.15,0.3,0.09999999999999999,0.9,3.60429,32.43864,return,2.982815600000322,,,,,,,15,19,female,up_down_width,2023_Oct_17_1551,exp1,2021.2.3,59.916332830493715,
,,,,,,,,,,,,,,,,3,9.3,10,10.7,0,0,0.7,0.29999999999999993,0.4,1.8,10,initial,36.05,335,361,386,0,0,9,9,9,0,0,,,,,1,0,1,0,0,46,46,10,,,,,num_3,0.9903017999604344,num_3,0.4,1,0.30000000000000004,0.9,10.81288,32.43864,return,3.4294135000091046,,,,,,,15,19,female,up_down_width,2023_Oct_17_1551,exp1,2021.2.3,59.916332830493715,
,,,,,,,,,,,,,,,,3,8.6,10,11.4,0,0,1.4,1.2999999999999998,0.1,2.9,10,match,36.05,310,361,411,0,0,9,9,9,0,0,,,,,1,0,1,0,0,47,47,43,,,,,num_3,0.9268661999958567,num_3,0.3,1.2,0.2,1.55,7.20859,55.86654,return,3.4308629000443034,,,,,,,15,19,female,up_down_width,2023_Oct_17_1551,exp1,2021.2.3,59.916332830493715,
,,,,,,,,,,,,,,,,5,8.6,9.3,10,10.7,11.4,0.7,0.44999999999999996,0.25,3.05,10,initial,36.05,310,335,361,386,411,9,9,9,9,9,,,,,1,0,1,0,0,48,48,44,,,,,num_4,1.1163463999982923,num_4,0.4,0.8,0.15000000000000008,0.9,5.40644,32.43864,return,3.9028718000045046,,,,,,,15,19,female,up_down_width,2023_Oct_17_1551,exp1,2021.2.3,59.916332830493715,
,,,,,,,,,,,,,,,,4,9.3,9.766666666666667,10.233333333333333,10.7,0,0.4666666666666667,0.3666666666666667,0.1,1.5,10,match,36.05,335,352,369,386,0,9,9,9,9,0,,,,,1,0,1,0,0,49,49,7,,,,,num_4,1.1576447999686934,num_4,0.4,1.0,0.05000000000000007,1.1,1.80215,39.64722,return,4.102548700000625,,,,,,,15,19,female,up_down_width,2023_Oct_17_1551,exp1,2021.2.3,59.916332830493715,
,,,,,,,,,,,,,,,,3,8.525,10,11.475,0,0,1.475,1.225,0.25,3.2,10,match,36.05,307,361,414,0,0,9,9,9,0,0,,,,,1,0,1,0,0,50,50,47,,,,,num_3,0.9491847999743186,num_3,0.45,1.3,0.20000000000000007,1.3,7.20859,46.85581,return,3.29489260003902,,,,,,,15,19,female,up_down_width,2023_Oct_17_1551,exp1,2021.2.3,59.916332830493715,
,,,,,,,,,,,,,,,,3,9.3,10,10.7,0,0,0.7,0.6,0.1,1.5,10,initial,36.05,335,361,386,0,0,9,9,9,0,0,,,,,1,0,1,0,0,51,51,6,,,,,num_3,0.8189122999901883,num_3,0.4,1.1,0.10000000000000007,1.1,3.60429,39.64722,return,2.477906799991615,,,,,,,15,19,female,up_down_width,2023_Oct_17_1551,exp1,2021.2.3,59.916332830493715,
,,,,,,,,,,,,,,,,3,8.2,10,11.8,0,0,1.7999999999999998,1.4,0.4,4,10,match,36.05,296,361,425,0,0,9,9,9,0,0,,,,,1,0,1,0,0,52,52,53,,,,,num_3,1.0144025000045076,num_3,0.15,0.4,0.35,2.15,12.61502,77.4923,return,11.83760779997101,,,,,,,15,19,female,up_down_width,2023_Oct_17_1551,exp1,2021.2.3,59.916332830493715,
,,,,,,,,,,,,,,,,4,8.65,9.55,10.45,11.35,0,0.9,0.8,0.1,2.8000000000000003,10,initial,36.05,312,344,377,409,0,9,9,9,9,0,,,,,1,0,1,0,0,53,53,30,,,,,num_3,1.0925839999690652,num_3,0.2,0.5,0.2,1.1,7.20859,39.64722,return,5.528228700044565,,,,,,,15,19,female,up_down_width,2023_Oct_17_1551,exp1,2021.2.3,59.916332830493715,
,,,,,,,,,,,,,,,,,,,,,,,,,,,,,,,,,,,,,,,,,,,1,0,1,0,,,,,,,,,,,,,,,,,,,,,,1070.4589229000267,None,1070.4589229000267,None,15,19,female,up_down_width,2023_Oct_17_1551,exp1,2021.2.3,59.916332830493715,
,,,,,,,,,,,,,,,,3,9.1,10,10.9,0,0,0.9,0.8,0.1,1.9000000000000001,10,initial,36.05,328,361,393,0,0,9,9,9,0,0,,,,,2,0,2,0,0,0,0,12,,,,,num_3,1.7334355000057258,num_3,0.3,0.4,0.15000000000000002,1.1,5.40644,39.64722,return,5.055687399988528,,,,,,,15,19,female,up_down_width,2023_Oct_17_1551,exp1,2021.2.3,59.916332830493715,
,,,,,,,,,,,,,,,,3,9.1,10,10.9,0,0,0.9,0.65,0.25,2.05,10,initial,36.05,328,361,393,0,0,9,9,9,0,0,,,,,2,0,2,0,0,1,1,14,,,,,num_3,0.8115956999827176,num_3,0.4,1.3,0.25000000000000006,1.15,9.01073,41.44937,return,2.9537332000327297,,,,,,,15,19,female,up_down_width,2023_Oct_17_1551,exp1,2021.2.3,59.916332830493715,
,,,,,,,,,,,,,,,,3,9,10,11,0,0,1,0.9,0.1,2.1,10,match,36.05,324,361,397,0,0,9,9,9,0,0,,,,,2,0,2,0,0,2,2,37,,,,,num_3,0.821254400012549,num_3,0.35,1,0.10000000000000002,0.95,3.60429,34.24078,return,2.33621320000384,,,,,,,15,19,female,up_down_width,2023_Oct_17_1551,exp1,2021.2.3,59.916332830493715,
,,,,,,,,,,,,,,,,4,8.65,9.55,10.45,11.35,0,0.9,0.8,0.1,2.8000000000000003,10,initial,36.05,312,344,377,409,0,9,9,9,9,0,,,,,2,0,2,0,0,3,3,30,,,,,num_4,1.0805050999624655,num_4,0.45,1.3,0.05000000000000007,1.4,1.80215,50.4601,return,3.9640684999758378,,,,,,,15,19,female,up_down_width,2023_Oct_17_1551,exp1,2021.2.3,59.916332830493715,
,,,,,,,,,,,,,,,,5,8.6,9.3,10,10.7,11.4,0.7,0.6,0.1,2.9,10,initial,36.05,310,335,361,386,411,9,9,9,9,9,,,,,2,0,2,0,0,4,4,42,,,,,num_4,0.9223132999613881,num_4,0.15,1.1,0.04999999999999999,1.2,1.80215,43.25151,return,2.383293799997773,,,,,,,15,19,female,up_down_width,2023_Oct_17_1551,exp1,2021.2.3,59.916332830493715,
,,,,,,,,,,,,,,,,5,8.2,9.1,10,10.9,11.8,0.9,0.65,0.25,3.85,10,initial,36.05,296,328,361,393,425,9,9,9,9,9,,,,,2,0,2,0,0,5,5,50,,,,,num_5,1.0738317999639548,num_5,0.4,1.0,0.10000000000000007,0.95,3.60429,34.24078,return,2.7415429000393488,,,,,,,15,19,female,up_down_width,2023_Oct_17_1551,exp1,2021.2.3,59.916332830493715,
,,,,,,,,,,,,,,,,3,8.2,10,11.8,0,0,1.8000000000000003,1.7000000000000002,0.1,3.7,10,match,36.05,296,361,425,0,0,9,9,9,0,0,,,,,2,0,2,0,0,6,6,49,,,,,num_3,1.5784765999997035,num_3,0.4,1.2,0.15000000000000008,1.1,5.40644,39.64722,return,3.450799799989909,,,,,,,15,19,female,up_down_width,2023_Oct_17_1551,exp1,2021.2.3,59.916332830493715,
,,,,,,,,,,,,,,,,4,8.95,9.65,10.35,11.05,0,0.7,0.6,0.1,2.1999999999999997,10,initial,36.05,323,348,373,398,0,9,9,9,9,0,,,,,2,0,2,0,0,7,7,24,,,,,num_3,1.7990528999944218,num_3,0.35,0.5,0.15000000000000002,0.85,5.40644,30.63649,return,4.54344520001905,,,,,,,15,19,female,up_down_width,2023_Oct_17_1551,exp1,2021.2.3,59.916332830493715,
,,,,,,,,,,,,,,,,5,8.95,9.475,10,10.525,11.05,0.525,0.125,0.4,2.5,10,match,36.05,323,342,361,379,398,9,9,9,9,9,,,,,2,0,2,0,0,8,8,29,,,,,num_4,1.2792099999496713,num_4,0.2,0.7,0.3,0.5,10.81288,18.02146,return,2.3443377999938093,,,,,,,15,19,female,up_down_width,2023_Oct_17_1551,exp1,2021.2.3,59.916332830493715,
,,,,,,,,,,,,,,,,5,9,9.5,10,10.5,11,0.5,0.25,0.25,2.25,10,initial,36.05,324,342,361,379,397,9,9,9,9,9,,,,,2,0,2,0,0,9,9,38,,,,,num_5,0.9545741000329144,num_5,0.35,0.7,0.2,0.55,7.20859,19.82361,return,4.146851399971638,,,,,,,15,19,female,up_down_width,2023_Oct_17_1551,exp1,2021.2.3,59.916332830493715,
,,,,,,,,,,,,,,,,3,8.6,10,11.4,0,0,1.4,1.15,0.25,3.05,10,match,36.05,310,361,411,0,0,9,9,9,0,0,,,,,2,0,2,0,0,10,10,45,,,,,num_3,1.3917007999843918,num_3,0.15,0.6,0.3,0.75,10.81288,27.0322,return,3.991021500027273,,,,,,,15,19,female,up_down_width,2023_Oct_17_1551,exp1,2021.2.3,59.916332830493715,
,,,,,,,,,,,,,,,,4,9.25,9.75,10.25,10.75,0,0.5,0.09999999999999998,0.4,1.9,10,initial,36.05,333,351,370,388,0,9,9,9,9,0,,,,,2,0,2,0,0,11,11,22,,,,,num_3,0.921696699981112,num_3,0.25,0.8,0.35,0.75,12.61502,27.0322,return,4.53404810000211,,,,,,,15,19,female,up_down_width,2023_Oct_17_1551,exp1,2021.2.3,59.916332830493715,
,,,,,,,,,,,,,,,,4,9.1,9.7,10.3,10.9,0,0.6,0.5,0.1,1.9,10,match,36.05,328,350,371,393,0,9,9,9,9,0,,,,,2,0,2,0,0,12,12,13,,,,,num_3,0.9232749000075273,num_3,0.35,1.1,0.05000000000000002,1.3,1.80215,46.85581,return,3.2043211000273004,,,,,,,15,19,female,up_down_width,2023_Oct_17_1551,exp1,2021.2.3,59.916332830493715,
,,,,,,,,,,,,,,,,3,9.5,10,10.5,0,0,0.5,0.09999999999999998,0.4,1.4000000000000001,10,initial,36.05,342,361,379,0,0,9,9,9,0,0,,,,,2,0,2,0,0,13,13,4,,,,,num_3,0.8907969999709167,num_3,0.4,0.9,0.4,0.65,14.41717,23.4279,return,3.9416501000523567,,,,,,,15,19,female,up_down_width,2023_Oct_17_1551,exp1,2021.2.3,59.916332830493715,
,,,,,,,,,,,,,,,,5,8.2,9.1,10,10.9,11.8,0.9,0.8,0.1,3.7,10,initial,36.05,296,328,361,393,425,9,9,9,9,9,,,,,2,0,2,0,0,14,14,48,,,,,num_4,0.8973133999970742,num_4,0.45,1.2,0.15000000000000008,1.4,5.40644,50.4601,return,3.708398299990222,,,,,,,15,19,female,up_down_width,2023_Oct_17_1551,exp1,2021.2.3,59.916332830493715,
,,,,,,,,,,,,,,,,4,8.65,9.55,10.45,11.35,0,0.9,0.65,0.25,2.95,10,initial,36.05,312,344,377,409,0,9,9,9,9,0,,,,,2,0,2,0,0,15,15,32,,,,,num_4,1.016295599984005,num_4,0.35,0.7,0.2,1.1,7.20859,39.64722,return,3.3939024999854155,,,,,,,15,19,female,up_down_width,2023_Oct_17_1551,exp1,2021.2.3,59.916332830493715,
,,,,,,,,,,,,,,,,4,8.95,9.65,10.35,11.05,0,0.7,0.44999999999999996,0.25,2.3499999999999996,10,initial,36.05,323,348,373,398,0,9,9,9,9,0,,,,,2,0,2,0,0,16,16,26,,,,,num_4,0.8618090999661945,num_4,0.25,1.2,0.25,0.9,9.01073,32.43864,return,3.7061478000250645,,,,,,,15,19,female,up_down_width,2023_Oct_17_1551,exp1,2021.2.3,59.916332830493715,
,,,,,,,,,,,,,,,,3,8.2,10,11.8,0,0,1.8,1.55,0.25,3.85,10,match,36.05,296,361,425,0,0,9,9,9,0,0,,,,,2,0,2,0,0,17,17,51,,,,,num_3,0.8632377999601886,num_3,0.2,1,0.25,1.95,9.01073,70.28371,return,7.004192799970042,,,,,,,15,19,female,up_down_width,2023_Oct_17_1551,exp1,2021.2.3,59.916332830493715,
,,,,,,,,,,,,,,,,4,9.25,9.75,10.25,10.75,0,0.5,0.4,0.1,1.6,10,initial,36.05,333,351,370,388,0,9,9,9,9,0,,,,,2,0,2,0,0,18,18,18,,,,,num_3,0.9538653999916278,num_3,0.35,0.9,0.2,1.2,7.20859,43.25151,return,6.148081799969077,,,,,,,15,19,female,up_down_width,2023_Oct_17_1551,exp1,2021.2.3,59.916332830493715,
,,,,,,,,,,,,,,,,4,9.5,9.833333333333334,10.166666666666666,10.5,0,0.33333333333333337,0.23333333333333336,0.1,1.1,10,match,36.05,342,354,367,379,0,9,9,9,9,0,,,,,2,0,2,0,0,19,19,1,,,,,num_3,1.09119720000308,num_3,0.2,1.2,0.10000000000000002,0.35,3.60429,12.61502,return,4.774923200020567,,,,,,,15,19,female,up_down_width,2023_Oct_17_1551,exp1,2021.2.3,59.916332830493715,
,,,,,,,,,,,,,,,,5,9,9.5,10,10.5,11,0.5,0.4,0.1,2.1,10,initial,36.05,324,342,361,379,397,9,9,9,9,9,,,,,2,0,2,0,0,20,20,36,,,,,num_4,0.9799701999872923,num_4,0.1,0.4,0.1,0.8,3.60429,28.83434,return,4.1730668999953195,,,,,,,15,19,female,up_down_width,2023_Oct_17_1551,exp1,2021.2.3,59.916332830493715,
,,,,,,,,,,,,,,,,3,9.5,10,10.5,0,0,0.5,0.25,0.25,1.25,10,initial,36.05,342,361,379,0,0,9,9,9,0,0,,,,,2,0,2,0,0,21,21,2,,,,,num_3,1.0209721000283025,num_3,0.1,1.3,0.3,0.55,10.81288,19.82361,return,6.146691900037695,,,,,,,15,19,female,up_down_width,2023_Oct_17_1551,exp1,2021.2.3,59.916332830493715,
,,,,,,,,,,,,,,,,3,8.6,10,11.4,0,0,1.4,1.2999999999999998,0.1,2.9,10,match,36.05,310,361,411,0,0,9,9,9,0,0,,,,,2,0,2,0,0,22,22,43,,,,,num_3,0.958533700031694,num_3,0.45,0.8,0.05000000000000007,1.25,1.80215,45.05366,return,5.4768664999864995,,,,,,,15,19,female,up_down_width,2023_Oct_17_1551,exp1,2021.2.3,59.916332830493715,
,,,,,,,,,,,,,,,,4,8.95,9.65,10.35,11.05,0,0.7,0.29999999999999993,0.4,2.5,10,initial,36.05,323,348,373,398,0,9,9,9,9,0,,,,,2,0,2,0,0,23,23,28,,,,,num_4,0.8526091999956407,num_4,0.45,1.1,0.20000000000000007,0.6,7.20859,21.62576,return,2.804150399984792,,,,,,,15,19,female,up_down_width,2023_Oct_17_1551,exp1,2021.2.3,59.916332830493715,
,,,,,,,,,,,,,,,,3,8.525,10,11.475,0,0,1.475,1.225,0.25,3.2,10,match,36.05,307,361,414,0,0,9,9,9,0,0,,,,,2,0,2,0,0,24,24,47,,,,,num_3,2.1685193000012077,num_3,0.2,0.4,0.2,1.0,7.20859,36.04293,return,5.007318700023461,,,,,,,15,19,female,up_down_width,2023_Oct_17_1551,exp1,2021.2.3,59.916332830493715,
,,,,,,,,,,,,,,,,4,9.3,9.766666666666667,10.233333333333333,10.7,0,0.4666666666666667,0.21666666666666665,0.25,1.65,10,match,36.05,335,352,369,386,0,9,9,9,9,0,,,,,2,0,2,0,0,25,25,9,,,,,num_4,0.9903112000320107,num_4,0.1,0.5,0.2,0.9,7.20859,32.43864,return,4.614539499976672,,,,,,,15,19,female,up_down_width,2023_Oct_17_1551,exp1,2021.2.3,59.916332830493715,
,,,,,,,,,,,,,,,,4,9.25,9.75,10.25,10.75,0,0.5,0.25,0.25,1.75,10,initial,36.05,333,351,370,388,0,9,9,9,9,0,,,,,2,0,2,0,0,26,26,20,,,,,num_4,1.8529867000179365,num_4,0.15,0.7,0.2,0.5,7.20859,18.02146,return,6.4019584999768995,,,,,,,15,19,female,up_down_width,2023_Oct_17_1551,exp1,2021.2.3,59.916332830493715,
,,,,,,,,,,,,,,,,4,9.1,9.7,10.3,10.9,0,0.6000000000000001,0.20000000000000004,0.4,2.2,10,match,36.05,328,350,371,393,0,9,9,9,9,0,,,,,2,0,2,0,0,27,27,17,,,,,num_4,1.0707046000170521,num_4,0.15,1.3,0.2,0.3,7.20859,10.81288,return,7.878126600000542,,,,,,,15,19,female,up_down_width,2023_Oct_17_1551,exp1,2021.2.3,59.916332830493715,
,,,,,,,,,,,,,,,,5,8.65,9.325,10,10.675,11.35,0.675,0.42500000000000004,0.25,2.95,10,match,36.05,312,336,361,385,409,9,9,9,9,9,,,,,2,0,2,0,0,28,28,33,,,,,num_4,0.9153564999578521,num_4,0.3,1.1,0.2,0.6,7.20859,21.62576,return,8.173010299971793,,,,,,,15,19,female,up_down_width,2023_Oct_17_1551,exp1,2021.2.3,59.916332830493715,
,,,,,,,,,,,,,,,,5,8.6,9.3,10,10.7,11.4,0.7,0.29999999999999993,0.4,3.1999999999999997,10,initial,36.05,310,335,361,386,411,9,9,9,9,9,,,,,2,0,2,0,0,29,29,46,,,,,num_5,1.0803482999908738,num_5,0.3,0.6,0.25,0.65,9.01073,23.4279,return,3.2717940000002272,,,,,,,15,19,female,up_down_width,2023_Oct_17_1551,exp1,2021.2.3,59.916332830493715,
,,,,,,,,,,,,,,,,5,9,9.5,10,10.5,11,0.5,0.09999999999999998,0.4,2.4,10,initial,36.05,324,342,361,379,397,9,9,9,9,9,,,,,2,0,2,0,0,30,30,40,,,,,num_4,1.0587072999915108,num_4,0.3,1.0,0.2,0.4,7.20859,14.41717,return,6.311284700001124,,,,,,,15,19,female,up_down_width,2023_Oct_17_1551,exp1,2021.2.3,59.916332830493715,
,,,,,,,,,,,,,,,,3,9,10,11,0,0,0.9999999999999999,0.5999999999999999,0.4,2.4,10,match,36.05,324,361,397,0,0,9,9,9,0,0,,,,,2,0,2,0,0,31,31,41,,,,,num_3,1.5208831999916583,num_3,0.2,1.2,0.2,0.55,7.20859,19.82361,return,6.658906399970874,,,,,,,15,19,female,up_down_width,2023_Oct_17_1551,exp1,2021.2.3,59.916332830493715,
,,,,,,,,,,,,,,,,3,9.1,10,10.9,0,0,0.9,0.5,0.4,2.2,10,initial,36.05,328,361,393,0,0,9,9,9,0,0,,,,,2,0,2,0,0,32,32,16,,,,,num_3,0.9465075000189245,num_3,0.1,1,0.25,0.6,9.01073,21.62576,return,3.4834558999864385,,,,,,,15,19,female,up_down_width,2023_Oct_17_1551,exp1,2021.2.3,59.916332830493715,
,,,,,,,,,,,,,,,,5,8.65,9.325,10,10.675,11.35,0.6749999999999999,0.575,0.1,2.8,10,match,36.05,312,336,361,385,409,9,9,9,9,9,,,,,2,0,2,0,0,33,33,31,,,,,num_4,0.8120887999539264,num_4,0.15,1.3,0.04999999999999999,1.0,1.80215,36.04293,return,1.9193793999729678,,,,,,,15,19,female,up_down_width,2023_Oct_17_1551,exp1,2021.2.3,59.916332830493715,
,,,,,,,,,,,,,,,,5,8.2,9.1,10,10.9,11.8,0.9,0.5,0.4,4,10,initial,36.05,296,328,361,393,425,9,9,9,9,9,,,,,2,0,2,0,0,34,34,52,,,,,num_4,0.8165115999872796,num_4,0.45,0.7,0.30000000000000004,1.3,10.81288,46.85581,return,3.898469700012356,,,,,,,15,19,female,up_down_width,2023_Oct_17_1551,exp1,2021.2.3,59.916332830493715,
,,,,,,,,,,,,,,,,4,9.425,9.808333333333334,10.191666666666666,10.575,0,0.3833333333333333,0.1333333333333333,0.25,1.4,10,match,36.05,340,354,367,381,0,9,9,9,9,0,,,,,2,0,2,0,0,35,35,5,,,,,num_3,1.2543945999932475,num_3,0.25,0.8,0.15000000000000002,0.5,5.40644,18.02146,return,3.2354861999629065,,,,,,,15,19,female,up_down_width,2023_Oct_17_1551,exp1,2021.2.3,59.916332830493715,
,,,,,,,,,,,,,,,,5,8.95,9.475,10,10.525,11.05,0.525,0.42500000000000004,0.1,2.2,10,match,36.05,323,342,361,379,398,9,9,9,9,9,,,,,2,0,2,0,0,36,36,25,,,,,num_4,0.8741110999835655,num_4,0.15,0.6,0.09999999999999999,0.9,3.60429,32.43864,return,5.0273337999824435,,,,,,,15,19,female,up_down_width,2023_Oct_17_1551,exp1,2021.2.3,59.916332830493715,
,,,,,,,,,,,,,,,,3,9.3,10,10.7,0,0,0.7,0.6,0.1,1.5,10,initial,36.05,335,361,386,0,0,9,9,9,0,0,,,,,2,0,2,0,0,37,37,6,,,,,num_2,0.880437100015115,num_2,0.45,1.6,0.20000000000000007,0.8,7.20859,28.83434,return,3.8053382000070997,,,,,,,15,19,female,up_down_width,2023_Oct_17_1551,exp1,2021.2.3,59.916332830493715,
,,,,,,,,,,,,,,,,5,8.65,9.325,10,10.675,11.35,0.675,0.275,0.4,3.1,10,match,36.05,312,336,361,385,409,9,9,9,9,9,,,,,2,0,2,0,0,38,38,35,,,,,num_4,0.9391224000137299,num_4,0.35,1.3,0.25,0.6,9.01073,21.62576,return,2.7584232999943197,,,,,,,15,19,female,up_down_width,2023_Oct_17_1551,exp1,2021.2.3,59.916332830493715,
,,,,,,,,,,,,,,,,5,8.6,9.3,10,10.7,11.4,0.7,0.44999999999999996,0.25,3.05,10,initial,36.05,310,335,361,386,411,9,9,9,9,9,,,,,2,0,2,0,0,39,39,44,,,,,num_4,1.2565131000010297,num_4,0.35,0.7,0.25,0.6,9.01073,21.62576,return,1.8748723999597132,,,,,,,15,19,female,up_down_width,2023_Oct_17_1551,exp1,2021.2.3,59.916332830493715,
,,,,,,,,,,,,,,,,5,9.25,9.625,10,10.375,10.75,0.375,0.275,0.1,1.6,10,match,36.05,333,347,361,374,388,9,9,9,9,9,,,,,2,0,2,0,0,40,40,19,,,,,num_5,1.0752821000060067,num_5,0.25,0.7,0.10000000000000002,0.45,3.60429,16.21932,return,4.135119399987161,,,,,,,15,19,female,up_down_width,2023_Oct_17_1551,exp1,2021.2.3,59.916332830493715,
,,,,,,,,,,,,,,,,5,9.25,9.625,10,10.375,10.75,0.375,0.125,0.25,1.75,10,match,36.05,333,347,361,374,388,9,9,9,9,9,,,,,2,0,2,0,0,41,41,21,,,,,num_4,1.2403478000196628,num_4,0.15,0.9,0.25,0.5,9.01073,18.02146,return,6.1661109999986365,,,,,,,15,19,female,up_down_width,2023_Oct_17_1551,exp1,2021.2.3,59.916332830493715,
,,,,,,,,,,,,,,,,5,8.95,9.475,10,10.525,11.05,0.525,0.275,0.25,2.35,10,match,36.05,323,342,361,379,398,9,9,9,9,9,,,,,2,0,2,0,0,42,42,27,,,,,num_5,1.1319091999903321,num_5,0.4,0.6,0.20000000000000007,0.5,7.20859,18.02146,return,3.725565300032031,,,,,,,15,19,female,up_down_width,2023_Oct_17_1551,exp1,2021.2.3,59.916332830493715,
,,,,,,,,,,,,,,,,3,9,10,11,0,0,1,0.75,0.25,2.25,10,match,36.05,324,361,397,0,0,9,9,9,0,0,,,,,2,0,2,0,0,43,43,39,,,,,num_3,1.1031214999966323,num_3,0.25,0.7,0.2,0.55,7.20859,19.82361,return,1.7942947000265121,,,,,,,15,19,female,up_down_width,2023_Oct_17_1551,exp1,2021.2.3,59.916332830493715,
,,,,,,,,,,,,,,,,3,9.5,10,10.5,0,0,0.5,0.4,0.1,1.1,10,initial,36.05,342,361,379,0,0,9,9,9,0,0,,,,,2,0,2,0,0,44,44,0,,,,,num_3,0.8985188000369817,num_3,0.4,0.6,0.20000000000000007,0.45,7.20859,16.21932,return,3.679071699967608,,,,,,,15,19,female,up_down_width,2023_Oct_17_1551,exp1,2021.2.3,59.916332830493715,
,,,,,,,,,,,,,,,,3,8.2,10,11.8,0,0,1.7999999999999998,1.4,0.4,4,10,match,36.05,296,361,425,0,0,9,9,9,0,0,,,,,2,0,2,0,0,45,45,53,,,,,num_3,0.8431934000109322,num_3,0.25,0.3,0.2,0.9,7.20859,32.43864,return,8.487183500023093,,,,,,,15,19,female,up_down_width,2023_Oct_17_1551,exp1,2021.2.3,59.916332830493715,
,,,,,,,,,,,,,,,,4,9.3,9.766666666666667,10.233333333333333,10.7,0,0.4666666666666667,0.3666666666666667,0.1,1.5,10,match,36.05,335,352,369,386,0,9,9,9,9,0,,,,,2,0,2,0,0,46,46,7,,,,,num_3,0.8969902999815531,num_3,0.1,0.3,0.15000000000000002,0.8,5.40644,28.83434,return,6.800382199988235,,,,,,,15,19,female,up_down_width,2023_Oct_17_1551,exp1,2021.2.3,59.916332830493715,
,,,,,,,,,,,,,,,,4,8.65,9.55,10.45,11.35,0,0.9,0.5,0.4,3.1,10,initial,36.05,312,344,377,409,0,9,9,9,9,0,,,,,2,0,2,0,0,47,47,34,,,,,num_4,1.0611526999855414,num_4,0.25,0.8,0.39999999999999997,1.1,14.41717,39.64722,return,3.625456399982795,,,,,,,15,19,female,up_down_width,2023_Oct_17_1551,exp1,2021.2.3,59.916332830493715,
,,,,,,,,,,,,,,,,4,9.3,9.766666666666667,10.233333333333333,10.7,0,0.4666666666666667,0.06666666666666665,0.4,1.8,10,match,36.05,335,352,369,386,0,9,9,9,9,0,,,,,2,0,2,0,0,48,48,11,,,,,num_4,1.6530023000086658,num_4,0.2,1.3,0.39999999999999997,0.5,14.41717,18.02146,return,8.927139699982945,,,,,,,15,19,female,up_down_width,2023_Oct_17_1551,exp1,2021.2.3,59.916332830493715,
,,,,,,,,,,,,,,,,3,9.3,10,10.7,0,0,0.7,0.44999999999999996,0.25,1.65,10,initial,36.05,335,361,386,0,0,9,9,9,0,0,,,,,2,0,2,0,0,49,49,8,,,,,num_3,0.9968215000117198,num_3,0.35,0.8,0.25,0.55,9.01073,19.82361,return,2.716056299977936,,,,,,,15,19,female,up_down_width,2023_Oct_17_1551,exp1,2021.2.3,59.916332830493715,
,,,,,,,,,,,,,,,,4,9.5,9.833333333333334,10.166666666666666,10.5,0,0.3333333333333333,0.08333333333333333,0.25,1.25,10,match,36.05,342,354,367,379,0,9,9,9,9,0,,,,,2,0,2,0,0,50,50,3,,,,,num_3,1.815199099946767,num_3,0.45,0.8,0.35000000000000003,0.45,12.61502,16.21932,return,4.445386900042649,,,,,,,15,19,female,up_down_width,2023_Oct_17_1551,exp1,2021.2.3,59.916332830493715,
,,,,,,,,,,,,,,,,3,9.3,10,10.7,0,0,0.7,0.29999999999999993,0.4,1.8,10,initial,36.05,335,361,386,0,0,9,9,9,0,0,,,,,2,0,2,0,0,51,51,10,,,,,num_3,0.932399399986025,num_3,0.45,0.7,0.25000000000000006,0.5,9.01073,18.02146,return,5.566048200009391,,,,,,,15,19,female,up_down_width,2023_Oct_17_1551,exp1,2021.2.3,59.916332830493715,
,,,,,,,,,,,,,,,,5,9.175,9.5875,10,10.4125,10.825,0.4125,0.16249999999999998,0.25,1.9,10,match,36.05,331,346,361,375,390,9,9,9,9,9,,,,,2,0,2,0,0,52,52,23,,,,,num_5,1.6065874000196345,num_5,0.15,0.6,0.2,0.4,7.20859,14.41717,return,5.7156306999968365,,,,,,,15,19,female,up_down_width,2023_Oct_17_1551,exp1,2021.2.3,59.916332830493715,
,,,,,,,,,,,,,,,,4,9.1,9.7,10.3,10.9,0,0.5999999999999999,0.3499999999999999,0.25,2.05,10,match,36.05,328,350,371,393,0,9,9,9,9,0,,,,,2,0,2,0,0,53,53,15,,,,,num_4,1.0847587999887764,num_4,0.1,0.7,0.2,0.5,7.20859,18.02146,return,4.582155000010971,,,,,,,15,19,female,up_down_width,2023_Oct_17_1551,exp1,2021.2.3,59.916332830493715,
,,,,,,,,,,,,,,,,,,,,,,,,,,,,,,,,,,,,,,,,,,,2,0,2,0,,,,,,,,,,,,,,,,,,,,,,1506.8750555000152,None,1506.8750555000152,None,15,19,female,up_down_width,2023_Oct_17_1551,exp1,2021.2.3,59.916332830493715,
,,,,,,,,,,,,,,,,3,8.6,10,11.4,0,0,1.4,1.2999999999999998,0.1,2.9,10,match,36.05,310,361,411,0,0,9,9,9,0,0,,,,,3,0,3,0,0,0,0,43,,,,,num_3,1.1519581999746151,num_3,0.4,1.1,0.20000000000000007,1.35,7.20859,48.65795,return,4.081616799987387,,,,,,,15,19,female,up_down_width,2023_Oct_17_1551,exp1,2021.2.3,59.916332830493715,
,,,,,,,,,,,,,,,,5,9,9.5,10,10.5,11,0.5,0.09999999999999998,0.4,2.4,10,initial,36.05,324,342,361,379,397,9,9,9,9,9,,,,,3,0,3,0,0,1,1,40,,,,,num_4,1.0279396999976598,num_4,0.45,0.5,0.30000000000000004,0.7,10.81288,25.23005,return,4.681821700010914,,,,,,,15,19,female,up_down_width,2023_Oct_17_1551,exp1,2021.2.3,59.916332830493715,
,,,,,,,,,,,,,,,,5,8.2,9.1,10,10.9,11.8,0.9,0.8,0.1,3.7,10,initial,36.05,296,328,361,393,425,9,9,9,9,9,,,,,3,0,3,0,0,2,2,48,,,,,num_4,1.0070504999603145,num_4,0.3,0.8,0.10000000000000002,1.4,3.60429,50.4601,return,4.469825300038792,,,,,,,15,19,female,up_down_width,2023_Oct_17_1551,exp1,2021.2.3,59.916332830493715,
,,,,,,,,,,,,,,,,4,9.1,9.7,10.3,10.9,0,0.5999999999999999,0.3499999999999999,0.25,2.05,10,match,36.05,328,350,371,393,0,9,9,9,9,0,,,,,3,0,3,0,0,3,3,15,,,,,num_4,1.1321495000156574,num_4,0.3,1.2,0.2,0.6,7.20859,21.62576,return,3.11860849999357,,,,,,,15,19,female,up_down_width,2023_Oct_17_1551,exp1,2021.2.3,59.916332830493715,
,,,,,,,,,,,,,,,,4,9.1,9.7,10.3,10.9,0,0.6,0.5,0.1,1.9,10,match,36.05,328,350,371,393,0,9,9,9,9,0,,,,,3,0,3,0,0,4,4,13,,,,,num_4,1.2577717999811284,num_4,0.3,1.2,0.15000000000000002,0.7,5.40644,25.23005,return,2.9667108000139706,,,,,,,15,19,female,up_down_width,2023_Oct_17_1551,exp1,2021.2.3,59.916332830493715,
,,,,,,,,,,,,,,,,4,9.5,9.833333333333334,10.166666666666666,10.5,0,0.33333333333333337,0.23333333333333336,0.1,1.1,10,match,36.05,342,354,367,379,0,9,9,9,9,0,,,,,3,0,3,0,0,5,5,1,,,,,num_4,1.0163584999972954,num_4,0.2,0.9,0.10000000000000002,0.3,3.60429,10.81288,return,3.1009492999874055,,,,,,,15,19,female,up_down_width,2023_Oct_17_1551,exp1,2021.2.3,59.916332830493715,
,,,,,,,,,,,,,,,,5,9.25,9.625,10,10.375,10.75,0.375,0.275,0.1,1.6,10,match,36.05,333,347,361,374,388,9,9,9,9,9,,,,,3,0,3,0,0,6,6,19,,,,,num_4,1.183829199988395,num_4,0.15,1.3,0.09999999999999999,0.3,3.60429,10.81288,return,4.351558299968019,,,,,,,15,19,female,up_down_width,2023_Oct_17_1551,exp1,2021.2.3,59.916332830493715,
,,,,,,,,,,,,,,,,3,9.1,10,10.9,0,0,0.9,0.5,0.4,2.2,10,initial,36.05,328,361,393,0,0,9,9,9,0,0,,,,,3,0,3,0,0,7,7,16,,,,,num_3,1.4814299000427127,num_3,0.35,1,0.25,0.9,9.01073,32.43864,return,3.277430500020273,,,,,,,15,19,female,up_down_width,2023_Oct_17_1551,exp1,2021.2.3,59.916332830493715,
,,,,,,,,,,,,,,,,4,9.25,9.75,10.25,10.75,0,0.5,0.25,0.25,1.75,10,initial,36.05,333,351,370,388,0,9,9,9,9,0,,,,,3,0,3,0,0,8,8,20,,,,,num_4,0.978157999983523,num_4,0.2,1.0,0.2,0.4,7.20859,14.41717,return,4.489235399989411,,,,,,,15,19,female,up_down_width,2023_Oct_17_1551,exp1,2021.2.3,59.916332830493715,
,,,,,,,,,,,,,,,,4,9.25,9.75,10.25,10.75,0,0.5,0.09999999999999998,0.4,1.9,10,initial,36.05,333,351,370,388,0,9,9,9,9,0,,,,,3,0,3,0,0,9,9,22,,,,,num_3,1.8465480000013486,num_3,0.15,0.9,0.35,0.65,12.61502,23.4279,return,4.236030799977016,,,,,,,15,19,female,up_down_width,2023_Oct_17_1551,exp1,2021.2.3,59.916332830493715,
,,,,,,,,,,,,,,,,3,9.3,10,10.7,0,0,0.7,0.29999999999999993,0.4,1.8,10,initial,36.05,335,361,386,0,0,9,9,9,0,0,,,,,3,0,3,0,0,10,10,10,,,,,num_3,1.2047922000056133,num_3,0.25,1.2,0.35,0.65,12.61502,23.4279,return,5.250120099983178,,,,,,,15,19,female,up_down_width,2023_Oct_17_1551,exp1,2021.2.3,59.916332830493715,
,,,,,,,,,,,,,,,,5,9,9.5,10,10.5,11,0.5,0.25,0.25,2.25,10,initial,36.05,324,342,361,379,397,9,9,9,9,9,,,,,3,0,3,0,0,11,11,38,,,,,num_5,1.1472197999828495,num_5,0.3,1.2,0.3,0.65,10.81288,23.4279,return,5.711378500040155,,,,,,,15,19,female,up_down_width,2023_Oct_17_1551,exp1,2021.2.3,59.916332830493715,
,,,,,,,,,,,,,,,,5,8.65,9.325,10,10.675,11.35,0.675,0.42500000000000004,0.25,2.95,10,match,36.05,312,336,361,385,409,9,9,9,9,9,,,,,3,0,3,0,0,12,12,33,,,,,num_5,1.072680700046476,num_5,0.15,0.3,0.2,0.7,7.20859,25.23005,return,6.117148399993312,,,,,,,15,19,female,up_down_width,2023_Oct_17_1551,exp1,2021.2.3,59.916332830493715,
,,,,,,,,,,,,,,,,3,9.5,10,10.5,0,0,0.5,0.25,0.25,1.25,10,initial,36.05,342,361,379,0,0,9,9,9,0,0,,,,,3,0,3,0,0,13,13,2,,,,,num_3,1.040280899964273,num_3,0.3,1.2,0.2,0.6,7.20859,21.62576,return,4.389161999977659,,,,,,,15,19,female,up_down_width,2023_Oct_17_1551,exp1,2021.2.3,59.916332830493715,
,,,,,,,,,,,,,,,,5,8.95,9.475,10,10.525,11.05,0.525,0.125,0.4,2.5,10,match,36.05,323,342,361,379,398,9,9,9,9,9,,,,,3,0,3,0,0,14,14,29,,,,,num_4,1.3885699000093155,num_4,0.2,0.8,0.3,0.5,10.81288,18.02146,return,3.366086699999869,,,,,,,15,19,female,up_down_width,2023_Oct_17_1551,exp1,2021.2.3,59.916332830493715,
,,,,,,,,,,,,,,,,5,9.175,9.5875,10,10.4125,10.825,0.4125,0.16249999999999998,0.25,1.9,10,match,36.05,331,346,361,375,390,9,9,9,9,9,,,,,3,0,3,0,0,15,15,23,,,,,num_4,1.043958800029941,num_4,0.45,0.9,0.25000000000000006,0.5,9.01073,18.02146,return,3.933332299988251,,,,,,,15,19,female,up_down_width,2023_Oct_17_1551,exp1,2021.2.3,59.916332830493715,
,,,,,,,,,,,,,,,,4,9.3,9.766666666666667,10.233333333333333,10.7,0,0.4666666666666667,0.21666666666666665,0.25,1.65,10,match,36.05,335,352,369,386,0,9,9,9,9,0,,,,,3,0,3,0,0,16,16,9,,,,,num_4,1.0003861000295728,num_4,0.4,1.2,0.25000000000000006,0.5,9.01073,18.02146,return,4.114996300020721,,,,,,,15,19,female,up_down_width,2023_Oct_17_1551,exp1,2021.2.3,59.916332830493715,
,,,,,,,,,,,,,,,,4,8.65,9.55,10.45,11.35,0,0.9,0.5,0.4,3.1,10,initial,36.05,312,344,377,409,0,9,9,9,9,0,,,,,3,0,3,0,0,17,17,34,,,,,num_4,6.1939195999875665,num_4,0.45,1.2,0.30000000000000004,0.7,10.81288,25.23005,return,10.473151999991387,,,,,,,15,19,female,up_down_width,2023_Oct_17_1551,exp1,2021.2.3,59.916332830493715,
,,,,,,,,,,,,,,,,4,9.5,9.833333333333334,10.166666666666666,10.5,0,0.3333333333333333,0.08333333333333333,0.25,1.25,10,match,36.05,342,354,367,379,0,9,9,9,9,0,,,,,3,0,3,0,0,18,18,3,,,,,num_4,1.0262586000026204,num_4,0.25,0.9,0.2,0.3,7.20859,10.81288,return,5.62556900002528,,,,,,,15,19,female,up_down_width,2023_Oct_17_1551,exp1,2021.2.3,59.916332830493715,
,,,,,,,,,,,,,,,,3,9,10,11,0,0,0.9999999999999999,0.5999999999999999,0.4,2.4,10,match,36.05,324,361,397,0,0,9,9,9,0,0,,,,,3,0,3,0,0,19,19,41,,,,,num_3,1.2798815999994986,num_3,0.2,1.3,0.35,1.1,12.61502,39.64722,return,3.692150800023228,,,,,,,15,19,female,up_down_width,2023_Oct_17_1551,exp1,2021.2.3,59.916332830493715,
,,,,,,,,,,,,,,,,3,8.2,10,11.8,0,0,1.8000000000000003,1.7000000000000002,0.1,3.7,10,match,36.05,296,361,425,0,0,9,9,9,0,0,,,,,3,0,3,0,0,20,20,49,,,,,num_3,0.936464199970942,num_3,0.1,0.8,0.05,1.8,1.80215,64.87727,return,6.979765399999451,,,,,,,15,19,female,up_down_width,2023_Oct_17_1551,exp1,2021.2.3,59.916332830493715,
,,,,,,,,,,,,,,,,3,9.1,10,10.9,0,0,0.9,0.8,0.1,1.9000000000000001,10,initial,36.05,328,361,393,0,0,9,9,9,0,0,,,,,3,0,3,0,0,21,21,12,,,,,num_3,1.4028858999954537,num_3,0.25,0.3,0.05000000000000002,0.95,1.80215,34.24078,return,6.8494931000168435,,,,,,,15,19,female,up_down_width,2023_Oct_17_1551,exp1,2021.2.3,59.916332830493715,
,,,,,,,,,,,,,,,,5,8.6,9.3,10,10.7,11.4,0.7,0.29999999999999993,0.4,3.1999999999999997,10,initial,36.05,310,335,361,386,411,9,9,9,9,9,,,,,3,0,3,0,0,22,22,46,,,,,num_4,0.8863443000009283,num_4,0.1,0.3,0.15000000000000002,0.9,5.40644,32.43864,return,8.722494599991478,,,,,,,15,19,female,up_down_width,2023_Oct_17_1551,exp1,2021.2.3,59.916332830493715,
,,,,,,,,,,,,,,,,3,9.3,10,10.7,0,0,0.7,0.44999999999999996,0.25,1.65,10,initial,36.05,335,361,386,0,0,9,9,9,0,0,,,,,3,0,3,0,0,23,23,8,,,,,num_3,1.0472931999829598,num_3,0.2,0.5,0.15000000000000002,0.95,5.40644,34.24078,return,7.3084129999624565,,,,,,,15,19,female,up_down_width,2023_Oct_17_1551,exp1,2021.2.3,59.916332830493715,
,,,,,,,,,,,,,,,,3,9.3,10,10.7,0,0,0.7,0.6,0.1,1.5,10,initial,36.05,335,361,386,0,0,9,9,9,0,0,,,,,3,0,3,0,0,24,24,6,,,,,num_3,0.7187550000380725,num_3,0.3,0.4,0.05000000000000002,0.9,1.80215,32.43864,return,5.857663200004026,,,,,,,15,19,female,up_down_width,2023_Oct_17_1551,exp1,2021.2.3,59.916332830493715,
,,,,,,,,,,,,,,,,3,8.2,10,11.8,0,0,1.8,1.55,0.25,3.85,10,match,36.05,296,361,425,0,0,9,9,9,0,0,,,,,3,0,3,0,0,25,25,51,,,,,num_3,0.9743793999659829,num_3,0.3,1,0.25,2.0,9.01073,72.08586,return,7.093968800036237,,,,,,,15,19,female,up_down_width,2023_Oct_17_1551,exp1,2021.2.3,59.916332830493715,
,,,,,,,,,,,,,,,,4,8.95,9.65,10.35,11.05,0,0.7,0.29999999999999993,0.4,2.5,10,initial,36.05,323,348,373,398,0,9,9,9,9,0,,,,,3,0,3,0,0,26,26,28,,,,,num_3,0.8301825000089593,num_3,0.1,1.1,0.39999999999999997,1.15,14.41717,41.44937,return,6.382153400045354,,,,,,,15,19,female,up_down_width,2023_Oct_17_1551,exp1,2021.2.3,59.916332830493715,
,,,,,,,,,,,,,,,,3,9,10,11,0,0,1,0.9,0.1,2.1,10,match,36.05,324,361,397,0,0,9,9,9,0,0,,,,,3,0,3,0,0,27,27,37,,,,,num_3,0.8932139999815263,num_3,0.35,1.2,0.10000000000000002,1.35,3.60429,48.65795,return,4.167347899987362,,,,,,,15,19,female,up_down_width,2023_Oct_17_1551,exp1,2021.2.3,59.916332830493715,
,,,,,,,,,,,,,,,,5,8.2,9.1,10,10.9,11.8,0.9,0.5,0.4,4,10,initial,36.05,296,328,361,393,425,9,9,9,9,9,,,,,3,0,3,0,0,28,28,52,,,,,num_4,1.476705499982927,num_4,0.3,1.2,0.49999999999999994,1.2,18.02146,43.25151,return,4.200259800010826,,,,,,,15,19,female,up_down_width,2023_Oct_17_1551,exp1,2021.2.3,59.916332830493715,
,,,,,,,,,,,,,,,,4,9.425,9.808333333333334,10.191666666666666,10.575,0,0.3833333333333333,0.1333333333333333,0.25,1.4,10,match,36.05,340,354,367,381,0,9,9,9,9,0,,,,,3,0,3,0,0,29,29,5,,,,,num_4,1.0812921000178903,num_4,0.4,1.0,0.30000000000000004,0.5,10.81288,18.02146,return,3.7336221000296064,,,,,,,15,19,female,up_down_width,2023_Oct_17_1551,exp1,2021.2.3,59.916332830493715,
,,,,,,,,,,,,,,,,3,8.6,10,11.4,0,0,1.4,1.15,0.25,3.05,10,match,36.05,310,361,411,0,0,9,9,9,0,0,,,,,3,0,3,0,0,30,30,45,,,,,num_3,0.9384107000078075,num_3,0.35,1,0.25,0.75,9.01073,27.0322,return,2.947081199963577,,,,,,,15,19,female,up_down_width,2023_Oct_17_1551,exp1,2021.2.3,59.916332830493715,
,,,,,,,,,,,,,,,,5,8.65,9.325,10,10.675,11.35,0.675,0.275,0.4,3.1,10,match,36.05,312,336,361,385,409,9,9,9,9,9,,,,,3,0,3,0,0,31,31,35,,,,,num_5,0.8788383999490179,num_5,0.35,0.4,0.25,0.55,9.01073,19.82361,return,22.447096799965948,,,,,,,15,19,female,up_down_width,2023_Oct_17_1551,exp1,2021.2.3,59.916332830493715,
,,,,,,,,,,,,,,,,3,9.5,10,10.5,0,0,0.5,0.4,0.1,1.1,10,initial,36.05,342,361,379,0,0,9,9,9,0,0,,,,,3,0,3,0,0,32,32,0,,,,,num_3,0.9749028999940492,num_3,0.15,0.9,0.04999999999999999,0.7,1.80215,25.23005,return,2.629040400031954,,,,,,,15,19,female,up_down_width,2023_Oct_17_1551,exp1,2021.2.3,59.916332830493715,
,,,,,,,,,,,,,,,,4,8.65,9.55,10.45,11.35,0,0.9,0.8,0.1,2.8000000000000003,10,initial,36.05,312,344,377,409,0,9,9,9,9,0,,,,,3,0,3,0,0,33,33,30,,,,,num_4,0.9511695000110194,num_4,0.1,0.8,0.05,1.2,1.80215,43.25151,return,3.1545430999831297,,,,,,,15,19,female,up_down_width,2023_Oct_17_1551,exp1,2021.2.3,59.916332830493715,
,,,,,,,,,,,,,,,,5,9.25,9.625,10,10.375,10.75,0.375,0.125,0.25,1.75,10,match,36.05,333,347,361,374,388,9,9,9,9,9,,,,,3,0,3,0,0,34,34,21,,,,,num_4,0.9394443999626674,num_4,0.1,0.4,0.25,0.7,9.01073,25.23005,return,2.839073400013149,,,,,,,15,19,female,up_down_width,2023_Oct_17_1551,exp1,2021.2.3,59.916332830493715,
,,,,,,,,,,,,,,,,5,9,9.5,10,10.5,11,0.5,0.4,0.1,2.1,10,initial,36.05,324,342,361,379,397,9,9,9,9,9,,,,,3,0,3,0,0,35,35,36,,,,,num_4,1.1359656999702565,num_4,0.25,1.2,0.15000000000000002,0.6,5.40644,21.62576,return,3.7931493999785744,,,,,,,15,19,female,up_down_width,2023_Oct_17_1551,exp1,2021.2.3,59.916332830493715,
,,,,,,,,,,,,,,,,4,9.25,9.75,10.25,10.75,0,0.5,0.4,0.1,1.6,10,initial,36.05,333,351,370,388,0,9,9,9,9,0,,,,,3,0,3,0,0,36,36,18,,,,,num_3,1.0558713999926113,num_3,0.15,0.7,0.10000000000000002,0.65,3.60429,23.4279,return,2.0352555999998003,,,,,,,15,19,female,up_down_width,2023_Oct_17_1551,exp1,2021.2.3,59.916332830493715,
,,,,,,,,,,,,,,,,3,8.525,10,11.475,0,0,1.475,1.225,0.25,3.2,10,match,36.05,307,361,414,0,0,9,9,9,0,0,,,,,3,0,3,0,0,37,37,47,,,,,num_3,0.9338368999888189,num_3,0.2,0.5,0.15000000000000002,0.85,5.40644,30.63649,return,3.535592000000179,,,,,,,15,19,female,up_down_width,2023_Oct_17_1551,exp1,2021.2.3,59.916332830493715,
,,,,,,,,,,,,,,,,3,9.1,10,10.9,0,0,0.9,0.65,0.25,2.05,10,initial,36.05,328,361,393,0,0,9,9,9,0,0,,,,,3,0,3,0,0,38,38,14,,,,,num_3,1.198751199990511,num_3,0.45,0.9,0.30000000000000004,0.85,10.81288,30.63649,return,3.066442899988033,,,,,,,15,19,female,up_down_width,2023_Oct_17_1551,exp1,2021.2.3,59.916332830493715,
,,,,,,,,,,,,,,,,4,8.65,9.55,10.45,11.35,0,0.9,0.65,0.25,2.95,10,initial,36.05,312,344,377,409,0,9,9,9,9,0,,,,,3,0,3,0,0,39,39,32,,,,,num_4,0.945410099986475,num_4,0.35,0.8,0.2,0.7,7.20859,25.23005,return,2.9218891999917105,,,,,,,15,19,female,up_down_width,2023_Oct_17_1551,exp1,2021.2.3,59.916332830493715,
,,,,,,,,,,,,,,,,4,8.95,9.65,10.35,11.05,0,0.7,0.6,0.1,2.1999999999999997,10,initial,36.05,323,348,373,398,0,9,9,9,9,0,,,,,3,0,3,0,0,40,40,24,,,,,num_4,0.913929000031203,num_4,0.2,0.4,0.10000000000000002,0.6,3.60429,21.62576,return,3.421646900009364,,,,,,,15,19,female,up_down_width,2023_Oct_17_1551,exp1,2021.2.3,59.916332830493715,
,,,,,,,,,,,,,,,,4,9.3,9.766666666666667,10.233333333333333,10.7,0,0.4666666666666667,0.06666666666666665,0.4,1.8,10,match,36.05,335,352,369,386,0,9,9,9,9,0,,,,,3,0,3,0,0,41,41,11,,,,,num_4,1.1426760000176728,num_4,0.45,1.3,0.5,0.6,18.02146,21.62576,return,8.754466699960176,,,,,,,15,19,female,up_down_width,2023_Oct_17_1551,exp1,2021.2.3,59.916332830493715,
,,,,,,,,,,,,,,,,3,9,10,11,0,0,1,0.75,0.25,2.25,10,match,36.05,324,361,397,0,0,9,9,9,0,0,,,,,3,0,3,0,0,42,42,39,,,,,num_3,1.0654100999818183,num_3,0.2,1.2,0.39999999999999997,0.95,14.41717,34.24078,return,3.726157900004182,,,,,,,15,19,female,up_down_width,2023_Oct_17_1551,exp1,2021.2.3,59.916332830493715,
,,,,,,,,,,,,,,,,4,9.1,9.7,10.3,10.9,0,0.6000000000000001,0.20000000000000004,0.4,2.2,10,match,36.05,328,350,371,393,0,9,9,9,9,0,,,,,3,0,3,0,0,43,43,17,,,,,num_4,0.8642695000162348,num_4,0.2,1.3,0.44999999999999996,0.9,16.21932,32.43864,return,3.9868617999600247,,,,,,,15,19,female,up_down_width,2023_Oct_17_1551,exp1,2021.2.3,59.916332830493715,
,,,,,,,,,,,,,,,,3,8.2,10,11.8,0,0,1.7999999999999998,1.4,0.4,4,10,match,36.05,296,361,425,0,0,9,9,9,0,0,,,,,3,0,3,0,0,44,44,53,,,,,num_3,0.9587513000005856,num_3,0.1,0.8,0.44999999999999996,1.85,16.21932,66.67942,return,24.22747869999148,,,,,,,15,19,female,up_down_width,2023_Oct_17_1551,exp1,2021.2.3,59.916332830493715,
,,,,,,,,,,,,,,,,5,8.65,9.325,10,10.675,11.35,0.6749999999999999,0.575,0.1,2.8,10,match,36.05,312,336,361,385,409,9,9,9,9,9,,,,,3,0,3,0,0,45,45,31,,,,,num_4,0.9701191000058316,num_4,0.45,0.9,0.20000000000000007,1.3,7.20859,46.85581,return,4.292425599996932,,,,,,,15,19,female,up_down_width,2023_Oct_17_1551,exp1,2021.2.3,59.916332830493715,
,,,,,,,,,,,,,,,,5,8.95,9.475,10,10.525,11.05,0.525,0.42500000000000004,0.1,2.2,10,match,36.05,323,342,361,379,398,9,9,9,9,9,,,,,3,0,3,0,0,46,46,25,,,,,num_5,1.2712912000133656,num_5,0.1,1.2,0.05,0.8,1.80215,28.83434,return,6.114515400025994,,,,,,,15,19,female,up_down_width,2023_Oct_17_1551,exp1,2021.2.3,59.916332830493715,
,,,,,,,,,,,,,,,,5,8.6,9.3,10,10.7,11.4,0.7,0.44999999999999996,0.25,3.05,10,initial,36.05,310,335,361,386,411,9,9,9,9,9,,,,,3,0,3,0,0,47,47,44,,,,,num_5,1.3392854999983683,num_5,0.4,1.3,0.10000000000000007,0.8,3.60429,28.83434,return,5.78108779998729,,,,,,,15,19,female,up_down_width,2023_Oct_17_1551,exp1,2021.2.3,59.916332830493715,
,,,,,,,,,,,,,,,,5,8.6,9.3,10,10.7,11.4,0.7,0.6,0.1,2.9,10,initial,36.05,310,335,361,386,411,9,9,9,9,9,,,,,3,0,3,0,0,48,48,42,,,,,num_4,0.944031500024721,num_4,0.3,1.2,0.10000000000000002,1.1,3.60429,39.64722,return,1.8010342000052333,,,,,,,15,19,female,up_down_width,2023_Oct_17_1551,exp1,2021.2.3,59.916332830493715,
,,,,,,,,,,,,,,,,4,9.3,9.766666666666667,10.233333333333333,10.7,0,0.4666666666666667,0.3666666666666667,0.1,1.5,10,match,36.05,335,352,369,386,0,9,9,9,9,0,,,,,3,0,3,0,0,49,49,7,,,,,num_3,0.8879692000336945,num_3,0.25,0.4,0.10000000000000002,0.65,3.60429,23.4279,return,3.8398106999811716,,,,,,,15,19,female,up_down_width,2023_Oct_17_1551,exp1,2021.2.3,59.916332830493715,
,,,,,,,,,,,,,,,,5,8.2,9.1,10,10.9,11.8,0.9,0.65,0.25,3.85,10,initial,36.05,296,328,361,393,425,9,9,9,9,9,,,,,3,0,3,0,0,50,50,50,,,,,num_4,0.8339782999828458,num_4,0.45,0.9,0.30000000000000004,1.3,10.81288,46.85581,return,3.1297774000559,,,,,,,15,19,female,up_down_width,2023_Oct_17_1551,exp1,2021.2.3,59.916332830493715,
,,,,,,,,,,,,,,,,4,8.95,9.65,10.35,11.05,0,0.7,0.44999999999999996,0.25,2.3499999999999996,10,initial,36.05,323,348,373,398,0,9,9,9,9,0,,,,,3,0,3,0,0,51,51,26,,,,,num_4,2.019123199977912,num_4,0.4,1.0,0.15000000000000008,1.0,5.40644,36.04293,return,1.873282999964431,,,,,,,15,19,female,up_down_width,2023_Oct_17_1551,exp1,2021.2.3,59.916332830493715,
,,,,,,,,,,,,,,,,5,8.95,9.475,10,10.525,11.05,0.525,0.275,0.25,2.35,10,match,36.05,323,342,361,379,398,9,9,9,9,9,,,,,3,0,3,0,0,52,52,27,,,,,num_5,1.4307021999848075,num_5,0.1,1.2,0.3,1.05,10.81288,37.84507,return,23.047736999986228,,,,,,,15,19,female,up_down_width,2023_Oct_17_1551,exp1,2021.2.3,59.916332830493715,
,,,,,,,,,,,,,,,,3,9.5,10,10.5,0,0,0.5,0.09999999999999998,0.4,1.4000000000000001,10,initial,36.05,342,361,379,0,0,9,9,9,0,0,,,,,3,0,3,0,0,53,53,4,,,,,num_3,1.9720992999500595,num_3,0.45,1,0.20000000000000007,0.4,7.20859,14.41717,return,6.627669400011655,,,,,,,15,19,female,up_down_width,2023_Oct_17_1551,exp1,2021.2.3,59.916332830493715,
,,,,,,,,,,,,,,,,,,,,,,,,,,,,,,,,,,,,,,,,,,,3,0,3,0,,,,,,,,,,,,,,,,,,,,,,2001.241349500022,None,2001.241349500022,None,15,19,female,up_down_width,2023_Oct_17_1551,exp1,2021.2.3,59.916332830493715,
,,,,,,,,,,,,,,,,4,9.5,9.833333333333334,10.166666666666666,10.5,0,0.3333333333333333,0.08333333333333333,0.25,1.25,10,match,36.05,342,354,367,379,0,9,9,9,9,0,,,,,4,0,4,0,0,0,0,3,,,,,num_3,1.2972866999916732,num_3,0.1,0.7,0.25,0.5,9.01073,18.02146,return,3.5804277999559417,,,,,,,15,19,female,up_down_width,2023_Oct_17_1551,exp1,2021.2.3,59.916332830493715,
,,,,,,,,,,,,,,,,3,9.1,10,10.9,0,0,0.9,0.65,0.25,2.05,10,initial,36.05,328,361,393,0,0,9,9,9,0,0,,,,,4,0,4,0,0,1,1,14,,,,,num_3,0.9339378000004217,num_3,0.35,1.1,0.25,1.2,9.01073,43.25151,return,2.428563399997074,,,,,,,15,19,female,up_down_width,2023_Oct_17_1551,exp1,2021.2.3,59.916332830493715,
,,,,,,,,,,,,,,,,3,9.3,10,10.7,0,0,0.7,0.6,0.1,1.5,10,initial,36.05,335,361,386,0,0,9,9,9,0,0,,,,,4,0,4,0,0,2,2,6,,,,,num_3,1.0944767000037245,num_3,0.35,0.5,0.10000000000000002,0.7,3.60429,25.23005,return,2.888965599995572,,,,,,,15,19,female,up_down_width,2023_Oct_17_1551,exp1,2021.2.3,59.916332830493715,
,,,,,,,,,,,,,,,,4,8.65,9.55,10.45,11.35,0,0.9,0.5,0.4,3.1,10,initial,36.05,312,344,377,409,0,9,9,9,9,0,,,,,4,0,4,0,0,3,3,34,,,,,num_4,0.866585000010673,num_4,0.25,0.9,0.35,1.3,12.61502,46.85581,return,2.340382000023965,,,,,,,15,19,female,up_down_width,2023_Oct_17_1551,exp1,2021.2.3,59.916332830493715,
,,,,,,,,,,,,,,,,5,9,9.5,10,10.5,11,0.5,0.25,0.25,2.25,10,initial,36.05,324,342,361,379,397,9,9,9,9,9,,,,,4,0,4,0,0,4,4,38,,,,,num_4,1.214852900011465,num_4,0.2,0.9,0.3,0.8,10.81288,28.83434,return,3.5693137000198476,,,,,,,15,19,female,up_down_width,2023_Oct_17_1551,exp1,2021.2.3,59.916332830493715,
,,,,,,,,,,,,,,,,4,8.95,9.65,10.35,11.05,0,0.7,0.6,0.1,2.1999999999999997,10,initial,36.05,323,348,373,398,0,9,9,9,9,0,,,,,4,0,4,0,0,5,5,24,,,,,num_3,0.8632971000042744,num_3,0.45,0.8,0.10000000000000007,1.25,3.60429,45.05366,return,13.00434410001617,,,,,,,15,19,female,up_down_width,2023_Oct_17_1551,exp1,2021.2.3,59.916332830493715,
,,,,,,,,,,,,,,,,3,9.5,10,10.5,0,0,0.5,0.4,0.1,1.1,10,initial,36.05,342,361,379,0,0,9,9,9,0,0,,,,,4,0,4,0,0,6,6,0,,,,,num_3,0.9825101000024006,num_3,0.3,0.6,0.10000000000000002,0.8,3.60429,28.83434,return,2.2545606999774463,,,,,,,15,19,female,up_down_width,2023_Oct_17_1551,exp1,2021.2.3,59.916332830493715,
,,,,,,,,,,,,,,,,5,9.25,9.625,10,10.375,10.75,0.375,0.275,0.1,1.6,10,match,36.05,333,347,361,374,388,9,9,9,9,9,,,,,4,0,4,0,0,7,7,19,,,,,num_4,1.1094525000080466,num_4,0.15,0.7,0.09999999999999999,0.4,3.60429,14.41717,return,2.424661900033243,,,,,,,15,19,female,up_down_width,2023_Oct_17_1551,exp1,2021.2.3,59.916332830493715,
,,,,,,,,,,,,,,,,3,9.3,10,10.7,0,0,0.7,0.44999999999999996,0.25,1.65,10,initial,36.05,335,361,386,0,0,9,9,9,0,0,,,,,4,0,4,0,0,8,8,8,,,,,num_3,0.8793301999685355,num_3,0.15,1.3,0.15,0.8,5.40644,28.83434,return,5.813229199964553,,,,,,,15,19,female,up_down_width,2023_Oct_17_1551,exp1,2021.2.3,59.916332830493715,
,,,,,,,,,,,,,,,,5,8.6,9.3,10,10.7,11.4,0.7,0.44999999999999996,0.25,3.05,10,initial,36.05,310,335,361,386,411,9,9,9,9,9,,,,,4,0,4,0,0,9,9,44,,,,,num_4,0.9540331999887712,num_4,0.25,0.4,0.15000000000000002,0.7,5.40644,25.23005,return,3.392679499986116,,,,,,,15,19,female,up_down_width,2023_Oct_17_1551,exp1,2021.2.3,59.916332830493715,
,,,,,,,,,,,,,,,,4,8.95,9.65,10.35,11.05,0,0.7,0.44999999999999996,0.25,2.3499999999999996,10,initial,36.05,323,348,373,398,0,9,9,9,9,0,,,,,4,0,4,0,0,10,10,26,,,,,num_4,1.047683299984783,num_4,0.1,0.3,0.15000000000000002,1.2,5.40644,43.25151,return,5.517571099975612,,,,,,,15,19,female,up_down_width,2023_Oct_17_1551,exp1,2021.2.3,59.916332830493715,
,,,,,,,,,,,,,,,,3,9.3,10,10.7,0,0,0.7,0.29999999999999993,0.4,1.8,10,initial,36.05,335,361,386,0,0,9,9,9,0,0,,,,,4,0,4,0,0,11,11,10,,,,,num_3,1.106792200007476,num_3,0.15,1.3,0.25,0.7,9.01073,25.23005,return,6.368267899961211,,,,,,,15,19,female,up_down_width,2023_Oct_17_1551,exp1,2021.2.3,59.916332830493715,
,,,,,,,,,,,,,,,,5,9.25,9.625,10,10.375,10.75,0.375,0.125,0.25,1.75,10,match,36.05,333,347,361,374,388,9,9,9,9,9,,,,,4,0,4,0,0,12,12,21,,,,,num_4,0.9470100000035018,num_4,0.35,0.8,0.15000000000000002,0.4,5.40644,14.41717,return,3.9514272999949753,,,,,,,15,19,female,up_down_width,2023_Oct_17_1551,exp1,2021.2.3,59.916332830493715,
,,,,,,,,,,,,,,,,5,9,9.5,10,10.5,11,0.5,0.09999999999999998,0.4,2.4,10,initial,36.05,324,342,361,379,397,9,9,9,9,9,,,,,4,0,4,0,0,13,13,40,,,,,num_4,1.163354599964805,num_4,0.35,0.7,0.2,0.4,7.20859,14.41717,return,3.6931634999928065,,,,,,,15,19,female,up_down_width,2023_Oct_17_1551,exp1,2021.2.3,59.916332830493715,
,,,,,,,,,,,,,,,,3,9.5,10,10.5,0,0,0.5,0.25,0.25,1.25,10,initial,36.05,342,361,379,0,0,9,9,9,0,0,,,,,4,0,4,0,0,14,14,2,,,,,num_3,1.0665610000141896,num_3,0.25,0.5,0.15000000000000002,0.55,5.40644,19.82361,return,2.5925102999899536,,,,,,,15,19,female,up_down_width,2023_Oct_17_1551,exp1,2021.2.3,59.916332830493715,
,,,,,,,,,,,,,,,,5,8.95,9.475,10,10.525,11.05,0.525,0.125,0.4,2.5,10,match,36.05,323,342,361,379,398,9,9,9,9,9,,,,,4,0,4,0,0,15,15,29,,,,,num_4,1.160103900008835,num_4,0.35,1.1,0.2,0.5,7.20859,18.02146,return,4.4719689000048675,,,,,,,15,19,female,up_down_width,2023_Oct_17_1551,exp1,2021.2.3,59.916332830493715,
,,,,,,,,,,,,,,,,4,9.25,9.75,10.25,10.75,0,0.5,0.4,0.1,1.6,10,initial,36.05,333,351,370,388,0,9,9,9,9,0,,,,,4,0,4,0,0,16,16,18,,,,,num_4,1.7402327000163496,num_4,0.25,1.0,0.25,0.7,9.01073,25.23005,return,29.020895200024825,,,,,,,15,19,female,up_down_width,2023_Oct_17_1551,exp1,2021.2.3,59.916332830493715,
,,,,,,,,,,,,,,,,4,9.3,9.766666666666667,10.233333333333333,10.7,0,0.4666666666666667,0.21666666666666665,0.25,1.65,10,match,36.05,335,352,369,386,0,9,9,9,9,0,,,,,4,0,4,0,0,17,17,9,,,,,num_4,0.8215850000269711,num_4,0.1,1.3,0.2,0.5,7.20859,18.02146,return,3.6172645000042394,,,,,,,15,19,female,up_down_width,2023_Oct_17_1551,exp1,2021.2.3,59.916332830493715,
,,,,,,,,,,,,,,,,5,9,9.5,10,10.5,11,0.5,0.4,0.1,2.1,10,initial,36.05,324,342,361,379,397,9,9,9,9,9,,,,,4,0,4,0,0,18,18,36,,,,,num_4,0.9592760999803431,num_4,0.35,1.0,0.15000000000000002,0.6,5.40644,21.62576,return,3.1915068000089377,,,,,,,15,19,female,up_down_width,2023_Oct_17_1551,exp1,2021.2.3,59.916332830493715,
,,,,,,,,,,,,,,,,3,8.6,10,11.4,0,0,1.4,1.15,0.25,3.05,10,match,36.05,310,361,411,0,0,9,9,9,0,0,,,,,4,0,4,0,0,19,19,45,,,,,num_3,1.3585834000259638,num_3,0.4,1.1,0.20000000000000007,0.8,7.20859,28.83434,return,3.5749317000154406,,,,,,,15,19,female,up_down_width,2023_Oct_17_1551,exp1,2021.2.3,59.916332830493715,
,,,,,,,,,,,,,,,,5,8.65,9.325,10,10.675,11.35,0.675,0.275,0.4,3.1,10,match,36.05,312,336,361,385,409,9,9,9,9,9,,,,,4,0,4,0,0,20,20,35,,,,,num_4,0.968506500008516,num_4,0.1,0.3,0.25,0.6,9.01073,21.62576,return,4.369597300013993,,,,,,,15,19,female,up_down_width,2023_Oct_17_1551,exp1,2021.2.3,59.916332830493715,
,,,,,,,,,,,,,,,,3,9,10,11,0,0,0.9999999999999999,0.5999999999999999,0.4,2.4,10,match,36.05,324,361,397,0,0,9,9,9,0,0,,,,,4,0,4,0,0,21,21,41,,,,,num_2,1.4974160999991,num_2,0.25,1.6,0.5499999999999999,1.0,19.82361,36.04293,return,7.5210570999770425,,,,,,,15,19,female,up_down_width,2023_Oct_17_1551,exp1,2021.2.3,59.916332830493715,
,,,,,,,,,,,,,,,,4,8.65,9.55,10.45,11.35,0,0.9,0.8,0.1,2.8000000000000003,10,initial,36.05,312,344,377,409,0,9,9,9,9,0,,,,,4,0,4,0,0,22,22,30,,,,,num_3,0.8164965000469238,num_3,0.3,0.6,0.2,0.9,7.20859,32.43864,return,2.9438403000240214,,,,,,,15,19,female,up_down_width,2023_Oct_17_1551,exp1,2021.2.3,59.916332830493715,
,,,,,,,,,,,,,,,,5,8.2,9.1,10,10.9,11.8,0.9,0.65,0.25,3.85,10,initial,36.05,296,328,361,393,425,9,9,9,9,9,,,,,4,0,4,0,0,23,23,50,,,,,num_4,0.837536100007128,num_4,0.1,0.9,0.2,0.7,7.20859,25.23005,return,3.7741118000121787,,,,,,,15,19,female,up_down_width,2023_Oct_17_1551,exp1,2021.2.3,59.916332830493715,
,,,,,,,,,,,,,,,,4,9.25,9.75,10.25,10.75,0,0.5,0.09999999999999998,0.4,1.9,10,initial,36.05,333,351,370,388,0,9,9,9,9,0,,,,,4,0,4,0,0,24,24,22,,,,,num_3,0.8953749000211246,num_3,0.15,1.2,0.25,0.4,9.01073,14.41717,return,5.258324199996423,,,,,,,15,19,female,up_down_width,2023_Oct_17_1551,exp1,2021.2.3,59.916332830493715,
,,,,,,,,,,,,,,,,4,9.5,9.833333333333334,10.166666666666666,10.5,0,0.33333333333333337,0.23333333333333336,0.1,1.1,10,match,36.05,342,354,367,379,0,9,9,9,9,0,,,,,4,0,4,0,0,25,25,1,,,,,num_3,0.9684489999781363,num_3,0.25,1.1,0.10000000000000002,0.4,3.60429,14.41717,return,4.096793800010346,,,,,,,15,19,female,up_down_width,2023_Oct_17_1551,exp1,2021.2.3,59.916332830493715,
,,,,,,,,,,,,,,,,5,8.2,9.1,10,10.9,11.8,0.9,0.8,0.1,3.7,10,initial,36.05,296,328,361,393,425,9,9,9,9,9,,,,,4,0,4,0,0,26,26,48,,,,,num_4,1.0111850000103004,num_4,0.2,1.2,0.10000000000000002,1.7,3.60429,61.27298,return,20.0103342999937,,,,,,,15,19,female,up_down_width,2023_Oct_17_1551,exp1,2021.2.3,59.916332830493715,
,,,,,,,,,,,,,,,,4,9.1,9.7,10.3,10.9,0,0.6,0.5,0.1,1.9,10,match,36.05,328,350,371,393,0,9,9,9,9,0,,,,,4,0,4,0,0,27,27,13,,,,,num_3,0.9756783000193536,num_3,0.1,0.9,0.1,0.95,3.60429,34.24078,return,2.086750700022094,,,,,,,15,19,female,up_down_width,2023_Oct_17_1551,exp1,2021.2.3,59.916332830493715,
,,,,,,,,,,,,,,,,5,8.2,9.1,10,10.9,11.8,0.9,0.5,0.4,4,10,initial,36.05,296,328,361,393,425,9,9,9,9,9,,,,,4,0,4,0,0,28,28,52,,,,,num_4,1.079397900030017,num_4,0.3,1.2,0.39999999999999997,1.4,14.41717,50.4601,return,2.0101990000111982,,,,,,,15,19,female,up_down_width,2023_Oct_17_1551,exp1,2021.2.3,59.916332830493715,
,,,,,,,,,,,,,,,,5,8.95,9.475,10,10.525,11.05,0.525,0.275,0.25,2.35,10,match,36.05,323,342,361,379,398,9,9,9,9,9,,,,,4,0,4,0,0,29,29,27,,,,,num_5,1.2455706999753602,num_5,0.3,1.2,0.25,0.8,9.01073,28.83434,return,2.85751750000054,,,,,,,15,19,female,up_down_width,2023_Oct_17_1551,exp1,2021.2.3,59.916332830493715,
,,,,,,,,,,,,,,,,3,8.2,10,11.8,0,0,1.8000000000000003,1.7000000000000002,0.1,3.7,10,match,36.05,296,361,425,0,0,9,9,9,0,0,,,,,4,0,4,0,0,30,30,49,,,,,num_3,0.8206025999970734,num_3,0.2,1.2,0.15000000000000002,1.45,5.40644,52.26225,return,2.4826276000239886,,,,,,,15,19,female,up_down_width,2023_Oct_17_1551,exp1,2021.2.3,59.916332830493715,
,,,,,,,,,,,,,,,,3,9.1,10,10.9,0,0,0.9,0.5,0.4,2.2,10,initial,36.05,328,361,393,0,0,9,9,9,0,0,,,,,4,0,4,0,0,31,31,16,,,,,num_3,0.9555031000054441,num_3,0.1,1,0.39999999999999997,0.95,14.41717,34.24078,return,2.6406936999992467,,,,,,,15,19,female,up_down_width,2023_Oct_17_1551,exp1,2021.2.3,59.916332830493715,
,,,,,,,,,,,,,,,,3,8.2,10,11.8,0,0,1.7999999999999998,1.4,0.4,4,10,match,36.05,296,361,425,0,0,9,9,9,0,0,,,,,4,0,4,0,0,32,32,53,,,,,num_3,0.8677192999748513,num_3,0.35,1.2,0.25,0.9,9.01073,32.43864,return,2.8009770999778993,,,,,,,15,19,female,up_down_width,2023_Oct_17_1551,exp1,2021.2.3,59.916332830493715,
,,,,,,,,,,,,,,,,4,9.1,9.7,10.3,10.9,0,0.5999999999999999,0.3499999999999999,0.25,2.05,10,match,36.05,328,350,371,393,0,9,9,9,9,0,,,,,4,0,4,0,0,33,33,15,,,,,num_4,1.0251823999569751,num_4,0.15,0.7,0.3,0.9,10.81288,32.43864,return,3.015170200029388,,,,,,,15,19,female,up_down_width,2023_Oct_17_1551,exp1,2021.2.3,59.916332830493715,
,,,,,,,,,,,,,,,,4,8.95,9.65,10.35,11.05,0,0.7,0.29999999999999993,0.4,2.5,10,initial,36.05,323,348,373,398,0,9,9,9,9,0,,,,,4,0,4,0,0,34,34,28,,,,,num_4,1.1591440999764018,num_4,0.35,0.8,0.2,0.6,7.20859,21.62576,return,2.664905399957206,,,,,,,15,19,female,up_down_width,2023_Oct_17_1551,exp1,2021.2.3,59.916332830493715,
,,,,,,,,,,,,,,,,5,8.6,9.3,10,10.7,11.4,0.7,0.29999999999999993,0.4,3.1999999999999997,10,initial,36.05,310,335,361,386,411,9,9,9,9,9,,,,,4,0,4,0,0,35,35,46,,,,,num_4,0.9058850999572314,num_4,0.1,1.3,0.2,0.7,7.20859,25.23005,return,3.6060686000273563,,,,,,,15,19,female,up_down_width,2023_Oct_17_1551,exp1,2021.2.3,59.916332830493715,
,,,,,,,,,,,,,,,,3,8.525,10,11.475,0,0,1.475,1.225,0.25,3.2,10,match,36.05,307,361,414,0,0,9,9,9,0,0,,,,,4,0,4,0,0,36,36,47,,,,,num_3,0.8872438999824226,num_3,0.25,0.8,0.10000000000000002,1.15,3.60429,41.44937,return,3.059881300025154,,,,,,,15,19,female,up_down_width,2023_Oct_17_1551,exp1,2021.2.3,59.916332830493715,
,,,,,,,,,,,,,,,,3,9,10,11,0,0,1,0.9,0.1,2.1,10,match,36.05,324,361,397,0,0,9,9,9,0,0,,,,,4,0,4,0,0,37,37,37,,,,,num_3,0.9425383000052534,num_3,0.4,0.5,0.10000000000000007,1.2,3.60429,43.25151,return,5.208594299969263,,,,,,,15,19,female,up_down_width,2023_Oct_17_1551,exp1,2021.2.3,59.916332830493715,
,,,,,,,,,,,,,,,,5,8.65,9.325,10,10.675,11.35,0.675,0.42500000000000004,0.25,2.95,10,match,36.05,312,336,361,385,409,9,9,9,9,9,,,,,4,0,4,0,0,38,38,33,,,,,num_4,0.9742702000075951,num_4,0.4,1.2,0.15000000000000008,1.3,5.40644,46.85581,return,3.0618146000197157,,,,,,,15,19,female,up_down_width,2023_Oct_17_1551,exp1,2021.2.3,59.916332830493715,
,,,,,,,,,,,,,,,,5,8.6,9.3,10,10.7,11.4,0.7,0.6,0.1,2.9,10,initial,36.05,310,335,361,386,411,9,9,9,9,9,,,,,4,0,4,0,0,39,39,42,,,,,num_4,1.0062414999702014,num_4,0.35,1.1,0.10000000000000002,1.0,3.60429,36.04293,return,3.1376927999663167,,,,,,,15,19,female,up_down_width,2023_Oct_17_1551,exp1,2021.2.3,59.916332830493715,
,,,,,,,,,,,,,,,,3,9.5,10,10.5,0,0,0.5,0.09999999999999998,0.4,1.4000000000000001,10,initial,36.05,342,361,379,0,0,9,9,9,0,0,,,,,4,0,4,0,0,40,40,4,,,,,num_3,1.111284099984914,num_3,0.15,1.1,0.25,0.55,9.01073,19.82361,return,5.62652359995991,,,,,,,15,19,female,up_down_width,2023_Oct_17_1551,exp1,2021.2.3,59.916332830493715,
,,,,,,,,,,,,,,,,3,9,10,11,0,0,1,0.75,0.25,2.25,10,match,36.05,324,361,397,0,0,9,9,9,0,0,,,,,4,0,4,0,0,41,41,39,,,,,num_3,1.1257625999860466,num_3,0.1,1.3,0.2,0.8,7.20859,28.83434,return,3.448477099998854,,,,,,,15,19,female,up_down_width,2023_Oct_17_1551,exp1,2021.2.3,59.916332830493715,
,,,,,,,,,,,,,,,,3,9.1,10,10.9,0,0,0.9,0.8,0.1,1.9000000000000001,10,initial,36.05,328,361,393,0,0,9,9,9,0,0,,,,,4,0,4,0,0,42,42,12,,,,,num_3,1.0539140999899246,num_3,0.4,0.6,0.15000000000000008,0.75,5.40644,27.0322,return,2.963929499965161,,,,,,,15,19,female,up_down_width,2023_Oct_17_1551,exp1,2021.2.3,59.916332830493715,
,,,,,,,,,,,,,,,,4,8.65,9.55,10.45,11.35,0,0.9,0.65,0.25,2.95,10,initial,36.05,312,344,377,409,0,9,9,9,9,0,,,,,4,0,4,0,0,43,43,32,,,,,num_4,1.3166232000221498,num_4,0.3,0.5,0.15000000000000002,1.1,5.40644,39.64722,return,4.147125200019218,,,,,,,15,19,female,up_down_width,2023_Oct_17_1551,exp1,2021.2.3,59.916332830493715,
,,,,,,,,,,,,,,,,5,8.95,9.475,10,10.525,11.05,0.525,0.42500000000000004,0.1,2.2,10,match,36.05,323,342,361,379,398,9,9,9,9,9,,,,,4,0,4,0,0,44,44,25,,,,,num_4,0.8161396000068635,num_4,0.1,1.0,0.1,1.0,3.60429,36.04293,return,2.584520300035365,,,,,,,15,19,female,up_down_width,2023_Oct_17_1551,exp1,2021.2.3,59.916332830493715,
,,,,,,,,,,,,,,,,3,8.6,10,11.4,0,0,1.4,1.2999999999999998,0.1,2.9,10,match,36.05,310,361,411,0,0,9,9,9,0,0,,,,,4,0,4,0,0,45,45,43,,,,,num_3,0.9698116999934427,num_3,0.25,0.8,0.10000000000000002,0.95,3.60429,34.24078,return,18.483246800024062,,,,,,,15,19,female,up_down_width,2023_Oct_17_1551,exp1,2021.2.3,59.916332830493715,
,,,,,,,,,,,,,,,,4,9.425,9.808333333333334,10.191666666666666,10.575,0,0.3833333333333333,0.1333333333333333,0.25,1.4,10,match,36.05,340,354,367,381,0,9,9,9,9,0,,,,,4,0,4,0,0,46,46,5,,,,,num_3,1.3832200000179,num_3,0.1,0.4,0.15000000000000002,0.45,5.40644,16.21932,return,3.565204899990931,,,,,,,15,19,female,up_down_width,2023_Oct_17_1551,exp1,2021.2.3,59.916332830493715,
,,,,,,,,,,,,,,,,5,9.175,9.5875,10,10.4125,10.825,0.4125,0.16249999999999998,0.25,1.9,10,match,36.05,331,346,361,375,390,9,9,9,9,9,,,,,4,0,4,0,0,47,47,23,,,,,num_4,1.1021709999768063,num_4,0.2,0.4,0.15000000000000002,0.4,5.40644,14.41717,return,2.1448201999883167,,,,,,,15,19,female,up_down_width,2023_Oct_17_1551,exp1,2021.2.3,59.916332830493715,
,,,,,,,,,,,,,,,,4,9.3,9.766666666666667,10.233333333333333,10.7,0,0.4666666666666667,0.06666666666666665,0.4,1.8,10,match,36.05,335,352,369,386,0,9,9,9,9,0,,,,,4,0,4,0,0,48,48,11,,,,,num_4,0.842378799978178,num_4,0.15,0.6,0.25,0.4,9.01073,14.41717,return,2.2180342000210658,,,,,,,15,19,female,up_down_width,2023_Oct_17_1551,exp1,2021.2.3,59.916332830493715,
,,,,,,,,,,,,,,,,3,8.2,10,11.8,0,0,1.8,1.55,0.25,3.85,10,match,36.05,296,361,425,0,0,9,9,9,0,0,,,,,4,0,4,0,0,49,49,51,,,,,num_3,0.9997666999697685,num_3,0.25,1.2,0.2,2.1,7.20859,75.69015,return,5.4879818999907,,,,,,,15,19,female,up_down_width,2023_Oct_17_1551,exp1,2021.2.3,59.916332830493715,
,,,,,,,,,,,,,,,,4,9.1,9.7,10.3,10.9,0,0.6000000000000001,0.20000000000000004,0.4,2.2,10,match,36.05,328,350,371,393,0,9,9,9,9,0,,,,,4,0,4,0,0,50,50,17,,,,,num_4,0.7269363999948837,num_4,0.25,1.0,0.2,0.5,7.20859,18.02146,return,25.377255900006276,,,,,,,15,19,female,up_down_width,2023_Oct_17_1551,exp1,2021.2.3,59.916332830493715,
,,,,,,,,,,,,,,,,4,9.3,9.766666666666667,10.233333333333333,10.7,0,0.4666666666666667,0.3666666666666667,0.1,1.5,10,match,36.05,335,352,369,386,0,9,9,9,9,0,,,,,4,0,4,0,0,51,51,7,,,,,num_3,0.8988097999827005,num_3,0.1,0.4,0.1,0.65,3.60429,23.4279,return,1.8897405000170693,,,,,,,15,19,female,up_down_width,2023_Oct_17_1551,exp1,2021.2.3,59.916332830493715,
,,,,,,,,,,,,,,,,5,8.65,9.325,10,10.675,11.35,0.6749999999999999,0.575,0.1,2.8,10,match,36.05,312,336,361,385,409,9,9,9,9,9,,,,,4,0,4,0,0,52,52,31,,,,,num_4,0.991300499998033,num_4,0.2,0.8,0.10000000000000002,0.7,3.60429,25.23005,return,2.2659348000306636,,,,,,,15,19,female,up_down_width,2023_Oct_17_1551,exp1,2021.2.3,59.916332830493715,
,,,,,,,,,,,,,,,,4,9.25,9.75,10.25,10.75,0,0.5,0.25,0.25,1.75,10,initial,36.05,333,351,370,388,0,9,9,9,9,0,,,,,4,0,4,0,0,53,53,20,,,,,num_4,0.9246942000463605,num_4,0.15,0.4,0.2,0.6,7.20859,21.62576,return,2.4550888999947347,,,,,,,15,19,female,up_down_width,2023_Oct_17_1551,exp1,2021.2.3,59.916332830493715,
,,,,,,,,,,,,,,,,,,,,,,,,,,,,,,,,,,,,,,,,,,,4,0,4,0,,,,,,,,,,,,,,,,,,,,,,2468.6129484000267,None,2468.6129484000267,None,15,19,female,up_down_width,2023_Oct_17_1551,exp1,2021.2.3,59.916332830493715,
,,,,,,,,,,,,,,,,4,8.65,9.55,10.45,11.35,0,0.9,0.5,0.4,3.1,10,initial,36.05,312,344,377,409,0,9,9,9,9,0,,,,,5,0,5,0,0,0,0,34,,,,,num_3,1.579371200001333,num_3,0.4,1.3,0.30000000000000004,1.1,10.81288,39.64722,return,3.9143746999907307,,,,,,,15,19,female,up_down_width,2023_Oct_17_1551,exp1,2021.2.3,59.916332830493715,
,,,,,,,,,,,,,,,,3,9.5,10,10.5,0,0,0.5,0.09999999999999998,0.4,1.4000000000000001,10,initial,36.05,342,361,379,0,0,9,9,9,0,0,,,,,5,0,5,0,0,1,1,4,,,,,num_3,1.0520797000499442,num_3,0.45,0.8,0.35000000000000003,0.65,12.61502,23.4279,return,2.5104799999971874,,,,,,,15,19,female,up_down_width,2023_Oct_17_1551,exp1,2021.2.3,59.916332830493715,
,,,,,,,,,,,,,,,,4,9.25,9.75,10.25,10.75,0,0.5,0.4,0.1,1.6,10,initial,36.05,333,351,370,388,0,9,9,9,9,0,,,,,5,0,5,0,0,2,2,18,,,,,num_3,0.7670536999939941,num_3,0.3,1,0.3,0.8,10.81288,28.83434,return,2.975287900015246,,,,,,,15,19,female,up_down_width,2023_Oct_17_1551,exp1,2021.2.3,59.916332830493715,
,,,,,,,,,,,,,,,,4,9.1,9.7,10.3,10.9,0,0.6,0.5,0.1,1.9,10,match,36.05,328,350,371,393,0,9,9,9,9,0,,,,,5,0,5,0,0,3,3,13,,,,,num_3,1.8388986999634653,num_3,0.25,1.1,0.25,0.7,9.01073,25.23005,return,4.01958670001477,,,,,,,15,19,female,up_down_width,2023_Oct_17_1551,exp1,2021.2.3,59.916332830493715,
,,,,,,,,,,,,,,,,4,9.3,9.766666666666667,10.233333333333333,10.7,0,0.4666666666666667,0.3666666666666667,0.1,1.5,10,match,36.05,335,352,369,386,0,9,9,9,9,0,,,,,5,0,5,0,0,4,4,7,,,,,num_4,0.7941755999927409,num_4,0.25,0.9,0.15000000000000002,0.5,5.40644,18.02146,return,2.259632100001909,,,,,,,15,19,female,up_down_width,2023_Oct_17_1551,exp1,2021.2.3,59.916332830493715,
,,,,,,,,,,,,,,,,3,8.525,10,11.475,0,0,1.475,1.225,0.25,3.2,10,match,36.05,307,361,414,0,0,9,9,9,0,0,,,,,5,0,5,0,0,5,5,47,,,,,num_4,27.697843200003263,num_4,0.3,0.4,0.2,0.9,7.20859,32.43864,return,3.5336127000045963,,,,,,,15,19,female,up_down_width,2023_Oct_17_1551,exp1,2021.2.3,59.916332830493715,
,,,,,,,,,,,,,,,,4,9.25,9.75,10.25,10.75,0,0.5,0.25,0.25,1.75,10,initial,36.05,333,351,370,388,0,9,9,9,9,0,,,,,5,0,5,0,0,6,6,20,,,,,num_4,1.1881250999867916,num_4,0.3,1.0,0.2,0.6,7.20859,21.62576,return,2.9304879000410438,,,,,,,15,19,female,up_down_width,2023_Oct_17_1551,exp1,2021.2.3,59.916332830493715,
,,,,,,,,,,,,,,,,4,9.25,9.75,10.25,10.75,0,0.5,0.09999999999999998,0.4,1.9,10,initial,36.05,333,351,370,388,0,9,9,9,9,0,,,,,5,0,5,0,0,7,7,22,,,,,num_4,0.8164149000076577,num_4,0.35,0.6,0.2,0.6,7.20859,21.62576,return,2.7648447999963537,,,,,,,15,19,female,up_down_width,2023_Oct_17_1551,exp1,2021.2.3,59.916332830493715,
,,,,,,,,,,,,,,,,3,9.3,10,10.7,0,0,0.7,0.29999999999999993,0.4,1.8,10,initial,36.05,335,361,386,0,0,9,9,9,0,0,,,,,5,0,5,0,0,8,8,10,,,,,num_3,0.9482062999741174,num_3,0.2,0.7,0.3,0.65,10.81288,23.4279,return,2.867293299990706,,,,,,,15,19,female,up_down_width,2023_Oct_17_1551,exp1,2021.2.3,59.916332830493715,
,,,,,,,,,,,,,,,,5,9.175,9.5875,10,10.4125,10.825,0.4125,0.16249999999999998,0.25,1.9,10,match,36.05,331,346,361,375,390,9,9,9,9,9,,,,,5,0,5,0,0,9,9,23,,,,,num_5,0.8434832000057213,num_5,0.3,0.6,0.25,0.45,9.01073,16.21932,return,2.889083199959714,,,,,,,15,19,female,up_down_width,2023_Oct_17_1551,exp1,2021.2.3,59.916332830493715,
,,,,,,,,,,,,,,,,5,8.65,9.325,10,10.675,11.35,0.6749999999999999,0.575,0.1,2.8,10,match,36.05,312,336,361,385,409,9,9,9,9,9,,,,,5,0,5,0,0,10,10,31,,,,,num_4,1.6563077999744564,num_4,0.15,1.3,0.09999999999999999,0.8,3.60429,28.83434,return,2.75503340002615,,,,,,,15,19,female,up_down_width,2023_Oct_17_1551,exp1,2021.2.3,59.916332830493715,
,,,,,,,,,,,,,,,,4,9.5,9.833333333333334,10.166666666666666,10.5,0,0.33333333333333337,0.23333333333333336,0.1,1.1,10,match,36.05,342,354,367,379,0,9,9,9,9,0,,,,,5,0,5,0,0,11,11,1,,,,,num_3,1.1433276999741793,num_3,0.15,1.1,0.15,0.5,5.40644,18.02146,return,3.866226199956145,,,,,,,15,19,female,up_down_width,2023_Oct_17_1551,exp1,2021.2.3,59.916332830493715,
,,,,,,,,,,,,,,,,3,8.6,10,11.4,0,0,1.4,1.2999999999999998,0.1,2.9,10,match,36.05,310,361,411,0,0,9,9,9,0,0,,,,,5,0,5,0,0,12,12,43,,,,,num_3,0.8685269000125118,num_3,0.4,0.9,0.10000000000000007,1.25,3.60429,45.05366,return,3.9045881000347435,,,,,,,15,19,female,up_down_width,2023_Oct_17_1551,exp1,2021.2.3,59.916332830493715,
,,,,,,,,,,,,,,,,3,9.1,10,10.9,0,0,0.9,0.8,0.1,1.9000000000000001,10,initial,36.05,328,361,393,0,0,9,9,9,0,0,,,,,5,0,5,0,0,13,13,12,,,,,num_3,0.8295101000112481,num_3,0.25,1.3,0.10000000000000002,1.05,3.60429,37.84507,return,3.356397600029595,,,,,,,15,19,female,up_down_width,2023_Oct_17_1551,exp1,2021.2.3,59.916332830493715,
,,,,,,,,,,,,,,,,4,9.3,9.766666666666667,10.233333333333333,10.7,0,0.4666666666666667,0.21666666666666665,0.25,1.65,10,match,36.05,335,352,369,386,0,9,9,9,9,0,,,,,5,0,5,0,0,14,14,9,,,,,num_4,0.8874644999741577,num_4,0.3,0.4,0.2,0.5,7.20859,18.02146,return,1.8909239000058733,,,,,,,15,19,female,up_down_width,2023_Oct_17_1551,exp1,2021.2.3,59.916332830493715,
,,,,,,,,,,,,,,,,5,8.6,9.3,10,10.7,11.4,0.7,0.44999999999999996,0.25,3.05,10,initial,36.05,310,335,361,386,411,9,9,9,9,9,,,,,5,0,5,0,0,15,15,44,,,,,num_5,0.8733257999992929,num_5,0.2,0.7,0.15000000000000002,0.4,5.40644,14.41717,return,4.965802500024438,,,,,,,15,19,female,up_down_width,2023_Oct_17_1551,exp1,2021.2.3,59.916332830493715,
,,,,,,,,,,,,,,,,4,8.95,9.65,10.35,11.05,0,0.7,0.29999999999999993,0.4,2.5,10,initial,36.05,323,348,373,398,0,9,9,9,9,0,,,,,5,0,5,0,0,16,16,28,,,,,num_4,2.9274835000396706,num_4,0.2,1.3,0.25,0.6,9.01073,21.62576,return,4.4390889999922365,,,,,,,15,19,female,up_down_width,2023_Oct_17_1551,exp1,2021.2.3,59.916332830493715,
,,,,,,,,,,,,,,,,3,8.2,10,11.8,0,0,1.7999999999999998,1.4,0.4,4,10,match,36.05,296,361,425,0,0,9,9,9,0,0,,,,,5,0,5,0,0,17,17,53,,,,,num_3,0.9225723999552429,num_3,0.4,0.9,0.30000000000000004,1.0,10.81288,36.04293,return,5.189496600010898,,,,,,,15,19,female,up_down_width,2023_Oct_17_1551,exp1,2021.2.3,59.916332830493715,
,,,,,,,,,,,,,,,,5,8.6,9.3,10,10.7,11.4,0.7,0.29999999999999993,0.4,3.1999999999999997,10,initial,36.05,310,335,361,386,411,9,9,9,9,9,,,,,5,0,5,0,0,18,18,46,,,,,num_4,1.0572761000366881,num_4,0.15,1.0,0.25,0.7,9.01073,25.23005,return,5.044328099989798,,,,,,,15,19,female,up_down_width,2023_Oct_17_1551,exp1,2021.2.3,59.916332830493715,
,,,,,,,,,,,,,,,,5,8.2,9.1,10,10.9,11.8,0.9,0.5,0.4,4,10,initial,36.05,296,328,361,393,425,9,9,9,9,9,,,,,5,0,5,0,0,19,19,52,,,,,num_5,0.8632911999593489,num_5,0.15,1.3,0.2,0.55,7.20859,19.82361,return,5.179058799985796,,,,,,,15,19,female,up_down_width,2023_Oct_17_1551,exp1,2021.2.3,59.916332830493715,
,,,,,,,,,,,,,,,,5,8.2,9.1,10,10.9,11.8,0.9,0.65,0.25,3.85,10,initial,36.05,296,328,361,393,425,9,9,9,9,9,,,,,5,0,5,0,0,20,20,50,,,,,num_5,0.8782214000239037,num_5,0.35,0.7,0.2,0.7,7.20859,25.23005,return,2.0735206999816,,,,,,,15,19,female,up_down_width,2023_Oct_17_1551,exp1,2021.2.3,59.916332830493715,
,,,,,,,,,,,,,,,,5,9,9.5,10,10.5,11,0.5,0.4,0.1,2.1,10,initial,36.05,324,342,361,379,397,9,9,9,9,9,,,,,5,0,5,0,0,21,21,36,,,,,num_4,0.9732947000302374,num_4,0.2,0.5,0.10000000000000002,0.5,3.60429,18.02146,return,2.418856300006155,,,,,,,15,19,female,up_down_width,2023_Oct_17_1551,exp1,2021.2.3,59.916332830493715,
,,,,,,,,,,,,,,,,5,8.95,9.475,10,10.525,11.05,0.525,0.275,0.25,2.35,10,match,36.05,323,342,361,379,398,9,9,9,9,9,,,,,5,0,5,0,0,22,22,27,,,,,num_4,0.7808016000199132,num_4,0.4,1.3,0.20000000000000007,0.6,7.20859,21.62576,return,3.9157259999774396,,,,,,,15,19,female,up_down_width,2023_Oct_17_1551,exp1,2021.2.3,59.916332830493715,
