amount_p,posx1_p,posx2_p,posx3_p,posx4_p,posx5_p,center_to_center_p,edge_to_edge_p,w_p,stim_lengt_p,eccentricity_p,line1_p,line2_p,line3_p,line4_p,line5_p,amount,posx1,posx2,posx3,posx4,posx5,center_to_center,edge_to_edge,w,stim_length,eccentricity,trial_type,deg_to_pix_index,posx1_in_pix,posx2_in_pix,posx3_in_pix,posx4_in_pix,posx5_in_pix,line1,line2,line3,line4,line5,trials.thisRepN,trials.thisTrialN,trials.thisN,trials.thisIndex,blocks.thisRepN,blocks.thisTrialN,blocks.thisN,blocks.thisIndex,loop.thisRepN,loop.thisTrialN,loop.thisN,loop.thisIndex,key_resp_3.keys,key_resp_3.rt,key_resp_3.started,key_resp_3.stopped,key_resp.keys,key_resp.rt,response,starting_width_deg,starting_space_deg,response_width_degree,response_spacing_degree,response_width_pixel,response_spacing_pixel,next_5.keys,next_5.rt,key_resp_4.keys,key_resp_4.rt,text_3.started,text_3.stopped,text_4.started,text_4.stopped,participant,age,gender,resp_group,date,expName,psychopyVersion,frameRate,
,,,,,,,,,,,,,,,,,,,,,,,,,,,,,,,,,,,,,,,,,,,,,,,,,,,c,36.912647999997716,26.256154700007755,None,,,,,,,,,,,,,,,,,,16,21,female,left_right_width,2023_Oct_17_1443,exp1,2021.2.3,60.01666061211096,
4,8.65,9.55,10.45,11.35,0,0.9,0.5,0.4,3.1,10,9,9,9,9,0,,,,,,,,,,,,,,,,,,,,,,,,0,0,0,5,,,,,,,,,,,,,num_3,7.852731999999378,num_3,0.35,1,0.25,0.9,9.01073,32.43864,return,16.430915699980687,,,,,,,16,21,female,left_right_width,2023_Oct_17_1443,exp1,2021.2.3,60.01666061211096,
4,9.25,9.75,10.25,10.75,0,0.5,0.25,0.25,1.75,10,9,9,9,9,0,,,,,,,,,,,,,,,,,,,,,,,,0,1,1,4,,,,,,,,,,,,,num_3,3.842951000027824,num_3,0.1,0.8,0.15000000000000002,0.5,5.40644,18.02146,return,12.69397389999358,,,,,,,16,21,female,left_right_width,2023_Oct_17_1443,exp1,2021.2.3,60.01666061211096,
5,8.6,9.3,10,10.7,11.4,0.7,0.29999999999999993,0.4,3.1999999999999997,10,9,9,9,9,9,,,,,,,,,,,,,,,,,,,,,,,,0,2,2,7,,,,,,,,,,,,,num_4,3.8811102000181563,num_4,0.15,0.9,0.3,0.8,10.81288,28.83434,return,5.900267800025176,,,,,,,16,21,female,left_right_width,2023_Oct_17_1443,exp1,2021.2.3,60.01666061211096,
3,8.2,10,11.8,0,0,1.7999999999999998,1.4,0.4,4,10,9,9,9,0,0,,,,,,,,,,,,,,,,,,,,,,,,0,3,3,2,,,,,,,,,,,,,num_3,4.177715600002557,num_3,0.4,0.8,0.30000000000000004,0.95,10.81288,34.24078,return,7.0490108000230975,,,,,,,16,21,female,left_right_width,2023_Oct_17_1443,exp1,2021.2.3,60.01666061211096,
5,9.25,9.625,10,10.375,10.75,0.375,0.125,0.25,1.75,10,9,9,9,9,9,,,,,,,,,,,,,,,,,,,,,,,,0,4,4,6,,,,,,,,,,,,,num_4,6.418111399980262,num_4,0.45,0.6,0.35000000000000003,0.5,12.61502,18.02146,return,9.055767000012565,,,,,,,16,21,female,left_right_width,2023_Oct_17_1443,exp1,2021.2.3,60.01666061211096,
3,9,10,11,0,0,1,0.9,0.1,2.1,10,9,9,9,0,0,,,,,,,,,,,,,,,,,,,,,,,,0,5,5,1,,,,,,,,,,,,,num_3,3.138938199961558,num_3,0.1,0.3,0.10000000000000002,0.7,3.60429,25.23005,return,10.533949600008782,,,,,,,16,21,female,left_right_width,2023_Oct_17_1443,exp1,2021.2.3,60.01666061211096,
3,9.5,10,10.5,0,0,0.5,0.4,0.1,1.1,10,9,9,9,0,0,,,,,,,,,,,,,,,,,,,,,,,,0,6,6,0,,,,,,,,,,,,,num_3,3.6956187000032514,num_3,0.2,1,0.10000000000000002,0.9,3.60429,32.43864,return,7.431734499987215,,,,,,,16,21,female,left_right_width,2023_Oct_17_1443,exp1,2021.2.3,60.01666061211096,
5,9,9.5,10,10.5,11,0.5,0.09999999999999998,0.4,2.4,10,9,9,9,9,9,,,,,,,,,,,,,,,,,,,,,,,,0,7,7,8,,,,,,,,,,,,,num_5,4.212540399981663,num_5,0.3,0.9,0.39999999999999997,0.75,14.41717,27.0322,return,6.601572800020222,,,,,,,16,21,female,left_right_width,2023_Oct_17_1443,exp1,2021.2.3,60.01666061211096,
4,9.5,9.833333333333334,10.166666666666666,10.5,0,0.33333333333333337,0.23333333333333336,0.1,1.1,10,9,9,9,9,0,,,,,,,,,,,,,,,,,,,,,,,,0,8,8,3,,,,,,,,,,,,,num_4,4.383549899968784,num_4,0.4,0.5,0.15000000000000008,0.9,5.40644,32.43864,return,10.47888970002532,,,,,,,16,21,female,left_right_width,2023_Oct_17_1443,exp1,2021.2.3,60.01666061211096,
,,,,,,,,,,,,,,,,,,,,,,,,,,,,,,,,,,,,,,,,,,,,,,,,,,,,,,,,,,,,,,,,,,c,101.5624078999972,,,,,16,21,female,left_right_width,2023_Oct_17_1443,exp1,2021.2.3,60.01666061211096,
,,,,,,,,,,,,,,,,5,8.95,9.475,10,10.525,11.05,0.525,0.275,0.25,2.35,10,match,36.05,323,342,361,379,398,9,9,9,9,9,,,,,0,0,0,0,0,0,0,27,,,,,num_4,1.7696832999936305,num_4,0.35,1.1,0.25,0.7,9.01073,25.23005,return,5.265608499990776,,,,,,,16,21,female,left_right_width,2023_Oct_17_1443,exp1,2021.2.3,60.01666061211096,
,,,,,,,,,,,,,,,,3,9.3,10,10.7,0,0,0.7,0.29999999999999993,0.4,1.8,10,initial,36.05,335,361,386,0,0,9,9,9,0,0,,,,,0,0,0,0,0,1,1,10,,,,,num_3,2.4817712000221945,num_3,0.15,0.4,0.3,0.75,10.81288,27.0322,return,5.918566400010604,,,,,,,16,21,female,left_right_width,2023_Oct_17_1443,exp1,2021.2.3,60.01666061211096,
,,,,,,,,,,,,,,,,4,9.25,9.75,10.25,10.75,0,0.5,0.25,0.25,1.75,10,initial,36.05,333,351,370,388,0,9,9,9,9,0,,,,,0,0,0,0,0,2,2,20,,,,,num_4,1.5555654999916442,num_4,0.4,0.8,0.35000000000000003,0.8,12.61502,28.83434,return,4.802802599966526,,,,,,,16,21,female,left_right_width,2023_Oct_17_1443,exp1,2021.2.3,60.01666061211096,
,,,,,,,,,,,,,,,,5,8.65,9.325,10,10.675,11.35,0.675,0.42500000000000004,0.25,2.95,10,match,36.05,312,336,361,385,409,9,9,9,9,9,,,,,0,0,0,0,0,3,3,33,,,,,num_5,1.7668245999957435,num_5,0.35,0.8,0.25,0.8,9.01073,28.83434,return,3.9991859000292607,,,,,,,16,21,female,left_right_width,2023_Oct_17_1443,exp1,2021.2.3,60.01666061211096,
,,,,,,,,,,,,,,,,4,8.65,9.55,10.45,11.35,0,0.9,0.5,0.4,3.1,10,initial,36.05,312,344,377,409,0,9,9,9,9,0,,,,,0,0,0,0,0,4,4,34,,,,,num_4,2.7542436000076123,num_4,0.15,0.9,0.35,0.9,12.61502,32.43864,return,3.2016862999880686,,,,,,,16,21,female,left_right_width,2023_Oct_17_1443,exp1,2021.2.3,60.01666061211096,
,,,,,,,,,,,,,,,,3,9.1,10,10.9,0,0,0.9,0.8,0.1,1.9000000000000001,10,initial,36.05,328,361,393,0,0,9,9,9,0,0,,,,,0,0,0,0,0,5,5,12,,,,,num_3,1.10753839998506,num_3,0.45,0.6,0.10000000000000007,0.95,3.60429,34.24078,return,4.501512599992566,,,,,,,16,21,female,left_right_width,2023_Oct_17_1443,exp1,2021.2.3,60.01666061211096,
,,,,,,,,,,,,,,,,4,9.3,9.766666666666667,10.233333333333333,10.7,0,0.4666666666666667,0.3666666666666667,0.1,1.5,10,match,36.05,335,352,369,386,0,9,9,9,9,0,,,,,0,0,0,0,0,6,6,7,,,,,num_4,1.5449303000350483,num_4,0.45,0.8,0.10000000000000007,0.9,3.60429,32.43864,return,7.097803300013766,,,,,,,16,21,female,left_right_width,2023_Oct_17_1443,exp1,2021.2.3,60.01666061211096,
,,,,,,,,,,,,,,,,3,9.1,10,10.9,0,0,0.9,0.5,0.4,2.2,10,initial,36.05,328,361,393,0,0,9,9,9,0,0,,,,,0,0,0,0,0,7,7,16,,,,,num_3,3.174849800008815,num_3,0.3,1.3,0.49999999999999994,1.3,18.02146,46.85581,return,2.2606293999706395,,,,,,,16,21,female,left_right_width,2023_Oct_17_1443,exp1,2021.2.3,60.01666061211096,
,,,,,,,,,,,,,,,,5,8.95,9.475,10,10.525,11.05,0.525,0.125,0.4,2.5,10,match,36.05,323,342,361,379,398,9,9,9,9,9,,,,,0,0,0,0,0,8,8,29,,,,,num_5,1.9990583000471815,num_5,0.35,0.9,0.44999999999999996,0.7,16.21932,25.23005,return,3.7736706999712624,,,,,,,16,21,female,left_right_width,2023_Oct_17_1443,exp1,2021.2.3,60.01666061211096,
,,,,,,,,,,,,,,,,3,9,10,11,0,0,0.9999999999999999,0.5999999999999999,0.4,2.4,10,match,36.05,324,361,397,0,0,9,9,9,0,0,,,,,0,0,0,0,0,9,9,41,,,,,num_3,1.3738226999994367,num_3,0.2,0.9,0.44999999999999996,0.95,16.21932,34.24078,return,5.444961500004865,,,,,,,16,21,female,left_right_width,2023_Oct_17_1443,exp1,2021.2.3,60.01666061211096,
,,,,,,,,,,,,,,,,3,9.5,10,10.5,0,0,0.5,0.25,0.25,1.25,10,initial,36.05,342,361,379,0,0,9,9,9,0,0,,,,,0,0,0,0,0,10,10,2,,,,,num_3,1.9062885000021197,num_3,0.3,0.6,0.3,0.65,10.81288,23.4279,return,2.449586500006262,,,,,,,16,21,female,left_right_width,2023_Oct_17_1443,exp1,2021.2.3,60.01666061211096,
,,,,,,,,,,,,,,,,5,8.6,9.3,10,10.7,11.4,0.7,0.6,0.1,2.9,10,initial,36.05,310,335,361,386,411,9,9,9,9,9,,,,,0,0,0,0,0,11,11,42,,,,,num_5,1.3978994999779388,num_5,0.4,0.5,0.10000000000000007,0.75,3.60429,27.0322,return,8.076199600007385,,,,,,,16,21,female,left_right_width,2023_Oct_17_1443,exp1,2021.2.3,60.01666061211096,
,,,,,,,,,,,,,,,,3,9.3,10,10.7,0,0,0.7,0.6,0.1,1.5,10,initial,36.05,335,361,386,0,0,9,9,9,0,0,,,,,0,0,0,0,0,12,12,6,,,,,num_3,1.1902614000136964,num_3,0.15,0.6,0.09999999999999999,0.7,3.60429,25.23005,return,3.8935291999951005,,,,,,,16,21,female,left_right_width,2023_Oct_17_1443,exp1,2021.2.3,60.01666061211096,
,,,,,,,,,,,,,,,,4,8.65,9.55,10.45,11.35,0,0.9,0.65,0.25,2.95,10,initial,36.05,312,344,377,409,0,9,9,9,9,0,,,,,0,0,0,0,0,13,13,32,,,,,num_4,1.0883791000233032,num_4,0.35,1.0,0.2,1.0,7.20859,36.04293,return,3.6507896999828517,,,,,,,16,21,female,left_right_width,2023_Oct_17_1443,exp1,2021.2.3,60.01666061211096,
,,,,,,,,,,,,,,,,4,9.25,9.75,10.25,10.75,0,0.5,0.09999999999999998,0.4,1.9,10,initial,36.05,333,351,370,388,0,9,9,9,9,0,,,,,0,0,0,0,0,14,14,22,,,,,num_4,1.4021317000151612,num_4,0.25,0.8,0.5499999999999999,0.7,19.82361,25.23005,return,5.3608968000044115,,,,,,,16,21,female,left_right_width,2023_Oct_17_1443,exp1,2021.2.3,60.01666061211096,
,,,,,,,,,,,,,,,,3,8.6,10,11.4,0,0,1.4,1.2999999999999998,0.1,2.9,10,match,36.05,310,361,411,0,0,9,9,9,0,0,,,,,0,0,0,0,0,15,15,43,,,,,num_3,1.143049800011795,num_3,0.45,1,0.10000000000000007,1.0,3.60429,36.04293,return,5.49640519998502,,,,,,,16,21,female,left_right_width,2023_Oct_17_1443,exp1,2021.2.3,60.01666061211096,
,,,,,,,,,,,,,,,,4,8.95,9.65,10.35,11.05,0,0.7,0.6,0.1,2.1999999999999997,10,initial,36.05,323,348,373,398,0,9,9,9,9,0,,,,,0,0,0,0,0,16,16,24,,,,,num_4,1.2208714000298642,num_4,0.35,1.0,0.05000000000000002,1.1,1.80215,39.64722,return,3.892558099993039,,,,,,,16,21,female,left_right_width,2023_Oct_17_1443,exp1,2021.2.3,60.01666061211096,
,,,,,,,,,,,,,,,,5,9.175,9.5875,10,10.4125,10.825,0.4125,0.16249999999999998,0.25,1.9,10,match,36.05,331,346,361,375,390,9,9,9,9,9,,,,,0,0,0,0,0,17,17,23,,,,,num_6,1.3758884000126272,num_6,0.15,1.0,0.25,0.8,9.01073,28.83434,return,4.103350299992599,,,,,,,16,21,female,left_right_width,2023_Oct_17_1443,exp1,2021.2.3,60.01666061211096,
,,,,,,,,,,,,,,,,5,8.65,9.325,10,10.675,11.35,0.6749999999999999,0.575,0.1,2.8,10,match,36.05,312,336,361,385,409,9,9,9,9,9,,,,,0,0,0,0,0,18,18,31,,,,,num_5,1.1943448000238277,num_5,0.1,1.3,0.10000000000000002,1.1,3.60429,39.64722,return,6.456305200001225,,,,,,,16,21,female,left_right_width,2023_Oct_17_1443,exp1,2021.2.3,60.01666061211096,
,,,,,,,,,,,,,,,,5,9,9.5,10,10.5,11,0.5,0.09999999999999998,0.4,2.4,10,initial,36.05,324,342,361,379,397,9,9,9,9,9,,,,,0,0,0,0,0,19,19,40,,,,,num_4,1.4916586999897845,num_4,0.45,0.7,0.45,0.9,16.21932,32.43864,return,2.4050438000122085,,,,,,,16,21,female,left_right_width,2023_Oct_17_1443,exp1,2021.2.3,60.01666061211096,
,,,,,,,,,,,,,,,,5,8.2,9.1,10,10.9,11.8,0.9,0.65,0.25,3.85,10,initial,36.05,296,328,361,393,425,9,9,9,9,9,,,,,0,0,0,0,0,20,20,50,,,,,num_5,2.509046200022567,num_5,0.15,1.2,0.3,1.2,10.81288,43.25151,return,2.7753228000365198,,,,,,,16,21,female,left_right_width,2023_Oct_17_1443,exp1,2021.2.3,60.01666061211096,
,,,,,,,,,,,,,,,,4,8.65,9.55,10.45,11.35,0,0.9,0.8,0.1,2.8000000000000003,10,initial,36.05,312,344,377,409,0,9,9,9,9,0,,,,,0,0,0,0,0,21,21,30,,,,,num_4,1.3389984000241384,num_4,0.25,0.4,0.15000000000000002,0.9,5.40644,32.43864,return,8.245474199997261,,,,,,,16,21,female,left_right_width,2023_Oct_17_1443,exp1,2021.2.3,60.01666061211096,
,,,,,,,,,,,,,,,,3,9.1,10,10.9,0,0,0.9,0.65,0.25,2.05,10,initial,36.05,328,361,393,0,0,9,9,9,0,0,,,,,0,0,0,0,0,22,22,14,,,,,num_4,1.1529562000068836,num_4,0.4,1.0,0.25000000000000006,1.1,9.01073,39.64722,return,4.7220937999663875,,,,,,,16,21,female,left_right_width,2023_Oct_17_1443,exp1,2021.2.3,60.01666061211096,
,,,,,,,,,,,,,,,,4,9.1,9.7,10.3,10.9,0,0.6000000000000001,0.20000000000000004,0.4,2.2,10,match,36.05,328,350,371,393,0,9,9,9,9,0,,,,,0,0,0,0,0,23,23,17,,,,,num_4,1.5051485000294633,num_4,0.3,0.5,0.35,0.7,12.61502,25.23005,return,4.0513069000444375,,,,,,,16,21,female,left_right_width,2023_Oct_17_1443,exp1,2021.2.3,60.01666061211096,
,,,,,,,,,,,,,,,,3,9,10,11,0,0,1,0.9,0.1,2.1,10,match,36.05,324,361,397,0,0,9,9,9,0,0,,,,,0,0,0,0,0,24,24,37,,,,,num_3,1.5143786999979056,num_3,0.2,0.5,0.10000000000000002,0.9,3.60429,32.43864,return,7.388218700012658,,,,,,,16,21,female,left_right_width,2023_Oct_17_1443,exp1,2021.2.3,60.01666061211096,
,,,,,,,,,,,,,,,,3,8.525,10,11.475,0,0,1.475,1.225,0.25,3.2,10,match,36.05,307,361,414,0,0,9,9,9,0,0,,,,,0,0,0,0,0,25,25,47,,,,,num_3,1.9335548999952152,num_3,0.2,1.1,0.3,1.15,10.81288,41.44937,return,3.132893400033936,,,,,,,16,21,female,left_right_width,2023_Oct_17_1443,exp1,2021.2.3,60.01666061211096,
,,,,,,,,,,,,,,,,4,9.425,9.808333333333334,10.191666666666666,10.575,0,0.3833333333333333,0.1333333333333333,0.25,1.4,10,match,36.05,340,354,367,381,0,9,9,9,9,0,,,,,0,0,0,0,0,26,26,5,,,,,num_4,1.5829218999715522,num_4,0.2,0.9,0.25,0.4,9.01073,14.41717,return,7.4222659999504685,,,,,,,16,21,female,left_right_width,2023_Oct_17_1443,exp1,2021.2.3,60.01666061211096,
,,,,,,,,,,,,,,,,5,8.6,9.3,10,10.7,11.4,0.7,0.44999999999999996,0.25,3.05,10,initial,36.05,310,335,361,386,411,9,9,9,9,9,,,,,0,0,0,0,0,27,27,44,,,,,num_6,1.654338699998334,num_6,0.35,0.5,0.25,0.8,9.01073,28.83434,return,3.4413869000272825,,,,,,,16,21,female,left_right_width,2023_Oct_17_1443,exp1,2021.2.3,60.01666061211096,
,,,,,,,,,,,,,,,,4,9.25,9.75,10.25,10.75,0,0.5,0.4,0.1,1.6,10,initial,36.05,333,351,370,388,0,9,9,9,9,0,,,,,0,0,0,0,0,28,28,18,,,,,num_4,0.9978140000021085,num_4,0.3,0.7,0.2,0.8,7.20859,28.83434,return,4.269284699985292,,,,,,,16,21,female,left_right_width,2023_Oct_17_1443,exp1,2021.2.3,60.01666061211096,
,,,,,,,,,,,,,,,,3,9.5,10,10.5,0,0,0.5,0.09999999999999998,0.4,1.4000000000000001,10,initial,36.05,342,361,379,0,0,9,9,9,0,0,,,,,0,0,0,0,0,29,29,4,,,,,num_3,1.4131131999893114,num_3,0.2,1,0.44999999999999996,0.7,16.21932,25.23005,return,5.962349100038409,,,,,,,16,21,female,left_right_width,2023_Oct_17_1443,exp1,2021.2.3,60.01666061211096,
,,,,,,,,,,,,,,,,4,9.3,9.766666666666667,10.233333333333333,10.7,0,0.4666666666666667,0.06666666666666665,0.4,1.8,10,match,36.05,335,352,369,386,0,9,9,9,9,0,,,,,0,0,0,0,0,30,30,11,,,,,num_4,5.695867500035092,num_4,0.2,0.3,0.49999999999999994,0.7,18.02146,25.23005,return,9.258829700003844,,,,,,,16,21,female,left_right_width,2023_Oct_17_1443,exp1,2021.2.3,60.01666061211096,
,,,,,,,,,,,,,,,,3,9.3,10,10.7,0,0,0.7,0.44999999999999996,0.25,1.65,10,initial,36.05,335,361,386,0,0,9,9,9,0,0,,,,,0,0,0,0,0,31,31,8,,,,,num_3,2.398832799983211,num_3,0.25,0.9,0.49999999999999994,0.9,18.02146,32.43864,return,3.742014300019946,,,,,,,16,21,female,left_right_width,2023_Oct_17_1443,exp1,2021.2.3,60.01666061211096,
,,,,,,,,,,,,,,,,3,9.5,10,10.5,0,0,0.5,0.4,0.1,1.1,10,initial,36.05,342,361,379,0,0,9,9,9,0,0,,,,,0,0,0,0,0,32,32,0,,,,,num_4,1.637121100036893,num_4,0.25,1.1,0.10000000000000002,0.6,3.60429,21.62576,return,4.690064999973401,,,,,,,16,21,female,left_right_width,2023_Oct_17_1443,exp1,2021.2.3,60.01666061211096,
,,,,,,,,,,,,,,,,5,9.25,9.625,10,10.375,10.75,0.375,0.125,0.25,1.75,10,match,36.05,333,347,361,374,388,9,9,9,9,9,,,,,0,0,0,0,0,33,33,21,,,,,num_6,1.4630579000222497,num_6,0.1,1.3,0.35,0.6,12.61502,21.62576,return,6.939021099999081,,,,,,,16,21,female,left_right_width,2023_Oct_17_1443,exp1,2021.2.3,60.01666061211096,
,,,,,,,,,,,,,,,,4,8.95,9.65,10.35,11.05,0,0.7,0.44999999999999996,0.25,2.3499999999999996,10,initial,36.05,323,348,373,398,0,9,9,9,9,0,,,,,0,0,0,0,0,34,34,26,,,,,num_5,2.4242995000095107,num_5,0.2,0.9,0.2,0.6,7.20859,21.62576,return,4.565253100008704,,,,,,,16,21,female,left_right_width,2023_Oct_17_1443,exp1,2021.2.3,60.01666061211096,
,,,,,,,,,,,,,,,,3,8.6,10,11.4,0,0,1.4,1.15,0.25,3.05,10,match,36.05,310,361,411,0,0,9,9,9,0,0,,,,,0,0,0,0,0,35,35,45,,,,,num_3,0.9443915000301786,num_3,0.15,0.9,0.25,1.45,9.01073,52.26225,return,4.473402899981011,,,,,,,16,21,female,left_right_width,2023_Oct_17_1443,exp1,2021.2.3,60.01666061211096,
,,,,,,,,,,,,,,,,3,8.2,10,11.8,0,0,1.8,1.55,0.25,3.85,10,match,36.05,296,361,425,0,0,9,9,9,0,0,,,,,0,0,0,0,0,36,36,51,,,,,num_3,1.4369158999761567,num_3,0.2,0.7,0.2,1.55,7.20859,55.86654,return,6.6078123999759555,,,,,,,16,21,female,left_right_width,2023_Oct_17_1443,exp1,2021.2.3,60.01666061211096,
,,,,,,,,,,,,,,,,4,9.1,9.7,10.3,10.9,0,0.6,0.5,0.1,1.9,10,match,36.05,328,350,371,393,0,9,9,9,9,0,,,,,0,0,0,0,0,37,37,13,,,,,num_4,1.520331800042186,num_4,0.45,0.7,0.10000000000000007,1.0,3.60429,36.04293,return,8.305125900020357,,,,,,,16,21,female,left_right_width,2023_Oct_17_1443,exp1,2021.2.3,60.01666061211096,
,,,,,,,,,,,,,,,,3,8.2,10,11.8,0,0,1.8000000000000003,1.7000000000000002,0.1,3.7,10,match,36.05,296,361,425,0,0,9,9,9,0,0,,,,,0,0,0,0,0,38,38,49,,,,,num_3,1.0863489000475965,num_3,0.35,0.4,0.10000000000000002,1.95,3.60429,70.28371,return,8.097448299988173,,,,,,,16,21,female,left_right_width,2023_Oct_17_1443,exp1,2021.2.3,60.01666061211096,
,,,,,,,,,,,,,,,,3,9,10,11,0,0,1,0.75,0.25,2.25,10,match,36.05,324,361,397,0,0,9,9,9,0,0,,,,,0,0,0,0,0,39,39,39,,,,,num_3,1.0226193999988027,num_3,0.25,0.3,0.2,1.7,7.20859,61.27298,return,10.08313410001574,,,,,,,16,21,female,left_right_width,2023_Oct_17_1443,exp1,2021.2.3,60.01666061211096,
,,,,,,,,,,,,,,,,4,9.1,9.7,10.3,10.9,0,0.5999999999999999,0.3499999999999999,0.25,2.05,10,match,36.05,328,350,371,393,0,9,9,9,9,0,,,,,0,0,0,0,0,40,40,15,,,,,num_4,1.219625299971085,num_4,0.1,0.5,0.3,0.6,10.81288,21.62576,return,2.8643502999912016,,,,,,,16,21,female,left_right_width,2023_Oct_17_1443,exp1,2021.2.3,60.01666061211096,
,,,,,,,,,,,,,,,,5,9.25,9.625,10,10.375,10.75,0.375,0.275,0.1,1.6,10,match,36.05,333,347,361,374,388,9,9,9,9,9,,,,,0,0,0,0,0,41,41,19,,,,,num_5,2.1517574000172317,num_5,0.1,1.3,0.15000000000000002,0.45,5.40644,16.21932,return,6.8786606000503525,,,,,,,16,21,female,left_right_width,2023_Oct_17_1443,exp1,2021.2.3,60.01666061211096,
,,,,,,,,,,,,,,,,5,9,9.5,10,10.5,11,0.5,0.25,0.25,2.25,10,initial,36.05,324,342,361,379,397,9,9,9,9,9,,,,,0,0,0,0,0,42,42,38,,,,,num_6,1.7483319000457413,num_6,0.45,0.5,0.25000000000000006,0.7,9.01073,25.23005,return,5.660958099993877,,,,,,,16,21,female,left_right_width,2023_Oct_17_1443,exp1,2021.2.3,60.01666061211096,
,,,,,,,,,,,,,,,,4,9.3,9.766666666666667,10.233333333333333,10.7,0,0.4666666666666667,0.21666666666666665,0.25,1.65,10,match,36.05,335,352,369,386,0,9,9,9,9,0,,,,,0,0,0,0,0,43,43,9,,,,,num_5,3.5819956999621354,num_5,0.15,0.8,0.35,0.65,12.61502,23.4279,return,4.013487000018358,,,,,,,16,21,female,left_right_width,2023_Oct_17_1443,exp1,2021.2.3,60.01666061211096,
,,,,,,,,,,,,,,,,3,8.2,10,11.8,0,0,1.7999999999999998,1.4,0.4,4,10,match,36.05,296,361,425,0,0,9,9,9,0,0,,,,,0,0,0,0,0,44,44,53,,,,,num_3,1.225797000050079,num_3,0.3,0.7,0.3,1.7,10.81288,61.27298,return,7.512209600012284,,,,,,,16,21,female,left_right_width,2023_Oct_17_1443,exp1,2021.2.3,60.01666061211096,
,,,,,,,,,,,,,,,,5,8.6,9.3,10,10.7,11.4,0.7,0.29999999999999993,0.4,3.1999999999999997,10,initial,36.05,310,335,361,386,411,9,9,9,9,9,,,,,0,0,0,0,0,45,45,46,,,,,num_5,1.1799037999589927,num_5,0.1,0.8,0.44999999999999996,0.8,16.21932,28.83434,return,4.779007899982389,,,,,,,16,21,female,left_right_width,2023_Oct_17_1443,exp1,2021.2.3,60.01666061211096,
,,,,,,,,,,,,,,,,5,8.65,9.325,10,10.675,11.35,0.675,0.275,0.4,3.1,10,match,36.05,312,336,361,385,409,9,9,9,9,9,,,,,0,0,0,0,0,46,46,35,,,,,num_5,2.034915199968964,num_5,0.2,0.6,0.39999999999999997,0.75,14.41717,27.0322,return,2.944097699946724,,,,,,,16,21,female,left_right_width,2023_Oct_17_1443,exp1,2021.2.3,60.01666061211096,
,,,,,,,,,,,,,,,,4,9.5,9.833333333333334,10.166666666666666,10.5,0,0.3333333333333333,0.08333333333333333,0.25,1.25,10,match,36.05,342,354,367,379,0,9,9,9,9,0,,,,,0,0,0,0,0,47,47,3,,,,,num_4,1.533506799954921,num_4,0.4,0.9,0.35000000000000003,0.5,12.61502,18.02146,return,4.495431900024414,,,,,,,16,21,female,left_right_width,2023_Oct_17_1443,exp1,2021.2.3,60.01666061211096,
,,,,,,,,,,,,,,,,5,8.95,9.475,10,10.525,11.05,0.525,0.42500000000000004,0.1,2.2,10,match,36.05,323,342,361,379,398,9,9,9,9,9,,,,,0,0,0,0,0,48,48,25,,,,,num_5,2.440414000011515,num_5,0.35,0.7,0.15000000000000002,0.5,5.40644,18.02146,return,5.268784400017466,,,,,,,16,21,female,left_right_width,2023_Oct_17_1443,exp1,2021.2.3,60.01666061211096,
,,,,,,,,,,,,,,,,5,8.2,9.1,10,10.9,11.8,0.9,0.8,0.1,3.7,10,initial,36.05,296,328,361,393,425,9,9,9,9,9,,,,,0,0,0,0,0,49,49,48,,,,,num_5,1.1639590000268072,num_5,0.25,0.9,0.10000000000000002,1.45,3.60429,52.26225,return,6.668842600018252,,,,,,,16,21,female,left_right_width,2023_Oct_17_1443,exp1,2021.2.3,60.01666061211096,
,,,,,,,,,,,,,,,,4,8.95,9.65,10.35,11.05,0,0.7,0.29999999999999993,0.4,2.5,10,initial,36.05,323,348,373,398,0,9,9,9,9,0,,,,,0,0,0,0,0,50,50,28,,,,,num_4,0.862595800019335,num_4,0.4,1.1,0.4,0.8,14.41717,28.83434,return,2.507917399983853,,,,,,,16,21,female,left_right_width,2023_Oct_17_1443,exp1,2021.2.3,60.01666061211096,
,,,,,,,,,,,,,,,,5,9,9.5,10,10.5,11,0.5,0.4,0.1,2.1,10,initial,36.05,324,342,361,379,397,9,9,9,9,9,,,,,0,0,0,0,0,51,51,36,,,,,num_6,1.2295202999957837,num_6,0.25,0.4,0.15000000000000002,0.6,5.40644,21.62576,return,5.067206699983217,,,,,,,16,21,female,left_right_width,2023_Oct_17_1443,exp1,2021.2.3,60.01666061211096,
,,,,,,,,,,,,,,,,4,9.5,9.833333333333334,10.166666666666666,10.5,0,0.33333333333333337,0.23333333333333336,0.1,1.1,10,match,36.05,342,354,367,379,0,9,9,9,9,0,,,,,0,0,0,0,0,52,52,1,,,,,num_4,1.011077600007411,num_4,0.3,0.3,0.15000000000000002,0.7,5.40644,25.23005,return,6.904770899971481,,,,,,,16,21,female,left_right_width,2023_Oct_17_1443,exp1,2021.2.3,60.01666061211096,
,,,,,,,,,,,,,,,,5,8.2,9.1,10,10.9,11.8,0.9,0.5,0.4,4,10,initial,36.05,296,328,361,393,425,9,9,9,9,9,,,,,0,0,0,0,0,53,53,52,,,,,num_5,1.2338856999995187,num_5,0.45,1.3,0.35000000000000003,1.3,12.61502,46.85581,return,3.2155773999984376,,,,,,,16,21,female,left_right_width,2023_Oct_17_1443,exp1,2021.2.3,60.01666061211096,
,,,,,,,,,,,,,,,,,,,,,,,,,,,,,,,,,,,,,,,,,,,0,0,0,0,,,,,,,,,,,,,,,,,,,,,,770.7891957000247,None,770.7891957000247,None,16,21,female,left_right_width,2023_Oct_17_1443,exp1,2021.2.3,60.01666061211096,
,,,,,,,,,,,,,,,,4,9.425,9.808333333333334,10.191666666666666,10.575,0,0.3833333333333333,0.1333333333333333,0.25,1.4,10,match,36.05,340,354,367,381,0,9,9,9,9,0,,,,,1,0,1,0,0,0,0,5,,,,,num_3,0.9372019000002183,num_3,0.2,0.3,0.2,0.4,7.20859,14.41717,return,5.074250400008168,,,,,,,16,21,female,left_right_width,2023_Oct_17_1443,exp1,2021.2.3,60.01666061211096,
,,,,,,,,,,,,,,,,5,8.6,9.3,10,10.7,11.4,0.7,0.6,0.1,2.9,10,initial,36.05,310,335,361,386,411,9,9,9,9,9,,,,,1,0,1,0,0,1,1,42,,,,,num_5,1.5618625999777578,num_5,0.45,0.6,0.10000000000000007,0.95,3.60429,34.24078,return,5.898468400002457,,,,,,,16,21,female,left_right_width,2023_Oct_17_1443,exp1,2021.2.3,60.01666061211096,
,,,,,,,,,,,,,,,,3,8.2,10,11.8,0,0,1.8,1.55,0.25,3.85,10,match,36.05,296,361,425,0,0,9,9,9,0,0,,,,,1,0,1,0,0,2,2,51,,,,,num_3,0.9451841000118293,num_3,0.1,1,0.15000000000000002,1.85,5.40644,66.67942,return,10.266067699994892,,,,,,,16,21,female,left_right_width,2023_Oct_17_1443,exp1,2021.2.3,60.01666061211096,
,,,,,,,,,,,,,,,,4,9.25,9.75,10.25,10.75,0,0.5,0.09999999999999998,0.4,1.9,10,initial,36.05,333,351,370,388,0,9,9,9,9,0,,,,,1,0,1,0,0,3,3,22,,,,,num_4,1.208500400010962,num_4,0.45,1.3,0.45,0.6,16.21932,21.62576,return,3.6715642000199296,,,,,,,16,21,female,left_right_width,2023_Oct_17_1443,exp1,2021.2.3,60.01666061211096,
,,,,,,,,,,,,,,,,4,8.65,9.55,10.45,11.35,0,0.9,0.65,0.25,2.95,10,initial,36.05,312,344,377,409,0,9,9,9,9,0,,,,,1,0,1,0,0,4,4,32,,,,,num_5,1.1271146000362933,num_5,0.25,1.2,0.3,0.95,10.81288,34.24078,return,4.823009999992792,,,,,,,16,21,female,left_right_width,2023_Oct_17_1443,exp1,2021.2.3,60.01666061211096,
,,,,,,,,,,,,,,,,4,9.3,9.766666666666667,10.233333333333333,10.7,0,0.4666666666666667,0.3666666666666667,0.1,1.5,10,match,36.05,335,352,369,386,0,9,9,9,9,0,,,,,1,0,1,0,0,5,5,7,,,,,num_4,1.1886079999967478,num_4,0.35,1.2,0.15000000000000002,0.9,5.40644,32.43864,return,5.235144300037064,,,,,,,16,21,female,left_right_width,2023_Oct_17_1443,exp1,2021.2.3,60.01666061211096,
,,,,,,,,,,,,,,,,5,8.65,9.325,10,10.675,11.35,0.675,0.42500000000000004,0.25,2.95,10,match,36.05,312,336,361,385,409,9,9,9,9,9,,,,,1,0,1,0,0,6,6,33,,,,,num_6,1.3812659999821335,num_6,0.45,1.3,0.20000000000000007,0.7,7.20859,25.23005,return,6.5894044999731705,,,,,,,16,21,female,left_right_width,2023_Oct_17_1443,exp1,2021.2.3,60.01666061211096,
,,,,,,,,,,,,,,,,5,8.6,9.3,10,10.7,11.4,0.7,0.29999999999999993,0.4,3.1999999999999997,10,initial,36.05,310,335,361,386,411,9,9,9,9,9,,,,,1,0,1,0,0,7,7,46,,,,,num_5,0.9978557000285946,num_5,0.25,1.1,0.39999999999999997,1.05,14.41717,37.84507,return,5.805807899974752,,,,,,,16,21,female,left_right_width,2023_Oct_17_1443,exp1,2021.2.3,60.01666061211096,
,,,,,,,,,,,,,,,,5,8.2,9.1,10,10.9,11.8,0.9,0.65,0.25,3.85,10,initial,36.05,296,328,361,393,425,9,9,9,9,9,,,,,1,0,1,0,0,8,8,50,,,,,num_6,1.4410233999951743,num_6,0.4,0.6,0.30000000000000004,0.8,10.81288,28.83434,return,3.9575252000358887,,,,,,,16,21,female,left_right_width,2023_Oct_17_1443,exp1,2021.2.3,60.01666061211096,
,,,,,,,,,,,,,,,,3,9.3,10,10.7,0,0,0.7,0.6,0.1,1.5,10,initial,36.05,335,361,386,0,0,9,9,9,0,0,,,,,1,0,1,0,0,9,9,6,,,,,num_3,0.9103931999998167,num_3,0.3,1.3,0.15000000000000002,1.3,5.40644,46.85581,return,3.913467700011097,,,,,,,16,21,female,left_right_width,2023_Oct_17_1443,exp1,2021.2.3,60.01666061211096,
,,,,,,,,,,,,,,,,4,9.25,9.75,10.25,10.75,0,0.5,0.4,0.1,1.6,10,initial,36.05,333,351,370,388,0,9,9,9,9,0,,,,,1,0,1,0,0,10,10,18,,,,,num_4,1.7151144999661483,num_4,0.1,0.7,0.10000000000000002,0.9,3.60429,32.43864,return,3.5178777999826707,,,,,,,16,21,female,left_right_width,2023_Oct_17_1443,exp1,2021.2.3,60.01666061211096,
,,,,,,,,,,,,,,,,3,9.1,10,10.9,0,0,0.9,0.5,0.4,2.2,10,initial,36.05,328,361,393,0,0,9,9,9,0,0,,,,,1,0,1,0,0,11,11,16,,,,,num_3,1.5651506999856792,num_3,0.1,0.9,0.3,0.9,10.81288,32.43864,return,1.7738485999871045,,,,,,,16,21,female,left_right_width,2023_Oct_17_1443,exp1,2021.2.3,60.01666061211096,
,,,,,,,,,,,,,,,,3,9.5,10,10.5,0,0,0.5,0.4,0.1,1.1,10,initial,36.05,342,361,379,0,0,9,9,9,0,0,,,,,1,0,1,0,0,12,12,0,,,,,num_3,0.9741994999931194,num_3,0.3,0.9,0.10000000000000002,0.95,3.60429,34.24078,return,3.415242000017315,,,,,,,16,21,female,left_right_width,2023_Oct_17_1443,exp1,2021.2.3,60.01666061211096,
,,,,,,,,,,,,,,,,3,8.6,10,11.4,0,0,1.4,1.15,0.25,3.05,10,match,36.05,310,361,411,0,0,9,9,9,0,0,,,,,1,0,1,0,0,13,13,45,,,,,num_3,0.8946834999951534,num_3,0.3,0.8,0.2,1.05,7.20859,37.84507,return,3.5777656999998726,,,,,,,16,21,female,left_right_width,2023_Oct_17_1443,exp1,2021.2.3,60.01666061211096,
,,,,,,,,,,,,,,,,3,8.6,10,11.4,0,0,1.4,1.2999999999999998,0.1,2.9,10,match,36.05,310,361,411,0,0,9,9,9,0,0,,,,,1,0,1,0,0,14,14,43,,,,,num_3,0.8112089000060223,num_3,0.2,0.9,0.10000000000000002,1.55,3.60429,55.86654,return,4.343479599978309,,,,,,,16,21,female,left_right_width,2023_Oct_17_1443,exp1,2021.2.3,60.01666061211096,
,,,,,,,,,,,,,,,,3,9,10,11,0,0,1,0.75,0.25,2.25,10,match,36.05,324,361,397,0,0,9,9,9,0,0,,,,,1,0,1,0,0,15,15,39,,,,,num_3,0.9684572000405751,num_3,0.45,1.3,0.20000000000000007,1.65,7.20859,59.47083,return,4.608808999997564,,,,,,,16,21,female,left_right_width,2023_Oct_17_1443,exp1,2021.2.3,60.01666061211096,
,,,,,,,,,,,,,,,,3,9.5,10,10.5,0,0,0.5,0.25,0.25,1.25,10,initial,36.05,342,361,379,0,0,9,9,9,0,0,,,,,1,0,1,0,0,16,16,2,,,,,num_3,1.2466397000243887,num_3,0.35,1.3,0.25,0.45,9.01073,16.21932,return,7.009999900008552,,,,,,,16,21,female,left_right_width,2023_Oct_17_1443,exp1,2021.2.3,60.01666061211096,
,,,,,,,,,,,,,,,,5,9,9.5,10,10.5,11,0.5,0.09999999999999998,0.4,2.4,10,initial,36.05,324,342,361,379,397,9,9,9,9,9,,,,,1,0,1,0,0,17,17,40,,,,,num_4,1.131095299962908,num_4,0.15,1.0,0.39999999999999997,0.5,14.41717,18.02146,return,5.309299299959093,,,,,,,16,21,female,left_right_width,2023_Oct_17_1443,exp1,2021.2.3,60.01666061211096,
,,,,,,,,,,,,,,,,3,9.3,10,10.7,0,0,0.7,0.44999999999999996,0.25,1.65,10,initial,36.05,335,361,386,0,0,9,9,9,0,0,,,,,1,0,1,0,0,18,18,8,,,,,num_3,1.0410426000016741,num_3,0.4,0.7,0.35000000000000003,0.75,12.61502,27.0322,return,3.7980911000049673,,,,,,,16,21,female,left_right_width,2023_Oct_17_1443,exp1,2021.2.3,60.01666061211096,
,,,,,,,,,,,,,,,,5,8.95,9.475,10,10.525,11.05,0.525,0.42500000000000004,0.1,2.2,10,match,36.05,323,342,361,379,398,9,9,9,9,9,,,,,1,0,1,0,0,19,19,25,,,,,num_5,1.1826704000122845,num_5,0.25,0.5,0.10000000000000002,0.65,3.60429,23.4279,return,3.624208200024441,,,,,,,16,21,female,left_right_width,2023_Oct_17_1443,exp1,2021.2.3,60.01666061211096,
,,,,,,,,,,,,,,,,5,9.25,9.625,10,10.375,10.75,0.375,0.275,0.1,1.6,10,match,36.05,333,347,361,374,388,9,9,9,9,9,,,,,1,0,1,0,0,20,20,19,,,,,num_6,1.0507005999679677,num_6,0.1,0.4,0.1,0.5,3.60429,18.02146,return,3.119967899983749,,,,,,,16,21,female,left_right_width,2023_Oct_17_1443,exp1,2021.2.3,60.01666061211096,
,,,,,,,,,,,,,,,,4,9.5,9.833333333333334,10.166666666666666,10.5,0,0.33333333333333337,0.23333333333333336,0.1,1.1,10,match,36.05,342,354,367,379,0,9,9,9,9,0,,,,,1,0,1,0,0,21,21,1,,,,,num_4,1.8633871999918483,num_4,0.2,0.7,0.10000000000000002,0.3,3.60429,10.81288,return,3.657102400029544,,,,,,,16,21,female,left_right_width,2023_Oct_17_1443,exp1,2021.2.3,60.01666061211096,
,,,,,,,,,,,,,,,,5,8.6,9.3,10,10.7,11.4,0.7,0.44999999999999996,0.25,3.05,10,initial,36.05,310,335,361,386,411,9,9,9,9,9,,,,,1,0,1,0,0,22,22,44,,,,,num_6,1.2178123999619856,num_6,0.45,1.0,0.25000000000000006,0.6,9.01073,21.62576,return,4.174099299998488,,,,,,,16,21,female,left_right_width,2023_Oct_17_1443,exp1,2021.2.3,60.01666061211096,
,,,,,,,,,,,,,,,,4,8.95,9.65,10.35,11.05,0,0.7,0.6,0.1,2.1999999999999997,10,initial,36.05,323,348,373,398,0,9,9,9,9,0,,,,,1,0,1,0,0,23,23,24,,,,,num_4,1.269756099965889,num_4,0.25,0.3,0.10000000000000002,1.3,3.60429,46.85581,return,4.834006699966267,,,,,,,16,21,female,left_right_width,2023_Oct_17_1443,exp1,2021.2.3,60.01666061211096,
,,,,,,,,,,,,,,,,4,9.3,9.766666666666667,10.233333333333333,10.7,0,0.4666666666666667,0.21666666666666665,0.25,1.65,10,match,36.05,335,352,369,386,0,9,9,9,9,0,,,,,1,0,1,0,0,24,24,9,,,,,num_4,1.2232037999783643,num_4,0.4,0.9,0.30000000000000004,0.4,10.81288,14.41717,return,6.034648400032893,,,,,,,16,21,female,left_right_width,2023_Oct_17_1443,exp1,2021.2.3,60.01666061211096,
,,,,,,,,,,,,,,,,5,8.65,9.325,10,10.675,11.35,0.6749999999999999,0.575,0.1,2.8,10,match,36.05,312,336,361,385,409,9,9,9,9,9,,,,,1,0,1,0,0,25,25,31,,,,,num_5,2.842601000040304,num_5,0.15,0.5,0.09999999999999999,1.1,3.60429,39.64722,return,4.984377000015229,,,,,,,16,21,female,left_right_width,2023_Oct_17_1443,exp1,2021.2.3,60.01666061211096,
,,,,,,,,,,,,,,,,5,8.65,9.325,10,10.675,11.35,0.675,0.275,0.4,3.1,10,match,36.05,312,336,361,385,409,9,9,9,9,9,,,,,1,0,1,0,0,26,26,35,,,,,num_6,1.0654232999659143,num_6,0.15,0.5,0.3,0.8,10.81288,28.83434,return,2.703761700016912,,,,,,,16,21,female,left_right_width,2023_Oct_17_1443,exp1,2021.2.3,60.01666061211096,
,,,,,,,,,,,,,,,,3,8.2,10,11.8,0,0,1.7999999999999998,1.4,0.4,4,10,match,36.05,296,361,425,0,0,9,9,9,0,0,,,,,1,0,1,0,0,27,27,53,,,,,num_3,0.8986045999918133,num_3,0.25,1,0.35,1.85,12.61502,66.67942,return,5.390254499972798,,,,,,,16,21,female,left_right_width,2023_Oct_17_1443,exp1,2021.2.3,60.01666061211096,
,,,,,,,,,,,,,,,,3,9,10,11,0,0,0.9999999999999999,0.5999999999999999,0.4,2.4,10,match,36.05,324,361,397,0,0,9,9,9,0,0,,,,,1,0,1,0,0,28,28,41,,,,,num_3,1.1263426000368781,num_3,0.3,0.9,0.39999999999999997,1.75,14.41717,63.07512,return,4.373771900020074,,,,,,,16,21,female,left_right_width,2023_Oct_17_1443,exp1,2021.2.3,60.01666061211096,
,,,,,,,,,,,,,,,,4,8.95,9.65,10.35,11.05,0,0.7,0.44999999999999996,0.25,2.3499999999999996,10,initial,36.05,323,348,373,398,0,9,9,9,9,0,,,,,1,0,1,0,0,29,29,26,,,,,num_4,0.8958498999709263,num_4,0.1,0.8,0.25,0.9,9.01073,32.43864,return,5.6276107000303455,,,,,,,16,21,female,left_right_width,2023_Oct_17_1443,exp1,2021.2.3,60.01666061211096,
,,,,,,,,,,,,,,,,3,9.3,10,10.7,0,0,0.7,0.29999999999999993,0.4,1.8,10,initial,36.05,335,361,386,0,0,9,9,9,0,0,,,,,1,0,1,0,0,30,30,10,,,,,num_3,1.1963931000209413,num_3,0.35,0.7,0.5499999999999999,0.9,19.82361,32.43864,return,4.618160699959844,,,,,,,16,21,female,left_right_width,2023_Oct_17_1443,exp1,2021.2.3,60.01666061211096,
,,,,,,,,,,,,,,,,4,8.95,9.65,10.35,11.05,0,0.7,0.29999999999999993,0.4,2.5,10,initial,36.05,323,348,373,398,0,9,9,9,9,0,,,,,1,0,1,0,0,31,31,28,,,,,num_5,1.435793900047429,num_5,0.3,1.2,0.49999999999999994,1.05,18.02146,37.84507,return,3.056608300015796,,,,,,,16,21,female,left_right_width,2023_Oct_17_1443,exp1,2021.2.3,60.01666061211096,
,,,,,,,,,,,,,,,,3,8.525,10,11.475,0,0,1.475,1.225,0.25,3.2,10,match,36.05,307,361,414,0,0,9,9,9,0,0,,,,,1,0,1,0,0,32,32,47,,,,,num_3,0.8891063000191934,num_3,0.4,0.8,0.20000000000000007,1.9,7.20859,68.48156,return,8.083305799984373,,,,,,,16,21,female,left_right_width,2023_Oct_17_1443,exp1,2021.2.3,60.01666061211096,
,,,,,,,,,,,,,,,,4,9.1,9.7,10.3,10.9,0,0.6,0.5,0.1,1.9,10,match,36.05,328,350,371,393,0,9,9,9,9,0,,,,,1,0,1,0,0,33,33,13,,,,,num_4,0.887705700006336,num_4,0.1,0.5,-0.05,1.6,-1.80215,57.66869,return,5.378385600051843,,,,,,,16,21,female,left_right_width,2023_Oct_17_1443,exp1,2021.2.3,60.01666061211096,
,,,,,,,,,,,,,,,,5,8.95,9.475,10,10.525,11.05,0.525,0.125,0.4,2.5,10,match,36.05,323,342,361,379,398,9,9,9,9,9,,,,,1,0,1,0,0,34,34,29,,,,,num_5,2.0765360000077635,num_5,0.4,0.6,0.35000000000000003,0.55,12.61502,19.82361,return,3.3037565000122413,,,,,,,16,21,female,left_right_width,2023_Oct_17_1443,exp1,2021.2.3,60.01666061211096,
,,,,,,,,,,,,,,,,4,9.1,9.7,10.3,10.9,0,0.6000000000000001,0.20000000000000004,0.4,2.2,10,match,36.05,328,350,371,393,0,9,9,9,9,0,,,,,1,0,1,0,0,35,35,17,,,,,num_4,0.9490686999633908,num_4,0.35,1.2,0.35,0.5,12.61502,18.02146,return,6.79811100004008,,,,,,,16,21,female,left_right_width,2023_Oct_17_1443,exp1,2021.2.3,60.01666061211096,
,,,,,,,,,,,,,,,,3,8.2,10,11.8,0,0,1.8000000000000003,1.7000000000000002,0.1,3.7,10,match,36.05,296,361,425,0,0,9,9,9,0,0,,,,,1,0,1,0,0,36,36,49,,,,,num_4,1.1511213000048883,num_4,0.1,0.6,0.05000000000000002,1.9,1.80215,68.48156,return,5.536630199989304,,,,,,,16,21,female,left_right_width,2023_Oct_17_1443,exp1,2021.2.3,60.01666061211096,
,,,,,,,,,,,,,,,,4,9.1,9.7,10.3,10.9,0,0.5999999999999999,0.3499999999999999,0.25,2.05,10,match,36.05,328,350,371,393,0,9,9,9,9,0,,,,,1,0,1,0,0,37,37,15,,,,,num_4,1.0119869000045583,num_4,0.15,0.9,0.25,0.5,9.01073,18.02146,return,3.1619548000162467,,,,,,,16,21,female,left_right_width,2023_Oct_17_1443,exp1,2021.2.3,60.01666061211096,
,,,,,,,,,,,,,,,,4,9.3,9.766666666666667,10.233333333333333,10.7,0,0.4666666666666667,0.06666666666666665,0.4,1.8,10,match,36.05,335,352,369,386,0,9,9,9,9,0,,,,,1,0,1,0,0,38,38,11,,,,,num_4,1.550838700029999,num_4,0.3,1.0,0.39999999999999997,0.5,14.41717,18.02146,return,3.8083139000227675,,,,,,,16,21,female,left_right_width,2023_Oct_17_1443,exp1,2021.2.3,60.01666061211096,
,,,,,,,,,,,,,,,,3,9,10,11,0,0,1,0.9,0.1,2.1,10,match,36.05,324,361,397,0,0,9,9,9,0,0,,,,,1,0,1,0,0,39,39,37,,,,,num_3,1.1521311000105925,num_3,0.25,1.3,0.05000000000000002,1.4,1.80215,50.4601,return,1.950953199993819,,,,,,,16,21,female,left_right_width,2023_Oct_17_1443,exp1,2021.2.3,60.01666061211096,
,,,,,,,,,,,,,,,,5,9,9.5,10,10.5,11,0.5,0.4,0.1,2.1,10,initial,36.05,324,342,361,379,397,9,9,9,9,9,,,,,1,0,1,0,0,40,40,36,,,,,num_5,1.2732260000193492,num_5,0.25,1.2,0.05000000000000002,1.25,1.80215,45.05366,return,3.9375674999901094,,,,,,,16,21,female,left_right_width,2023_Oct_17_1443,exp1,2021.2.3,60.01666061211096,
,,,,,,,,,,,,,,,,4,8.65,9.55,10.45,11.35,0,0.9,0.5,0.4,3.1,10,initial,36.05,312,344,377,409,0,9,9,9,9,0,,,,,1,0,1,0,0,41,41,34,,,,,num_5,1.2237835999694653,num_5,0.25,0.7,0.35,1.1,12.61502,39.64722,return,2.821343799994793,,,,,,,16,21,female,left_right_width,2023_Oct_17_1443,exp1,2021.2.3,60.01666061211096,
,,,,,,,,,,,,,,,,4,9.25,9.75,10.25,10.75,0,0.5,0.25,0.25,1.75,10,initial,36.05,333,351,370,388,0,9,9,9,9,0,,,,,1,0,1,0,0,42,42,20,,,,,num_5,1.5750875999801792,num_5,0.3,0.4,0.3,0.75,10.81288,27.0322,return,3.6063686999841593,,,,,,,16,21,female,left_right_width,2023_Oct_17_1443,exp1,2021.2.3,60.01666061211096,
,,,,,,,,,,,,,,,,3,9.1,10,10.9,0,0,0.9,0.65,0.25,2.05,10,initial,36.05,328,361,393,0,0,9,9,9,0,0,,,,,1,0,1,0,0,43,43,14,,,,,num_3,0.9117339999647811,num_3,0.1,0.4,0.35,0.95,12.61502,34.24078,return,3.930199100053869,,,,,,,16,21,female,left_right_width,2023_Oct_17_1443,exp1,2021.2.3,60.01666061211096,
,,,,,,,,,,,,,,,,5,9.25,9.625,10,10.375,10.75,0.375,0.125,0.25,1.75,10,match,36.05,333,347,361,374,388,9,9,9,9,9,,,,,1,0,1,0,0,44,44,21,,,,,num_6,0.9657703000120819,num_6,0.15,1.3,0.25,0.3,9.01073,10.81288,return,7.774228900030721,,,,,,,16,21,female,left_right_width,2023_Oct_17_1443,exp1,2021.2.3,60.01666061211096,
,,,,,,,,,,,,,,,,4,8.65,9.55,10.45,11.35,0,0.9,0.8,0.1,2.8000000000000003,10,initial,36.05,312,344,377,409,0,9,9,9,9,0,,,,,1,0,1,0,0,45,45,30,,,,,num_4,0.9536193999811076,num_4,0.15,0.7,0.04999999999999999,1.5,1.80215,54.06439,return,2.9149469999829307,,,,,,,16,21,female,left_right_width,2023_Oct_17_1443,exp1,2021.2.3,60.01666061211096,
,,,,,,,,,,,,,,,,5,8.2,9.1,10,10.9,11.8,0.9,0.5,0.4,4,10,initial,36.05,296,328,361,393,425,9,9,9,9,9,,,,,1,0,1,0,0,46,46,52,,,,,num_5,1.0465426999726333,num_5,0.35,1.2,0.35,1.2,12.61502,43.25151,return,1.1630616000038572,,,,,,,16,21,female,left_right_width,2023_Oct_17_1443,exp1,2021.2.3,60.01666061211096,
,,,,,,,,,,,,,,,,5,8.95,9.475,10,10.525,11.05,0.525,0.275,0.25,2.35,10,match,36.05,323,342,361,379,398,9,9,9,9,9,,,,,1,0,1,0,0,47,47,27,,,,,num_6,0.932106800028123,num_6,0.35,1.0,0.3,1.0,10.81288,36.04293,return,1.9497054999810643,,,,,,,16,21,female,left_right_width,2023_Oct_17_1443,exp1,2021.2.3,60.01666061211096,
,,,,,,,,,,,,,,,,5,8.2,9.1,10,10.9,11.8,0.9,0.8,0.1,3.7,10,initial,36.05,296,328,361,393,425,9,9,9,9,9,,,,,1,0,1,0,0,48,48,48,,,,,num_6,0.8645949000492692,num_6,0.45,0.5,0.05000000000000007,1.5,1.80215,54.06439,return,7.085851000039838,,,,,,,16,21,female,left_right_width,2023_Oct_17_1443,exp1,2021.2.3,60.01666061211096,
,,,,,,,,,,,,,,,,4,9.5,9.833333333333334,10.166666666666666,10.5,0,0.3333333333333333,0.08333333333333333,0.25,1.25,10,match,36.05,342,354,367,379,0,9,9,9,9,0,,,,,1,0,1,0,0,49,49,3,,,,,num_4,1.0924696999718435,num_4,0.4,1.3,0.30000000000000004,0.4,10.81288,14.41717,return,3.255058800044935,,,,,,,16,21,female,left_right_width,2023_Oct_17_1443,exp1,2021.2.3,60.01666061211096,
,,,,,,,,,,,,,,,,3,9.1,10,10.9,0,0,0.9,0.8,0.1,1.9000000000000001,10,initial,36.05,328,361,393,0,0,9,9,9,0,0,,,,,1,0,1,0,0,50,50,12,,,,,num_3,0.8298256000271067,num_3,0.2,0.9,0.15000000000000002,0.95,5.40644,34.24078,return,4.025994899973739,,,,,,,16,21,female,left_right_width,2023_Oct_17_1443,exp1,2021.2.3,60.01666061211096,
,,,,,,,,,,,,,,,,5,9,9.5,10,10.5,11,0.5,0.25,0.25,2.25,10,initial,36.05,324,342,361,379,397,9,9,9,9,9,,,,,1,0,1,0,0,51,51,38,,,,,num_4,1.2294244999648072,num_4,0.15,0.4,0.25,0.6,9.01073,21.62576,return,1.9941534000099637,,,,,,,16,21,female,left_right_width,2023_Oct_17_1443,exp1,2021.2.3,60.01666061211096,
,,,,,,,,,,,,,,,,5,9.175,9.5875,10,10.4125,10.825,0.4125,0.16249999999999998,0.25,1.9,10,match,36.05,331,346,361,375,390,9,9,9,9,9,,,,,1,0,1,0,0,52,52,23,,,,,num_5,1.3799576999736018,num_5,0.4,1.2,0.30000000000000004,0.6,10.81288,21.62576,return,5.468842700007372,,,,,,,16,21,female,left_right_width,2023_Oct_17_1443,exp1,2021.2.3,60.01666061211096,
,,,,,,,,,,,,,,,,3,9.5,10,10.5,0,0,0.5,0.09999999999999998,0.4,1.4000000000000001,10,initial,36.05,342,361,379,0,0,9,9,9,0,0,,,,,1,0,1,0,0,53,53,4,,,,,num_3,1.0058353000204079,num_3,0.25,0.5,0.39999999999999997,0.5,14.41717,18.02146,return,1.747905099997297,,,,,,,16,21,female,left_right_width,2023_Oct_17_1443,exp1,2021.2.3,60.01666061211096,
,,,,,,,,,,,,,,,,,,,,,,,,,,,,,,,,,,,,,,,,,,,1,0,1,0,,,,,,,,,,,,,,,,,,,,,,1209.2027426999994,None,1209.2027426999994,None,16,21,female,left_right_width,2023_Oct_17_1443,exp1,2021.2.3,60.01666061211096,
,,,,,,,,,,,,,,,,4,9.1,9.7,10.3,10.9,0,0.6000000000000001,0.20000000000000004,0.4,2.2,10,match,36.05,328,350,371,393,0,9,9,9,9,0,,,,,2,0,2,0,0,0,0,17,,,,,num_4,1.4007070999941789,num_4,0.2,0.9,0.39999999999999997,0.7,14.41717,25.23005,return,3.453504300036002,,,,,,,16,21,female,left_right_width,2023_Oct_17_1443,exp1,2021.2.3,60.01666061211096,
,,,,,,,,,,,,,,,,4,8.65,9.55,10.45,11.35,0,0.9,0.65,0.25,2.95,10,initial,36.05,312,344,377,409,0,9,9,9,9,0,,,,,2,0,2,0,0,1,1,32,,,,,num_4,0.8938978999503888,num_4,0.1,1.0,0.39999999999999997,1.1,14.41717,39.64722,return,7.737376100034453,,,,,,,16,21,female,left_right_width,2023_Oct_17_1443,exp1,2021.2.3,60.01666061211096,
,,,,,,,,,,,,,,,,3,9.5,10,10.5,0,0,0.5,0.09999999999999998,0.4,1.4000000000000001,10,initial,36.05,342,361,379,0,0,9,9,9,0,0,,,,,2,0,2,0,0,2,2,4,,,,,num_3,1.020553199981805,num_3,0.25,1,0.44999999999999996,0.6,16.21932,21.62576,return,6.8493805000325665,,,,,,,16,21,female,left_right_width,2023_Oct_17_1443,exp1,2021.2.3,60.01666061211096,
,,,,,,,,,,,,,,,,4,8.95,9.65,10.35,11.05,0,0.7,0.29999999999999993,0.4,2.5,10,initial,36.05,323,348,373,398,0,9,9,9,9,0,,,,,2,0,2,0,0,3,3,28,,,,,num_4,0.9051476999884471,num_4,0.2,0.6,0.3,0.8,10.81288,28.83434,return,3.362238099973183,,,,,,,16,21,female,left_right_width,2023_Oct_17_1443,exp1,2021.2.3,60.01666061211096,
,,,,,,,,,,,,,,,,3,9,10,11,0,0,1,0.75,0.25,2.25,10,match,36.05,324,361,397,0,0,9,9,9,0,0,,,,,2,0,2,0,0,4,4,39,,,,,num_3,1.1836263000150211,num_3,0.15,0.8,0.3,0.95,10.81288,34.24078,return,3.6951893000514247,,,,,,,16,21,female,left_right_width,2023_Oct_17_1443,exp1,2021.2.3,60.01666061211096,
,,,,,,,,,,,,,,,,3,9.5,10,10.5,0,0,0.5,0.4,0.1,1.1,10,initial,36.05,342,361,379,0,0,9,9,9,0,0,,,,,2,0,2,0,0,5,5,0,,,,,num_3,0.9583822999848053,num_3,0.4,1.1,0.30000000000000004,1.15,10.81288,41.44937,return,5.542887800023891,,,,,,,16,21,female,left_right_width,2023_Oct_17_1443,exp1,2021.2.3,60.01666061211096,
,,,,,,,,,,,,,,,,5,8.2,9.1,10,10.9,11.8,0.9,0.5,0.4,4,10,initial,36.05,296,328,361,393,425,9,9,9,9,9,,,,,2,0,2,0,0,6,6,52,,,,,num_6,0.9078270000172779,num_6,0.1,0.3,0.3,1.0,10.81288,36.04293,return,4.166044700017665,,,,,,,16,21,female,left_right_width,2023_Oct_17_1443,exp1,2021.2.3,60.01666061211096,
,,,,,,,,,,,,,,,,4,9.1,9.7,10.3,10.9,0,0.6,0.5,0.1,1.9,10,match,36.05,328,350,371,393,0,9,9,9,9,0,,,,,2,0,2,0,0,7,7,13,,,,,num_4,0.9626177999889478,num_4,0.4,0.5,0.20000000000000007,1.4,7.20859,50.4601,return,7.018320300034247,,,,,,,16,21,female,left_right_width,2023_Oct_17_1443,exp1,2021.2.3,60.01666061211096,
,,,,,,,,,,,,,,,,4,8.65,9.55,10.45,11.35,0,0.9,0.5,0.4,3.1,10,initial,36.05,312,344,377,409,0,9,9,9,9,0,,,,,2,0,2,0,0,8,8,34,,,,,num_5,0.899075300025288,num_5,0.3,0.5,0.3,0.85,10.81288,30.63649,return,8.367026899999473,,,,,,,16,21,female,left_right_width,2023_Oct_17_1443,exp1,2021.2.3,60.01666061211096,
,,,,,,,,,,,,,,,,5,9,9.5,10,10.5,11,0.5,0.09999999999999998,0.4,2.4,10,initial,36.05,324,342,361,379,397,9,9,9,9,9,,,,,2,0,2,0,0,9,9,40,,,,,num_5,2.2786293999524787,num_5,0.35,1.3,0.35,0.5,12.61502,18.02146,return,5.658275399997365,,,,,,,16,21,female,left_right_width,2023_Oct_17_1443,exp1,2021.2.3,60.01666061211096,
,,,,,,,,,,,,,,,,5,9.25,9.625,10,10.375,10.75,0.375,0.125,0.25,1.75,10,match,36.05,333,347,361,374,388,9,9,9,9,9,,,,,2,0,2,0,0,10,10,21,,,,,num_5,2.564493499987293,num_5,0.4,1.1,0.4,0.55,14.41717,19.82361,return,9.868691299983766,,,,,,,16,21,female,left_right_width,2023_Oct_17_1443,exp1,2021.2.3,60.01666061211096,
,,,,,,,,,,,,,,,,4,8.95,9.65,10.35,11.05,0,0.7,0.44999999999999996,0.25,2.3499999999999996,10,initial,36.05,323,348,373,398,0,9,9,9,9,0,,,,,2,0,2,0,0,11,11,26,,,,,num_4,1.4451687000109814,num_4,0.4,1.3,0.25000000000000006,1.3,9.01073,46.85581,return,3.7477488000295125,,,,,,,16,21,female,left_right_width,2023_Oct_17_1443,exp1,2021.2.3,60.01666061211096,
,,,,,,,,,,,,,,,,3,8.2,10,11.8,0,0,1.7999999999999998,1.4,0.4,4,10,match,36.05,296,361,425,0,0,9,9,9,0,0,,,,,2,0,2,0,0,12,12,53,,,,,num_4,1.117234900011681,num_4,0.2,1.3,0.35,1.5,12.61502,54.06439,return,2.175493400020059,,,,,,,16,21,female,left_right_width,2023_Oct_17_1443,exp1,2021.2.3,60.01666061211096,
,,,,,,,,,,,,,,,,4,9.1,9.7,10.3,10.9,0,0.5999999999999999,0.3499999999999999,0.25,2.05,10,match,36.05,328,350,371,393,0,9,9,9,9,0,,,,,2,0,2,0,0,13,13,15,,,,,num_5,1.1889909000019543,num_5,0.2,0.5,0.3,0.7,10.81288,25.23005,return,6.069941800029483,,,,,,,16,21,female,left_right_width,2023_Oct_17_1443,exp1,2021.2.3,60.01666061211096,
,,,,,,,,,,,,,,,,5,8.2,9.1,10,10.9,11.8,0.9,0.8,0.1,3.7,10,initial,36.05,296,328,361,393,425,9,9,9,9,9,,,,,2,0,2,0,0,14,14,48,,,,,num_6,1.1605832999921404,num_6,0.35,0.4,0.10000000000000002,1.0,3.60429,36.04293,return,8.009490299969912,,,,,,,16,21,female,left_right_width,2023_Oct_17_1443,exp1,2021.2.3,60.01666061211096,
,,,,,,,,,,,,,,,,4,9.25,9.75,10.25,10.75,0,0.5,0.25,0.25,1.75,10,initial,36.05,333,351,370,388,0,9,9,9,9,0,,,,,2,0,2,0,0,15,15,20,,,,,num_5,1.0016182999825105,num_5,0.4,1.2,0.30000000000000004,0.95,10.81288,34.24078,return,3.2163788999896497,,,,,,,16,21,female,left_right_width,2023_Oct_17_1443,exp1,2021.2.3,60.01666061211096,
,,,,,,,,,,,,,,,,5,8.95,9.475,10,10.525,11.05,0.525,0.125,0.4,2.5,10,match,36.05,323,342,361,379,398,9,9,9,9,9,,,,,2,0,2,0,0,16,16,29,,,,,num_6,0.9459972999757156,num_6,0.45,0.9,0.30000000000000004,0.7,10.81288,25.23005,return,5.580125999986194,,,,,,,16,21,female,left_right_width,2023_Oct_17_1443,exp1,2021.2.3,60.01666061211096,
,,,,,,,,,,,,,,,,5,9.175,9.5875,10,10.4125,10.825,0.4125,0.16249999999999998,0.25,1.9,10,match,36.05,331,346,361,375,390,9,9,9,9,9,,,,,2,0,2,0,0,17,17,23,,,,,num_5,1.0705804000026546,num_5,0.15,1.3,0.35,0.65,12.61502,23.4279,return,4.59243040002184,,,,,,,16,21,female,left_right_width,2023_Oct_17_1443,exp1,2021.2.3,60.01666061211096,
,,,,,,,,,,,,,,,,3,9.1,10,10.9,0,0,0.9,0.8,0.1,1.9000000000000001,10,initial,36.05,328,361,393,0,0,9,9,9,0,0,,,,,2,0,2,0,0,18,18,12,,,,,num_3,1.0432537000160664,num_3,0.45,1.3,0.10000000000000007,1.4,3.60429,50.4601,return,5.1442318999907,,,,,,,16,21,female,left_right_width,2023_Oct_17_1443,exp1,2021.2.3,60.01666061211096,
,,,,,,,,,,,,,,,,3,9.1,10,10.9,0,0,0.9,0.65,0.25,2.05,10,initial,36.05,328,361,393,0,0,9,9,9,0,0,,,,,2,0,2,0,0,19,19,14,,,,,num_3,0.9250909999827854,num_3,0.4,0.9,0.30000000000000004,1.05,10.81288,37.84507,return,3.574637099984102,,,,,,,16,21,female,left_right_width,2023_Oct_17_1443,exp1,2021.2.3,60.01666061211096,
,,,,,,,,,,,,,,,,5,9,9.5,10,10.5,11,0.5,0.25,0.25,2.25,10,initial,36.05,324,342,361,379,397,9,9,9,9,9,,,,,2,0,2,0,0,20,20,38,,,,,num_5,0.9487973999930546,num_5,0.35,0.9,0.3,1.05,10.81288,37.84507,return,2.347783299977891,,,,,,,16,21,female,left_right_width,2023_Oct_17_1443,exp1,2021.2.3,60.01666061211096,
,,,,,,,,,,,,,,,,4,9.425,9.808333333333334,10.191666666666666,10.575,0,0.3833333333333333,0.1333333333333333,0.25,1.4,10,match,36.05,340,354,367,381,0,9,9,9,9,0,,,,,2,0,2,0,0,21,21,5,,,,,num_4,2.594599100004416,num_4,0.4,0.9,0.30000000000000004,0.5,10.81288,18.02146,return,2.457040900015272,,,,,,,16,21,female,left_right_width,2023_Oct_17_1443,exp1,2021.2.3,60.01666061211096,
,,,,,,,,,,,,,,,,4,8.95,9.65,10.35,11.05,0,0.7,0.6,0.1,2.1999999999999997,10,initial,36.05,323,348,373,398,0,9,9,9,9,0,,,,,2,0,2,0,0,22,22,24,,,,,num_5,1.0399491999996826,num_5,0.45,0.9,0.10000000000000007,0.95,3.60429,34.24078,return,3.8288494999869727,,,,,,,16,21,female,left_right_width,2023_Oct_17_1443,exp1,2021.2.3,60.01666061211096,
,,,,,,,,,,,,,,,,5,8.6,9.3,10,10.7,11.4,0.7,0.29999999999999993,0.4,3.1999999999999997,10,initial,36.05,310,335,361,386,411,9,9,9,9,9,,,,,2,0,2,0,0,23,23,46,,,,,num_6,1.0743784999940544,num_6,0.45,0.5,0.4,0.8,14.41717,28.83434,return,4.612254999985453,,,,,,,16,21,female,left_right_width,2023_Oct_17_1443,exp1,2021.2.3,60.01666061211096,
,,,,,,,,,,,,,,,,3,8.2,10,11.8,0,0,1.8000000000000003,1.7000000000000002,0.1,3.7,10,match,36.05,296,361,425,0,0,9,9,9,0,0,,,,,2,0,2,0,0,24,24,49,,,,,num_3,1.0142125000129454,num_3,0.1,0.6,0.05000000000000002,1.15,1.80215,41.44937,return,4.97350630001165,,,,,,,16,21,female,left_right_width,2023_Oct_17_1443,exp1,2021.2.3,60.01666061211096,
,,,,,,,,,,,,,,,,5,8.2,9.1,10,10.9,11.8,0.9,0.65,0.25,3.85,10,initial,36.05,296,328,361,393,425,9,9,9,9,9,,,,,2,0,2,0,0,25,25,50,,,,,num_5,0.9989278999855742,num_5,0.4,1.0,0.25000000000000006,1.3,9.01073,46.85581,return,7.7091879999497905,,,,,,,16,21,female,left_right_width,2023_Oct_17_1443,exp1,2021.2.3,60.01666061211096,
,,,,,,,,,,,,,,,,4,9.25,9.75,10.25,10.75,0,0.5,0.09999999999999998,0.4,1.9,10,initial,36.05,333,351,370,388,0,9,9,9,9,0,,,,,2,0,2,0,0,26,26,22,,,,,num_5,1.3657730999984778,num_5,0.35,1.2,0.35,0.55,12.61502,19.82361,return,6.012925300048664,,,,,,,16,21,female,left_right_width,2023_Oct_17_1443,exp1,2021.2.3,60.01666061211096,
,,,,,,,,,,,,,,,,5,8.65,9.325,10,10.675,11.35,0.6749999999999999,0.575,0.1,2.8,10,match,36.05,312,336,361,385,409,9,9,9,9,9,,,,,2,0,2,0,0,27,27,31,,,,,num_6,1.152364999987185,num_6,0.15,1.1,0.04999999999999999,1.0,1.80215,36.04293,return,4.1597684000153095,,,,,,,16,21,female,left_right_width,2023_Oct_17_1443,exp1,2021.2.3,60.01666061211096,
,,,,,,,,,,,,,,,,4,9.5,9.833333333333334,10.166666666666666,10.5,0,0.3333333333333333,0.08333333333333333,0.25,1.25,10,match,36.05,342,354,367,379,0,9,9,9,9,0,,,,,2,0,2,0,0,28,28,3,,,,,num_5,3.363219100050628,num_5,0.1,0.7,0.39999999999999997,0.5,14.41717,18.02146,return,8.570834800018929,,,,,,,16,21,female,left_right_width,2023_Oct_17_1443,exp1,2021.2.3,60.01666061211096,
,,,,,,,,,,,,,,,,3,9.1,10,10.9,0,0,0.9,0.5,0.4,2.2,10,initial,36.05,328,361,393,0,0,9,9,9,0,0,,,,,2,0,2,0,0,29,29,16,,,,,num_3,1.116967800015118,num_3,0.45,0.5,0.25000000000000006,1.1,9.01073,39.64722,return,8.143416300008539,,,,,,,16,21,female,left_right_width,2023_Oct_17_1443,exp1,2021.2.3,60.01666061211096,
,,,,,,,,,,,,,,,,3,9.3,10,10.7,0,0,0.7,0.29999999999999993,0.4,1.8,10,initial,36.05,335,361,386,0,0,9,9,9,0,0,,,,,2,0,2,0,0,30,30,10,,,,,num_3,1.1106653999886476,num_3,0.2,0.6,0.39999999999999997,1.0,14.41717,36.04293,return,8.36158520000754,,,,,,,16,21,female,left_right_width,2023_Oct_17_1443,exp1,2021.2.3,60.01666061211096,
,,,,,,,,,,,,,,,,3,9,10,11,0,0,1,0.9,0.1,2.1,10,match,36.05,324,361,397,0,0,9,9,9,0,0,,,,,2,0,2,0,0,31,31,37,,,,,num_3,1.195323100022506,num_3,0.35,0.6,0.10000000000000002,1.6,3.60429,57.66869,return,8.85806749999756,,,,,,,16,21,female,left_right_width,2023_Oct_17_1443,exp1,2021.2.3,60.01666061211096,
,,,,,,,,,,,,,,,,3,9.5,10,10.5,0,0,0.5,0.25,0.25,1.25,10,initial,36.05,342,361,379,0,0,9,9,9,0,0,,,,,2,0,2,0,0,32,32,2,,,,,num_3,1.054665700008627,num_3,0.2,0.4,0.2,0.85,7.20859,30.63649,return,5.314707400044426,,,,,,,16,21,female,left_right_width,2023_Oct_17_1443,exp1,2021.2.3,60.01666061211096,
,,,,,,,,,,,,,,,,5,8.95,9.475,10,10.525,11.05,0.525,0.275,0.25,2.35,10,match,36.05,323,342,361,379,398,9,9,9,9,9,,,,,2,0,2,0,0,33,33,27,,,,,num_6,0.9873434000182897,num_6,0.35,0.8,0.25,0.7,9.01073,25.23005,return,2.3868685999768786,,,,,,,16,21,female,left_right_width,2023_Oct_17_1443,exp1,2021.2.3,60.01666061211096,
,,,,,,,,,,,,,,,,4,9.3,9.766666666666667,10.233333333333333,10.7,0,0.4666666666666667,0.3666666666666667,0.1,1.5,10,match,36.05,335,352,369,386,0,9,9,9,9,0,,,,,2,0,2,0,0,34,34,7,,,,,num_5,4.037755500001367,num_5,0.25,0.8,0.10000000000000002,0.6,3.60429,21.62576,return,3.6800599999842234,,,,,,,16,21,female,left_right_width,2023_Oct_17_1443,exp1,2021.2.3,60.01666061211096,
,,,,,,,,,,,,,,,,5,8.6,9.3,10,10.7,11.4,0.7,0.6,0.1,2.9,10,initial,36.05,310,335,361,386,411,9,9,9,9,9,,,,,2,0,2,0,0,35,35,42,,,,,num_6,0.9884839999722317,num_6,0.45,1.0,0.10000000000000007,0.7,3.60429,25.23005,return,4.610741399985272,,,,,,,16,21,female,left_right_width,2023_Oct_17_1443,exp1,2021.2.3,60.01666061211096,
,,,,,,,,,,,,,,,,5,8.6,9.3,10,10.7,11.4,0.7,0.44999999999999996,0.25,3.05,10,initial,36.05,310,335,361,386,411,9,9,9,9,9,,,,,2,0,2,0,0,36,36,44,,,,,num_6,0.9939301999984309,num_6,0.45,0.9,0.35000000000000003,1.0,12.61502,36.04293,return,2.5365771999931894,,,,,,,16,21,female,left_right_width,2023_Oct_17_1443,exp1,2021.2.3,60.01666061211096,
,,,,,,,,,,,,,,,,5,9,9.5,10,10.5,11,0.5,0.4,0.1,2.1,10,initial,36.05,324,342,361,379,397,9,9,9,9,9,,,,,2,0,2,0,0,37,37,36,,,,,num_6,0.9665405999985524,num_6,0.25,0.9,0.10000000000000002,0.7,3.60429,25.23005,return,4.51033630000893,,,,,,,16,21,female,left_right_width,2023_Oct_17_1443,exp1,2021.2.3,60.01666061211096,
,,,,,,,,,,,,,,,,5,8.65,9.325,10,10.675,11.35,0.675,0.42500000000000004,0.25,2.95,10,match,36.05,312,336,361,385,409,9,9,9,9,9,,,,,2,0,2,0,0,38,38,33,,,,,num_6,0.9672363999998197,num_6,0.2,1.3,0.25,1.2,9.01073,43.25151,return,3.472145100007765,,,,,,,16,21,female,left_right_width,2023_Oct_17_1443,exp1,2021.2.3,60.01666061211096,
,,,,,,,,,,,,,,,,3,9.3,10,10.7,0,0,0.7,0.6,0.1,1.5,10,initial,36.05,335,361,386,0,0,9,9,9,0,0,,,,,2,0,2,0,0,39,39,6,,,,,num_3,0.8710259000072256,num_3,0.3,0.6,0.15000000000000002,0.7,5.40644,25.23005,return,3.827954899985343,,,,,,,16,21,female,left_right_width,2023_Oct_17_1443,exp1,2021.2.3,60.01666061211096,
,,,,,,,,,,,,,,,,3,8.2,10,11.8,0,0,1.8,1.55,0.25,3.85,10,match,36.05,296,361,425,0,0,9,9,9,0,0,,,,,2,0,2,0,0,40,40,51,,,,,num_3,0.8804752000141889,num_3,0.35,0.5,0.25,0.95,9.01073,34.24078,return,4.027913499972783,,,,,,,16,21,female,left_right_width,2023_Oct_17_1443,exp1,2021.2.3,60.01666061211096,
,,,,,,,,,,,,,,,,4,9.3,9.766666666666667,10.233333333333333,10.7,0,0.4666666666666667,0.06666666666666665,0.4,1.8,10,match,36.05,335,352,369,386,0,9,9,9,9,0,,,,,2,0,2,0,0,41,41,11,,,,,num_3,0.769637799996417,num_3,0.35,0.9,0.49999999999999994,0.8,18.02146,28.83434,return,2.815333299979102,,,,,,,16,21,female,left_right_width,2023_Oct_17_1443,exp1,2021.2.3,60.01666061211096,
,,,,,,,,,,,,,,,,3,8.525,10,11.475,0,0,1.475,1.225,0.25,3.2,10,match,36.05,307,361,414,0,0,9,9,9,0,0,,,,,2,0,2,0,0,42,42,47,,,,,num_3,0.8460389000247233,num_3,0.35,0.8,0.2,1.1,7.20859,39.64722,return,2.571732599986717,,,,,,,16,21,female,left_right_width,2023_Oct_17_1443,exp1,2021.2.3,60.01666061211096,
,,,,,,,,,,,,,,,,3,9,10,11,0,0,0.9999999999999999,0.5999999999999999,0.4,2.4,10,match,36.05,324,361,397,0,0,9,9,9,0,0,,,,,2,0,2,0,0,43,43,41,,,,,num_3,1.2273134000133723,num_3,0.35,0.8,0.25,1.1,9.01073,39.64722,return,2.249483900028281,,,,,,,16,21,female,left_right_width,2023_Oct_17_1443,exp1,2021.2.3,60.01666061211096,
,,,,,,,,,,,,,,,,4,9.5,9.833333333333334,10.166666666666666,10.5,0,0.33333333333333337,0.23333333333333336,0.1,1.1,10,match,36.05,342,354,367,379,0,9,9,9,9,0,,,,,2,0,2,0,0,44,44,1,,,,,num_4,0.934001499961596,num_4,0.35,0.7,0.15000000000000002,0.4,5.40644,14.41717,return,2.6403458999702707,,,,,,,16,21,female,left_right_width,2023_Oct_17_1443,exp1,2021.2.3,60.01666061211096,
,,,,,,,,,,,,,,,,4,9.3,9.766666666666667,10.233333333333333,10.7,0,0.4666666666666667,0.21666666666666665,0.25,1.65,10,match,36.05,335,352,369,386,0,9,9,9,9,0,,,,,2,0,2,0,0,45,45,9,,,,,num_5,1.096084900025744,num_5,0.3,0.5,0.15000000000000002,0.6,5.40644,21.62576,return,3.7706204000278376,,,,,,,16,21,female,left_right_width,2023_Oct_17_1443,exp1,2021.2.3,60.01666061211096,
,,,,,,,,,,,,,,,,3,8.6,10,11.4,0,0,1.4,1.2999999999999998,0.1,2.9,10,match,36.05,310,361,411,0,0,9,9,9,0,0,,,,,2,0,2,0,0,46,46,43,,,,,num_3,0.9652072999742813,num_3,0.1,1.2,0.1,0.9,3.60429,32.43864,return,1.7558769000461325,,,,,,,16,21,female,left_right_width,2023_Oct_17_1443,exp1,2021.2.3,60.01666061211096,
,,,,,,,,,,,,,,,,4,8.65,9.55,10.45,11.35,0,0.9,0.8,0.1,2.8000000000000003,10,initial,36.05,312,344,377,409,0,9,9,9,9,0,,,,,2,0,2,0,0,47,47,30,,,,,num_5,1.1498120999895036,num_5,0.4,0.7,0.20000000000000007,0.65,7.20859,23.4279,return,3.103030199999921,,,,,,,16,21,female,left_right_width,2023_Oct_17_1443,exp1,2021.2.3,60.01666061211096,
,,,,,,,,,,,,,,,,4,9.25,9.75,10.25,10.75,0,0.5,0.4,0.1,1.6,10,initial,36.05,333,351,370,388,0,9,9,9,9,0,,,,,2,0,2,0,0,48,48,18,,,,,num_4,0.9818344000377692,num_4,0.25,1.0,0.10000000000000002,0.7,3.60429,25.23005,return,1.9820606000139378,,,,,,,16,21,female,left_right_width,2023_Oct_17_1443,exp1,2021.2.3,60.01666061211096,
,,,,,,,,,,,,,,,,5,8.95,9.475,10,10.525,11.05,0.525,0.42500000000000004,0.1,2.2,10,match,36.05,323,342,361,379,398,9,9,9,9,9,,,,,2,0,2,0,0,49,49,25,,,,,num_5,0.8632295000134036,num_5,0.35,0.4,0.10000000000000002,0.75,3.60429,27.0322,return,6.409879399987403,,,,,,,16,21,female,left_right_width,2023_Oct_17_1443,exp1,2021.2.3,60.01666061211096,
,,,,,,,,,,,,,,,,3,8.6,10,11.4,0,0,1.4,1.15,0.25,3.05,10,match,36.05,310,361,411,0,0,9,9,9,0,0,,,,,2,0,2,0,0,50,50,45,,,,,num_3,0.8599417000077665,num_3,0.15,0.4,0.15000000000000002,0.7,5.40644,25.23005,return,5.702925199992023,,,,,,,16,21,female,left_right_width,2023_Oct_17_1443,exp1,2021.2.3,60.01666061211096,
,,,,,,,,,,,,,,,,5,8.65,9.325,10,10.675,11.35,0.675,0.275,0.4,3.1,10,match,36.05,312,336,361,385,409,9,9,9,9,9,,,,,2,0,2,0,0,51,51,35,,,,,num_5,1.287068100005854,num_5,0.25,0.8,0.5499999999999999,1.15,19.82361,41.44937,return,5.9197298000217415,,,,,,,16,21,female,left_right_width,2023_Oct_17_1443,exp1,2021.2.3,60.01666061211096,
,,,,,,,,,,,,,,,,5,9.25,9.625,10,10.375,10.75,0.375,0.275,0.1,1.6,10,match,36.05,333,347,361,374,388,9,9,9,9,9,,,,,2,0,2,0,0,52,52,19,,,,,num_6,1.0700099000241607,num_6,0.2,0.5,0.15000000000000002,0.7,5.40644,25.23005,return,4.034406699996907,,,,,,,16,21,female,left_right_width,2023_Oct_17_1443,exp1,2021.2.3,60.01666061211096,
,,,,,,,,,,,,,,,,3,9.3,10,10.7,0,0,0.7,0.44999999999999996,0.25,1.65,10,initial,36.05,335,361,386,0,0,9,9,9,0,0,,,,,2,0,2,0,0,53,53,8,,,,,num_3,1.0111999999498948,num_3,0.4,1,0.15000000000000008,1.05,5.40644,37.84507,return,2.552845199999865,,,,,,,16,21,female,left_right_width,2023_Oct_17_1443,exp1,2021.2.3,60.01666061211096,
,,,,,,,,,,,,,,,,,,,,,,,,,,,,,,,,,,,,,,,,,,,2,0,2,0,,,,,,,,,,,,,,,,,,,,,,1667.0682562000002,None,1667.0682562000002,None,16,21,female,left_right_width,2023_Oct_17_1443,exp1,2021.2.3,60.01666061211096,
,,,,,,,,,,,,,,,,3,9.3,10,10.7,0,0,0.7,0.29999999999999993,0.4,1.8,10,initial,36.05,335,361,386,0,0,9,9,9,0,0,,,,,3,0,3,0,0,0,0,10,,,,,num_3,1.4258426000014879,num_3,0.4,0.5,0.45,0.85,16.21932,30.63649,return,4.408605000004172,,,,,,,16,21,female,left_right_width,2023_Oct_17_1443,exp1,2021.2.3,60.01666061211096,
,,,,,,,,,,,,,,,,4,8.95,9.65,10.35,11.05,0,0.7,0.44999999999999996,0.25,2.3499999999999996,10,initial,36.05,323,348,373,398,0,9,9,9,9,0,,,,,3,0,3,0,0,1,1,26,,,,,num_5,1.5997787000378594,num_5,0.3,1.0,0.3,0.9,10.81288,32.43864,return,2.959150899958331,,,,,,,16,21,female,left_right_width,2023_Oct_17_1443,exp1,2021.2.3,60.01666061211096,
,,,,,,,,,,,,,,,,5,8.95,9.475,10,10.525,11.05,0.525,0.125,0.4,2.5,10,match,36.05,323,342,361,379,398,9,9,9,9,9,,,,,3,0,3,0,0,2,2,29,,,,,num_5,1.199123700032942,num_5,0.1,1.2,0.49999999999999994,0.95,18.02146,34.24078,return,9.087195099971723,,,,,,,16,21,female,left_right_width,2023_Oct_17_1443,exp1,2021.2.3,60.01666061211096,
,,,,,,,,,,,,,,,,5,9,9.5,10,10.5,11,0.5,0.09999999999999998,0.4,2.4,10,initial,36.05,324,342,361,379,397,9,9,9,9,9,,,,,3,0,3,0,0,3,3,40,,,,,num_5,1.0040125999948941,num_5,0.25,1.1,0.5499999999999999,0.75,19.82361,27.0322,return,6.978697000013199,,,,,,,16,21,female,left_right_width,2023_Oct_17_1443,exp1,2021.2.3,60.01666061211096,
,,,,,,,,,,,,,,,,5,9.175,9.5875,10,10.4125,10.825,0.4125,0.16249999999999998,0.25,1.9,10,match,36.05,331,346,361,375,390,9,9,9,9,9,,,,,3,0,3,0,0,4,4,23,,,,,num_6,1.2300499999546446,num_6,0.2,0.7,0.35,0.9,12.61502,32.43864,return,3.9973220999818295,,,,,,,16,21,female,left_right_width,2023_Oct_17_1443,exp1,2021.2.3,60.01666061211096,
,,,,,,,,,,,,,,,,3,8.6,10,11.4,0,0,1.4,1.2999999999999998,0.1,2.9,10,match,36.05,310,361,411,0,0,9,9,9,0,0,,,,,3,0,3,0,0,5,5,43,,,,,num_3,2.980437999998685,num_3,0.45,0.5,4.163336342344337e-17,1.1,0.0,39.64722,return,9.212740499991924,,,,,,,16,21,female,left_right_width,2023_Oct_17_1443,exp1,2021.2.3,60.01666061211096,
,,,,,,,,,,,,,,,,3,8.2,10,11.8,0,0,1.7999999999999998,1.4,0.4,4,10,match,36.05,296,361,425,0,0,9,9,9,0,0,,,,,3,0,3,0,0,6,6,53,,,,,num_3,1.6145181999891065,num_3,0.25,0.6,0.25,0.75,9.01073,27.0322,return,5.148882199951913,,,,,,,16,21,female,left_right_width,2023_Oct_17_1443,exp1,2021.2.3,60.01666061211096,
,,,,,,,,,,,,,,,,4,9.1,9.7,10.3,10.9,0,0.6,0.5,0.1,1.9,10,match,36.05,328,350,371,393,0,9,9,9,9,0,,,,,3,0,3,0,0,7,7,13,,,,,num_4,1.9739079999853857,num_4,0.25,0.8,0.15000000000000002,0.6,5.40644,21.62576,return,2.0369831999996677,,,,,,,16,21,female,left_right_width,2023_Oct_17_1443,exp1,2021.2.3,60.01666061211096,
,,,,,,,,,,,,,,,,5,8.6,9.3,10,10.7,11.4,0.7,0.29999999999999993,0.4,3.1999999999999997,10,initial,36.05,310,335,361,386,411,9,9,9,9,9,,,,,3,0,3,0,0,8,8,46,,,,,num_6,1.0051550000207499,num_6,0.15,0.9,0.35,0.9,12.61502,32.43864,return,4.29260320001049,,,,,,,16,21,female,left_right_width,2023_Oct_17_1443,exp1,2021.2.3,60.01666061211096,
,,,,,,,,,,,,,,,,4,9.425,9.808333333333334,10.191666666666666,10.575,0,0.3833333333333333,0.1333333333333333,0.25,1.4,10,match,36.05,340,354,367,381,0,9,9,9,9,0,,,,,3,0,3,0,0,9,9,5,,,,,num_4,1.3286087000160478,num_4,0.25,1.1,0.3,0.4,10.81288,14.41717,return,3.8163305000052787,,,,,,,16,21,female,left_right_width,2023_Oct_17_1443,exp1,2021.2.3,60.01666061211096,
,,,,,,,,,,,,,,,,4,9.3,9.766666666666667,10.233333333333333,10.7,0,0.4666666666666667,0.06666666666666665,0.4,1.8,10,match,36.05,335,352,369,386,0,9,9,9,9,0,,,,,3,0,3,0,0,10,10,11,,,,,num_4,1.6786066999775358,num_4,0.25,0.8,0.3,0.5,10.81288,18.02146,return,7.818641099962406,,,,,,,16,21,female,left_right_width,2023_Oct_17_1443,exp1,2021.2.3,60.01666061211096,
,,,,,,,,,,,,,,,,3,9,10,11,0,0,1,0.9,0.1,2.1,10,match,36.05,324,361,397,0,0,9,9,9,0,0,,,,,3,0,3,0,0,11,11,37,,,,,num_3,1.3297943000216037,num_3,0.15,1,0.04999999999999999,1.15,1.80215,41.44937,return,4.827699800021946,,,,,,,16,21,female,left_right_width,2023_Oct_17_1443,exp1,2021.2.3,60.01666061211096,
,,,,,,,,,,,,,,,,4,8.95,9.65,10.35,11.05,0,0.7,0.29999999999999993,0.4,2.5,10,initial,36.05,323,348,373,398,0,9,9,9,9,0,,,,,3,0,3,0,0,12,12,28,,,,,num_3,2.6005247000139207,num_3,0.3,1.2,0.10000000000000002,1.0,3.60429,36.04293,return,3.344595499977004,,,,,,,16,21,female,left_right_width,2023_Oct_17_1443,exp1,2021.2.3,60.01666061211096,
,,,,,,,,,,,,,,,,3,9.1,10,10.9,0,0,0.9,0.5,0.4,2.2,10,initial,36.05,328,361,393,0,0,9,9,9,0,0,,,,,3,0,3,0,0,13,13,16,,,,,num_4,1.1486595000023954,num_4,0.25,0.4,0.25,0.7,9.01073,25.23005,return,4.23715150001226,,,,,,,16,21,female,left_right_width,2023_Oct_17_1443,exp1,2021.2.3,60.01666061211096,
,,,,,,,,,,,,,,,,3,9.3,10,10.7,0,0,0.7,0.44999999999999996,0.25,1.65,10,initial,36.05,335,361,386,0,0,9,9,9,0,0,,,,,3,0,3,0,0,14,14,8,,,,,num_3,1.3091864000307396,num_3,0.15,1.1,0.15,0.7,5.40644,25.23005,return,4.149452899990138,,,,,,,16,21,female,left_right_width,2023_Oct_17_1443,exp1,2021.2.3,60.01666061211096,
,,,,,,,,,,,,,,,,3,9,10,11,0,0,0.9999999999999999,0.5999999999999999,0.4,2.4,10,match,36.05,324,361,397,0,0,9,9,9,0,0,,,,,3,0,3,0,0,15,15,41,,,,,num_3,1.1023322999826632,num_3,0.45,0.9,0.4,0.95,14.41717,34.24078,return,6.098369100014679,,,,,,,16,21,female,left_right_width,2023_Oct_17_1443,exp1,2021.2.3,60.01666061211096,
,,,,,,,,,,,,,,,,5,8.95,9.475,10,10.525,11.05,0.525,0.275,0.25,2.35,10,match,36.05,323,342,361,379,398,9,9,9,9,9,,,,,3,0,3,0,0,16,16,27,,,,,num_5,1.0339261000044644,num_5,0.45,0.8,0.4,0.8,14.41717,28.83434,return,1.711829999985639,,,,,,,16,21,female,left_right_width,2023_Oct_17_1443,exp1,2021.2.3,60.01666061211096,
,,,,,,,,,,,,,,,,5,9,9.5,10,10.5,11,0.5,0.4,0.1,2.1,10,initial,36.05,324,342,361,379,397,9,9,9,9,9,,,,,3,0,3,0,0,17,17,36,,,,,num_6,1.0800606000120752,num_6,0.3,1.0,0.10000000000000002,0.8,3.60429,28.83434,return,3.6104180000256747,,,,,,,16,21,female,left_right_width,2023_Oct_17_1443,exp1,2021.2.3,60.01666061211096,
,,,,,,,,,,,,,,,,5,8.95,9.475,10,10.525,11.05,0.525,0.42500000000000004,0.1,2.2,10,match,36.05,323,342,361,379,398,9,9,9,9,9,,,,,3,0,3,0,0,18,18,25,,,,,num_6,0.9738533000345342,num_6,0.4,0.9,0.05000000000000007,0.9,1.80215,32.43864,return,6.2909484000410885,,,,,,,16,21,female,left_right_width,2023_Oct_17_1443,exp1,2021.2.3,60.01666061211096,
,,,,,,,,,,,,,,,,5,8.6,9.3,10,10.7,11.4,0.7,0.44999999999999996,0.25,3.05,10,initial,36.05,310,335,361,386,411,9,9,9,9,9,,,,,3,0,3,0,0,19,19,44,,,,,num_6,1.0426860000006855,num_6,0.3,0.9,0.25,0.7,9.01073,25.23005,return,2.487832500017248,,,,,,,16,21,female,left_right_width,2023_Oct_17_1443,exp1,2021.2.3,60.01666061211096,
,,,,,,,,,,,,,,,,3,9.1,10,10.9,0,0,0.9,0.65,0.25,2.05,10,initial,36.05,328,361,393,0,0,9,9,9,0,0,,,,,3,0,3,0,0,20,20,14,,,,,num_3,5.477419900009409,num_3,0.2,0.8,0.2,0.8,7.20859,28.83434,return,3.2093968999688514,,,,,,,16,21,female,left_right_width,2023_Oct_17_1443,exp1,2021.2.3,60.01666061211096,
,,,,,,,,,,,,,,,,4,8.65,9.55,10.45,11.35,0,0.9,0.5,0.4,3.1,10,initial,36.05,312,344,377,409,0,9,9,9,9,0,,,,,3,0,3,0,0,21,21,34,,,,,num_5,2.3353652000078,num_5,0.2,0.4,0.35,0.65,12.61502,23.4279,return,4.8971990999998525,,,,,,,16,21,female,left_right_width,2023_Oct_17_1443,exp1,2021.2.3,60.01666061211096,
,,,,,,,,,,,,,,,,5,8.2,9.1,10,10.9,11.8,0.9,0.5,0.4,4,10,initial,36.05,296,328,361,393,425,9,9,9,9,9,,,,,3,0,3,0,0,22,22,52,,,,,num_6,1.1132899000076577,num_6,0.1,1.3,0.25,1.1,9.01073,39.64722,return,10.829032500041649,,,,,,,16,21,female,left_right_width,2023_Oct_17_1443,exp1,2021.2.3,60.01666061211096,
,,,,,,,,,,,,,,,,3,9.3,10,10.7,0,0,0.7,0.6,0.1,1.5,10,initial,36.05,335,361,386,0,0,9,9,9,0,0,,,,,3,0,3,0,0,23,23,6,,,,,num_2,2.0234416000312194,num_2,0.1,1.6,0.2,0.7,7.20859,25.23005,return,6.2448877999559045,,,,,,,16,21,female,left_right_width,2023_Oct_17_1443,exp1,2021.2.3,60.01666061211096,
,,,,,,,,,,,,,,,,3,8.525,10,11.475,0,0,1.475,1.225,0.25,3.2,10,match,36.05,307,361,414,0,0,9,9,9,0,0,,,,,3,0,3,0,0,24,24,47,,,,,num_3,0.9236057000234723,num_3,0.3,1.3,0.25,1.5,9.01073,54.06439,return,5.34915240004193,,,,,,,16,21,female,left_right_width,2023_Oct_17_1443,exp1,2021.2.3,60.01666061211096,
,,,,,,,,,,,,,,,,5,8.2,9.1,10,10.9,11.8,0.9,0.65,0.25,3.85,10,initial,36.05,296,328,361,393,425,9,9,9,9,9,,,,,3,0,3,0,0,25,25,50,,,,,num_6,1.704795399971772,num_6,0.15,0.9,0.25,1.2,9.01073,43.25151,return,2.579485599999316,,,,,,,16,21,female,left_right_width,2023_Oct_17_1443,exp1,2021.2.3,60.01666061211096,
,,,,,,,,,,,,,,,,3,8.2,10,11.8,0,0,1.8000000000000003,1.7000000000000002,0.1,3.7,10,match,36.05,296,361,425,0,0,9,9,9,0,0,,,,,3,0,3,0,0,26,26,49,,,,,num_5,1.1325822999933735,num_5,0.35,1.0,0.2,0.95,7.20859,34.24078,return,3.437550199974794,,,,,,,16,21,female,left_right_width,2023_Oct_17_1443,exp1,2021.2.3,60.01666061211096,
,,,,,,,,,,,,,,,,4,9.3,9.766666666666667,10.233333333333333,10.7,0,0.4666666666666667,0.3666666666666667,0.1,1.5,10,match,36.05,335,352,369,386,0,9,9,9,9,0,,,,,3,0,3,0,0,27,27,7,,,,,num_4,1.7029664000147022,num_4,0.15,0.5,0.2,0.6,7.20859,21.62576,return,3.648131999943871,,,,,,,16,21,female,left_right_width,2023_Oct_17_1443,exp1,2021.2.3,60.01666061211096,
,,,,,,,,,,,,,,,,3,9,10,11,0,0,1,0.75,0.25,2.25,10,match,36.05,324,361,397,0,0,9,9,9,0,0,,,,,3,0,3,0,0,28,28,39,,,,,num_3,3.1227832000004128,num_3,0.25,0.3,-0.25,0.35,-9.01073,12.61502,return,13.570421600015834,,,,,,,16,21,female,left_right_width,2023_Oct_17_1443,exp1,2021.2.3,60.01666061211096,
,,,,,,,,,,,,,,,,4,9.5,9.833333333333334,10.166666666666666,10.5,0,0.33333333333333337,0.23333333333333336,0.1,1.1,10,match,36.05,342,354,367,379,0,9,9,9,9,0,,,,,3,0,3,0,0,29,29,1,,,,,num_4,1.319756300013978,num_4,0.25,0.5,0.10000000000000002,0.4,3.60429,14.41717,return,2.9932872999925166,,,,,,,16,21,female,left_right_width,2023_Oct_17_1443,exp1,2021.2.3,60.01666061211096,
,,,,,,,,,,,,,,,,4,9.3,9.766666666666667,10.233333333333333,10.7,0,0.4666666666666667,0.21666666666666665,0.25,1.65,10,match,36.05,335,352,369,386,0,9,9,9,9,0,,,,,3,0,3,0,0,30,30,9,,,,,num_5,1.404715100012254,num_5,0.25,0.9,0.2,0.55,7.20859,19.82361,return,3.985835600004066,,,,,,,16,21,female,left_right_width,2023_Oct_17_1443,exp1,2021.2.3,60.01666061211096,
,,,,,,,,,,,,,,,,4,9.1,9.7,10.3,10.9,0,0.5999999999999999,0.3499999999999999,0.25,2.05,10,match,36.05,328,350,371,393,0,9,9,9,9,0,,,,,3,0,3,0,0,31,31,15,,,,,num_5,1.6446732999756932,num_5,0.35,1.3,0.25,0.9,9.01073,32.43864,return,3.706270599970594,,,,,,,16,21,female,left_right_width,2023_Oct_17_1443,exp1,2021.2.3,60.01666061211096,
,,,,,,,,,,,,,,,,3,9.5,10,10.5,0,0,0.5,0.4,0.1,1.1,10,initial,36.05,342,361,379,0,0,9,9,9,0,0,,,,,3,0,3,0,0,32,32,0,,,,,num_3,1.195524699985981,num_3,0.25,1.1,0.3,1.1,10.81288,39.64722,return,3.6243171999813057,,,,,,,16,21,female,left_right_width,2023_Oct_17_1443,exp1,2021.2.3,60.01666061211096,
,,,,,,,,,,,,,,,,4,9.25,9.75,10.25,10.75,0,0.5,0.09999999999999998,0.4,1.9,10,initial,36.05,333,351,370,388,0,9,9,9,9,0,,,,,3,0,3,0,0,33,33,22,,,,,num_4,1.0526159000000916,num_4,0.3,0.7,0.44999999999999996,0.6,16.21932,21.62576,return,10.529391399992164,,,,,,,16,21,female,left_right_width,2023_Oct_17_1443,exp1,2021.2.3,60.01666061211096,
,,,,,,,,,,,,,,,,5,9,9.5,10,10.5,11,0.5,0.25,0.25,2.25,10,initial,36.05,324,342,361,379,397,9,9,9,9,9,,,,,3,0,3,0,0,34,34,38,,,,,num_6,2.1323796000215225,num_6,0.25,1.3,0.7500000000000001,0.9,27.0322,32.43864,return,17.66252330003772,,,,,,,16,21,female,left_right_width,2023_Oct_17_1443,exp1,2021.2.3,60.01666061211096,
,,,,,,,,,,,,,,,,5,8.6,9.3,10,10.7,11.4,0.7,0.6,0.1,2.9,10,initial,36.05,310,335,361,386,411,9,9,9,9,9,,,,,3,0,3,0,0,35,35,42,,,,,num_5,0.9467642999952659,num_5,0.15,0.5,0.09999999999999999,0.7,3.60429,25.23005,return,3.8693121999967843,,,,,,,16,21,female,left_right_width,2023_Oct_17_1443,exp1,2021.2.3,60.01666061211096,
,,,,,,,,,,,,,,,,4,8.65,9.55,10.45,11.35,0,0.9,0.65,0.25,2.95,10,initial,36.05,312,344,377,409,0,9,9,9,9,0,,,,,3,0,3,0,0,36,36,32,,,,,num_5,1.1539405999938026,num_5,0.2,0.9,0.2,1.05,7.20859,37.84507,return,3.954631000000518,,,,,,,16,21,female,left_right_width,2023_Oct_17_1443,exp1,2021.2.3,60.01666061211096,
,,,,,,,,,,,,,,,,5,9.25,9.625,10,10.375,10.75,0.375,0.125,0.25,1.75,10,match,36.05,333,347,361,374,388,9,9,9,9,9,,,,,3,0,3,0,0,37,37,21,,,,,num_3,4.7855966000352055,num_3,0.3,1,0.25,1.2,9.01073,43.25151,return,7.920427800039761,,,,,,,16,21,female,left_right_width,2023_Oct_17_1443,exp1,2021.2.3,60.01666061211096,
,,,,,,,,,,,,,,,,4,9.25,9.75,10.25,10.75,0,0.5,0.4,0.1,1.6,10,initial,36.05,333,351,370,388,0,9,9,9,9,0,,,,,3,0,3,0,0,38,38,18,,,,,num_5,1.1106869000359438,num_5,0.15,0.9,0.09999999999999999,0.5,3.60429,18.02146,return,9.305342499981634,,,,,,,16,21,female,left_right_width,2023_Oct_17_1443,exp1,2021.2.3,60.01666061211096,
,,,,,,,,,,,,,,,,3,9.5,10,10.5,0,0,0.5,0.25,0.25,1.25,10,initial,36.05,342,361,379,0,0,9,9,9,0,0,,,,,3,0,3,0,0,39,39,2,,,,,num_3,1.2230984999914654,num_3,0.25,1.1,0.35,0.55,12.61502,19.82361,return,6.7228774999966845,,,,,,,16,21,female,left_right_width,2023_Oct_17_1443,exp1,2021.2.3,60.01666061211096,
,,,,,,,,,,,,,,,,3,9.5,10,10.5,0,0,0.5,0.09999999999999998,0.4,1.4000000000000001,10,initial,36.05,342,361,379,0,0,9,9,9,0,0,,,,,3,0,3,0,0,40,40,4,,,,,num_3,1.976861100003589,num_3,0.3,1.1,0.25,0.6,9.01073,21.62576,return,9.127174000022933,,,,,,,16,21,female,left_right_width,2023_Oct_17_1443,exp1,2021.2.3,60.01666061211096,
,,,,,,,,,,,,,,,,5,8.65,9.325,10,10.675,11.35,0.675,0.42500000000000004,0.25,2.95,10,match,36.05,312,336,361,385,409,9,9,9,9,9,,,,,3,0,3,0,0,41,41,33,,,,,num_3,5.355750799993984,num_3,0.1,1,0.15000000000000002,1.1,5.40644,39.64722,return,5.557605099980719,,,,,,,16,21,female,left_right_width,2023_Oct_17_1443,exp1,2021.2.3,60.01666061211096,
,,,,,,,,,,,,,,,,4,9.1,9.7,10.3,10.9,0,0.6000000000000001,0.20000000000000004,0.4,2.2,10,match,36.05,328,350,371,393,0,9,9,9,9,0,,,,,3,0,3,0,0,42,42,17,,,,,num_5,1.1607220000005327,num_5,0.15,1.2,0.49999999999999994,0.75,18.02146,27.0322,return,6.697818499989808,,,,,,,16,21,female,left_right_width,2023_Oct_17_1443,exp1,2021.2.3,60.01666061211096,
,,,,,,,,,,,,,,,,3,9.1,10,10.9,0,0,0.9,0.8,0.1,1.9000000000000001,10,initial,36.05,328,361,393,0,0,9,9,9,0,0,,,,,3,0,3,0,0,43,43,12,,,,,num_4,2.39990029996261,num_4,0.1,1.0,0.15000000000000002,0.9,5.40644,32.43864,return,7.310166499984916,,,,,,,16,21,female,left_right_width,2023_Oct_17_1443,exp1,2021.2.3,60.01666061211096,
,,,,,,,,,,,,,,,,4,8.95,9.65,10.35,11.05,0,0.7,0.6,0.1,2.1999999999999997,10,initial,36.05,323,348,373,398,0,9,9,9,9,0,,,,,3,0,3,0,0,44,44,24,,,,,num_4,0.9993940000422299,num_4,0.45,1.1,0.15000000000000008,0.9,5.40644,32.43864,return,7.791027900006156,,,,,,,16,21,female,left_right_width,2023_Oct_17_1443,exp1,2021.2.3,60.01666061211096,
,,,,,,,,,,,,,,,,4,9.25,9.75,10.25,10.75,0,0.5,0.25,0.25,1.75,10,initial,36.05,333,351,370,388,0,9,9,9,9,0,,,,,3,0,3,0,0,45,45,20,,,,,num_3,2.5477123000309803,num_3,0.15,0.7,0.35,1.2,12.61502,43.25151,return,11.517232000012882,,,,,,,16,21,female,left_right_width,2023_Oct_17_1443,exp1,2021.2.3,60.01666061211096,
,,,,,,,,,,,,,,,,3,8.2,10,11.8,0,0,1.8,1.55,0.25,3.85,10,match,36.05,296,361,425,0,0,9,9,9,0,0,,,,,3,0,3,0,0,46,46,51,,,,,num_5,1.4047069000080228,num_5,0.15,0.5,0.09999999999999999,1.45,3.60429,52.26225,return,9.34477369999513,,,,,,,16,21,female,left_right_width,2023_Oct_17_1443,exp1,2021.2.3,60.01666061211096,
,,,,,,,,,,,,,,,,5,8.65,9.325,10,10.675,11.35,0.6749999999999999,0.575,0.1,2.8,10,match,36.05,312,336,361,385,409,9,9,9,9,9,,,,,3,0,3,0,0,47,47,31,,,,,num_6,1.1140207999851555,num_6,0.3,0.5,0.05000000000000002,0.9,1.80215,32.43864,return,8.349939099978656,,,,,,,16,21,female,left_right_width,2023_Oct_17_1443,exp1,2021.2.3,60.01666061211096,
,,,,,,,,,,,,,,,,4,9.5,9.833333333333334,10.166666666666666,10.5,0,0.3333333333333333,0.08333333333333333,0.25,1.25,10,match,36.05,342,354,367,379,0,9,9,9,9,0,,,,,3,0,3,0,0,48,48,3,,,,,num_5,2.987395900010597,num_5,0.15,0.5,0.2,0.25,7.20859,9.01073,return,4.20659820002038,,,,,,,16,21,female,left_right_width,2023_Oct_17_1443,exp1,2021.2.3,60.01666061211096,
,,,,,,,,,,,,,,,,5,8.2,9.1,10,10.9,11.8,0.9,0.8,0.1,3.7,10,initial,36.05,296,328,361,393,425,9,9,9,9,9,,,,,3,0,3,0,0,49,49,48,,,,,num_4,6.034501600021031,num_4,0.35,0.6,0.49999999999999994,1.1,18.02146,39.64722,return,8.08064329996705,,,,,,,16,21,female,left_right_width,2023_Oct_17_1443,exp1,2021.2.3,60.01666061211096,
,,,,,,,,,,,,,,,,5,8.65,9.325,10,10.675,11.35,0.675,0.275,0.4,3.1,10,match,36.05,312,336,361,385,409,9,9,9,9,9,,,,,3,0,3,0,0,50,50,35,,,,,num_4,5.2100213000085205,num_4,0.35,1.2,0.35,0.8,12.61502,28.83434,return,7.944621300033759,,,,,,,16,21,female,left_right_width,2023_Oct_17_1443,exp1,2021.2.3,60.01666061211096,
,,,,,,,,,,,,,,,,3,8.6,10,11.4,0,0,1.4,1.15,0.25,3.05,10,match,36.05,310,361,411,0,0,9,9,9,0,0,,,,,3,0,3,0,0,51,51,45,,,,,num_5,1.169255200016778,num_5,0.45,1.0,0.15000000000000008,0.8,5.40644,28.83434,return,11.426166599965654,,,,,,,16,21,female,left_right_width,2023_Oct_17_1443,exp1,2021.2.3,60.01666061211096,
,,,,,,,,,,,,,,,,5,9.25,9.625,10,10.375,10.75,0.375,0.275,0.1,1.6,10,match,36.05,333,347,361,374,388,9,9,9,9,9,,,,,3,0,3,0,0,52,52,19,,,,,num_6,1.2145738000399433,num_6,0.3,0.7,0.2,0.4,7.20859,14.41717,return,2.3824554000166245,,,,,,,16,21,female,left_right_width,2023_Oct_17_1443,exp1,2021.2.3,60.01666061211096,
,,,,,,,,,,,,,,,,4,8.65,9.55,10.45,11.35,0,0.9,0.8,0.1,2.8000000000000003,10,initial,36.05,312,344,377,409,0,9,9,9,9,0,,,,,3,0,3,0,0,53,53,30,,,,,num_5,1.2686625000205822,num_5,0.15,0.9,0.15,0.7,5.40644,25.23005,return,12.865488599985838,,,,,,,16,21,female,left_right_width,2023_Oct_17_1443,exp1,2021.2.3,60.01666061211096,
,,,,,,,,,,,,,,,,,,,,,,,,,,,,,,,,,,,,,,,,,,,3,0,3,0,,,,,,,,,,,,,,,,,,,,,,2242.4176442000316,None,2242.4176442000316,None,16,21,female,left_right_width,2023_Oct_17_1443,exp1,2021.2.3,60.01666061211096,
,,,,,,,,,,,,,,,,3,9.5,10,10.5,0,0,0.5,0.4,0.1,1.1,10,initial,36.05,342,361,379,0,0,9,9,9,0,0,,,,,4,0,4,0,0,0,0,0,,,,,num_2,0.9456959000090137,num_2,0.2,1.6,0.15000000000000002,0.6,5.40644,21.62576,return,5.435933300002944,,,,,,,16,21,female,left_right_width,2023_Oct_17_1443,exp1,2021.2.3,60.01666061211096,
,,,,,,,,,,,,,,,,4,9.5,9.833333333333334,10.166666666666666,10.5,0,0.33333333333333337,0.23333333333333336,0.1,1.1,10,match,36.05,342,354,367,379,0,9,9,9,9,0,,,,,4,0,4,0,0,1,1,1,,,,,num_3,0.9460989000508562,num_3,0.35,1.3,0.15000000000000002,0.7,5.40644,25.23005,return,3.435242499981541,,,,,,,16,21,female,left_right_width,2023_Oct_17_1443,exp1,2021.2.3,60.01666061211096,
,,,,,,,,,,,,,,,,5,8.95,9.475,10,10.525,11.05,0.525,0.42500000000000004,0.1,2.2,10,match,36.05,323,342,361,379,398,9,9,9,9,9,,,,,4,0,4,0,0,2,2,25,,,,,num_4,0.8468181000207551,num_4,0.15,0.6,0.15,0.7,5.40644,25.23005,return,1.1001168999937363,,,,,,,16,21,female,left_right_width,2023_Oct_17_1443,exp1,2021.2.3,60.01666061211096,
,,,,,,,,,,,,,,,,4,8.65,9.55,10.45,11.35,0,0.9,0.65,0.25,2.95,10,initial,36.05,312,344,377,409,0,9,9,9,9,0,,,,,4,0,4,0,0,3,3,32,,,,,num_4,1.3565451999893412,num_4,0.35,1.0,0.2,0.9,7.20859,32.43864,return,2.7085080000106245,,,,,,,16,21,female,left_right_width,2023_Oct_17_1443,exp1,2021.2.3,60.01666061211096,
,,,,,,,,,,,,,,,,3,9.5,10,10.5,0,0,0.5,0.09999999999999998,0.4,1.4000000000000001,10,initial,36.05,342,361,379,0,0,9,9,9,0,0,,,,,4,0,4,0,0,4,4,4,,,,,num_3,0.9851955999620259,num_3,0.2,0.5,0.3,0.5,10.81288,18.02146,return,2.6858361999620683,,,,,,,16,21,female,left_right_width,2023_Oct_17_1443,exp1,2021.2.3,60.01666061211096,
,,,,,,,,,,,,,,,,4,9.25,9.75,10.25,10.75,0,0.5,0.09999999999999998,0.4,1.9,10,initial,36.05,333,351,370,388,0,9,9,9,9,0,,,,,4,0,4,0,0,5,5,22,,,,,num_4,0.8272157000028528,num_4,0.15,1.3,0.39999999999999997,0.6,14.41717,21.62576,return,4.105205199972261,,,,,,,16,21,female,left_right_width,2023_Oct_17_1443,exp1,2021.2.3,60.01666061211096,
,,,,,,,,,,,,,,,,4,9.1,9.7,10.3,10.9,0,0.6,0.5,0.1,1.9,10,match,36.05,328,350,371,393,0,9,9,9,9,0,,,,,4,0,4,0,0,6,6,13,,,,,num_4,1.0373668000102043,num_4,0.25,0.5,0.2,0.6,7.20859,21.62576,return,2.4339239000109956,,,,,,,16,21,female,left_right_width,2023_Oct_17_1443,exp1,2021.2.3,60.01666061211096,
,,,,,,,,,,,,,,,,5,9,9.5,10,10.5,11,0.5,0.4,0.1,2.1,10,initial,36.05,324,342,361,379,397,9,9,9,9,9,,,,,4,0,4,0,0,7,7,36,,,,,num_5,0.8904003000352532,num_5,0.2,1.0,0.10000000000000002,0.75,3.60429,27.0322,return,3.0766147000249475,,,,,,,16,21,female,left_right_width,2023_Oct_17_1443,exp1,2021.2.3,60.01666061211096,
,,,,,,,,,,,,,,,,5,9.25,9.625,10,10.375,10.75,0.375,0.275,0.1,1.6,10,match,36.05,333,347,361,374,388,9,9,9,9,9,,,,,4,0,4,0,0,8,8,19,,,,,num_5,1.0948913999600336,num_5,0.2,1.0,0.15000000000000002,0.75,5.40644,27.0322,return,2.3294623999972828,,,,,,,16,21,female,left_right_width,2023_Oct_17_1443,exp1,2021.2.3,60.01666061211096,
,,,,,,,,,,,,,,,,5,8.2,9.1,10,10.9,11.8,0.9,0.5,0.4,4,10,initial,36.05,296,328,361,393,425,9,9,9,9,9,,,,,4,0,4,0,0,9,9,52,,,,,num_6,1.1778124999837019,num_6,0.25,1.0,0.25,0.8,9.01073,28.83434,return,2.874003899982199,,,,,,,16,21,female,left_right_width,2023_Oct_17_1443,exp1,2021.2.3,60.01666061211096,
,,,,,,,,,,,,,,,,5,8.65,9.325,10,10.675,11.35,0.6749999999999999,0.575,0.1,2.8,10,match,36.05,312,336,361,385,409,9,9,9,9,9,,,,,4,0,4,0,0,10,10,31,,,,,num_6,0.950784599990584,num_6,0.4,0.8,0.20000000000000007,0.9,7.20859,32.43864,return,3.487946400011424,,,,,,,16,21,female,left_right_width,2023_Oct_17_1443,exp1,2021.2.3,60.01666061211096,
,,,,,,,,,,,,,,,,5,9,9.5,10,10.5,11,0.5,0.25,0.25,2.25,10,initial,36.05,324,342,361,379,397,9,9,9,9,9,,,,,4,0,4,0,0,11,11,38,,,,,num_6,0.8434344999841414,num_6,0.25,1.0,0.3,0.8,10.81288,28.83434,return,3.769311799958814,,,,,,,16,21,female,left_right_width,2023_Oct_17_1443,exp1,2021.2.3,60.01666061211096,
,,,,,,,,,,,,,,,,4,8.95,9.65,10.35,11.05,0,0.7,0.6,0.1,2.1999999999999997,10,initial,36.05,323,348,373,398,0,9,9,9,9,0,,,,,4,0,4,0,0,12,12,24,,,,,num_6,0.9852915999945253,num_6,0.15,1.1,0.2,0.6,7.20859,21.62576,return,5.728896900021937,,,,,,,16,21,female,left_right_width,2023_Oct_17_1443,exp1,2021.2.3,60.01666061211096,
,,,,,,,,,,,,,,,,5,8.6,9.3,10,10.7,11.4,0.7,0.29999999999999993,0.4,3.1999999999999997,10,initial,36.05,310,335,361,386,411,9,9,9,9,9,,,,,4,0,4,0,0,13,13,46,,,,,num_5,0.8332263000193052,num_5,0.2,0.4,0.39999999999999997,1.0,14.41717,36.04293,return,5.087658000004012,,,,,,,16,21,female,left_right_width,2023_Oct_17_1443,exp1,2021.2.3,60.01666061211096,
,,,,,,,,,,,,,,,,3,9.1,10,10.9,0,0,0.9,0.8,0.1,1.9000000000000001,10,initial,36.05,328,361,393,0,0,9,9,9,0,0,,,,,4,0,4,0,0,14,14,12,,,,,num_3,0.9993013999774121,num_3,0.35,0.7,0.2,0.95,7.20859,34.24078,return,5.182997600000817,,,,,,,16,21,female,left_right_width,2023_Oct_17_1443,exp1,2021.2.3,60.01666061211096,
,,,,,,,,,,,,,,,,4,8.95,9.65,10.35,11.05,0,0.7,0.29999999999999993,0.4,2.5,10,initial,36.05,323,348,373,398,0,9,9,9,9,0,,,,,4,0,4,0,0,15,15,28,,,,,num_4,1.051935700001195,num_4,0.25,0.9,0.35,1.0,12.61502,36.04293,return,3.999550900014583,,,,,,,16,21,female,left_right_width,2023_Oct_17_1443,exp1,2021.2.3,60.01666061211096,
,,,,,,,,,,,,,,,,5,8.95,9.475,10,10.525,11.05,0.525,0.275,0.25,2.35,10,match,36.05,323,342,361,379,398,9,9,9,9,9,,,,,4,0,4,0,0,16,16,27,,,,,num_5,0.8615265999687836,num_5,0.15,1.3,0.3,1.2,10.81288,43.25151,return,3.866069499985315,,,,,,,16,21,female,left_right_width,2023_Oct_17_1443,exp1,2021.2.3,60.01666061211096,
,,,,,,,,,,,,,,,,4,9.1,9.7,10.3,10.9,0,0.6000000000000001,0.20000000000000004,0.4,2.2,10,match,36.05,328,350,371,393,0,9,9,9,9,0,,,,,4,0,4,0,0,17,17,17,,,,,num_4,1.2220401000231504,num_4,0.1,0.4,0.3,1.0,10.81288,36.04293,return,3.7466456000111066,,,,,,,16,21,female,left_right_width,2023_Oct_17_1443,exp1,2021.2.3,60.01666061211096,
,,,,,,,,,,,,,,,,4,9.3,9.766666666666667,10.233333333333333,10.7,0,0.4666666666666667,0.21666666666666665,0.25,1.65,10,match,36.05,335,352,369,386,0,9,9,9,9,0,,,,,4,0,4,0,0,18,18,9,,,,,num_6,1.2165299999760464,num_6,0.15,0.7,0.25,0.8,9.01073,28.83434,return,7.951103700033855,,,,,,,16,21,female,left_right_width,2023_Oct_17_1443,exp1,2021.2.3,60.01666061211096,
,,,,,,,,,,,,,,,,5,8.6,9.3,10,10.7,11.4,0.7,0.44999999999999996,0.25,3.05,10,initial,36.05,310,335,361,386,411,9,9,9,9,9,,,,,4,0,4,0,0,19,19,44,,,,,num_5,0.8842197000049055,num_5,0.4,0.8,0.30000000000000004,1.1,10.81288,39.64722,return,3.7249878000002354,,,,,,,16,21,female,left_right_width,2023_Oct_17_1443,exp1,2021.2.3,60.01666061211096,
,,,,,,,,,,,,,,,,3,9.5,10,10.5,0,0,0.5,0.25,0.25,1.25,10,initial,36.05,342,361,379,0,0,9,9,9,0,0,,,,,4,0,4,0,0,20,20,2,,,,,num_3,1.5323948999866843,num_3,0.45,0.7,0.35000000000000003,0.75,12.61502,27.0322,return,2.0758366000372916,,,,,,,16,21,female,left_right_width,2023_Oct_17_1443,exp1,2021.2.3,60.01666061211096,
,,,,,,,,,,,,,,,,5,8.65,9.325,10,10.675,11.35,0.675,0.275,0.4,3.1,10,match,36.05,312,336,361,385,409,9,9,9,9,9,,,,,4,0,4,0,0,21,21,35,,,,,num_4,0.8720333999954164,num_4,0.2,0.6,0.39999999999999997,0.9,14.41717,32.43864,return,3.2057239999994636,,,,,,,16,21,female,left_right_width,2023_Oct_17_1443,exp1,2021.2.3,60.01666061211096,
,,,,,,,,,,,,,,,,3,9,10,11,0,0,1,0.9,0.1,2.1,10,match,36.05,324,361,397,0,0,9,9,9,0,0,,,,,4,0,4,0,0,22,22,37,,,,,num_3,1.0146578999701887,num_3,0.1,1.1,0.05,1.15,1.80215,41.44937,return,1.8828349999967031,,,,,,,16,21,female,left_right_width,2023_Oct_17_1443,exp1,2021.2.3,60.01666061211096,
,,,,,,,,,,,,,,,,3,8.2,10,11.8,0,0,1.8000000000000003,1.7000000000000002,0.1,3.7,10,match,36.05,296,361,425,0,0,9,9,9,0,0,,,,,4,0,4,0,0,23,23,49,,,,,num_3,0.8567339000292122,num_3,0.25,0.6,0.05000000000000002,1.95,1.80215,70.28371,return,8.004091500013601,,,,,,,16,21,female,left_right_width,2023_Oct_17_1443,exp1,2021.2.3,60.01666061211096,
,,,,,,,,,,,,,,,,5,9,9.5,10,10.5,11,0.5,0.09999999999999998,0.4,2.4,10,initial,36.05,324,342,361,379,397,9,9,9,9,9,,,,,4,0,4,0,0,24,24,40,,,,,num_5,1.5112979999976233,num_5,0.3,0.6,0.39999999999999997,0.55,14.41717,19.82361,return,4.09126890002517,,,,,,,16,21,female,left_right_width,2023_Oct_17_1443,exp1,2021.2.3,60.01666061211096,
,,,,,,,,,,,,,,,,4,9.1,9.7,10.3,10.9,0,0.5999999999999999,0.3499999999999999,0.25,2.05,10,match,36.05,328,350,371,393,0,9,9,9,9,0,,,,,4,0,4,0,0,25,25,15,,,,,num_5,1.1586681000189856,num_5,0.15,1.2,0.39999999999999997,1.2,14.41717,43.25151,return,2.245492399961222,,,,,,,16,21,female,left_right_width,2023_Oct_17_1443,exp1,2021.2.3,60.01666061211096,
,,,,,,,,,,,,,,,,5,8.65,9.325,10,10.675,11.35,0.675,0.42500000000000004,0.25,2.95,10,match,36.05,312,336,361,385,409,9,9,9,9,9,,,,,4,0,4,0,0,26,26,33,,,,,num_6,0.9183921999647282,num_6,0.15,0.3,0.39999999999999997,1.2,14.41717,43.25151,return,9.74399359995732,,,,,,,16,21,female,left_right_width,2023_Oct_17_1443,exp1,2021.2.3,60.01666061211096,
,,,,,,,,,,,,,,,,4,9.3,9.766666666666667,10.233333333333333,10.7,0,0.4666666666666667,0.3666666666666667,0.1,1.5,10,match,36.05,335,352,369,386,0,9,9,9,9,0,,,,,4,0,4,0,0,27,27,7,,,,,num_5,1.0206617999938317,num_5,0.45,1.1,0.15000000000000008,0.4,5.40644,14.41717,return,5.010642800014466,,,,,,,16,21,female,left_right_width,2023_Oct_17_1443,exp1,2021.2.3,60.01666061211096,
,,,,,,,,,,,,,,,,4,8.65,9.55,10.45,11.35,0,0.9,0.5,0.4,3.1,10,initial,36.05,312,344,377,409,0,9,9,9,9,0,,,,,4,0,4,0,0,28,28,34,,,,,num_4,1.2324960000114515,num_4,0.35,1.0,0.39999999999999997,1.3,14.41717,46.85581,return,2.5590852999594063,,,,,,,16,21,female,left_right_width,2023_Oct_17_1443,exp1,2021.2.3,60.01666061211096,
,,,,,,,,,,,,,,,,4,9.25,9.75,10.25,10.75,0,0.5,0.4,0.1,1.6,10,initial,36.05,333,351,370,388,0,9,9,9,9,0,,,,,4,0,4,0,0,29,29,18,,,,,num_4,1.4886551000527106,num_4,0.15,0.4,0.2,0.4,7.20859,14.41717,return,2.181700900022406,,,,,,,16,21,female,left_right_width,2023_Oct_17_1443,exp1,2021.2.3,60.01666061211096,
,,,,,,,,,,,,,,,,3,8.6,10,11.4,0,0,1.4,1.15,0.25,3.05,10,match,36.05,310,361,411,0,0,9,9,9,0,0,,,,,4,0,4,0,0,30,30,45,,,,,num_2,1.1254802999901585,num_2,0.4,1.6,0.35000000000000003,1.6,12.61502,57.66869,return,4.135113600001205,,,,,,,16,21,female,left_right_width,2023_Oct_17_1443,exp1,2021.2.3,60.01666061211096,
,,,,,,,,,,,,,,,,3,9.3,10,10.7,0,0,0.7,0.29999999999999993,0.4,1.8,10,initial,36.05,335,361,386,0,0,9,9,9,0,0,,,,,4,0,4,0,0,31,31,10,,,,,num_3,0.9906013000290841,num_3,0.15,0.6,0.3,0.65,10.81288,23.4279,return,4.355929799959995,,,,,,,16,21,female,left_right_width,2023_Oct_17_1443,exp1,2021.2.3,60.01666061211096,
,,,,,,,,,,,,,,,,4,9.5,9.833333333333334,10.166666666666666,10.5,0,0.3333333333333333,0.08333333333333333,0.25,1.25,10,match,36.05,342,354,367,379,0,9,9,9,9,0,,,,,4,0,4,0,0,32,32,3,,,,,num_4,1.017703799996525,num_4,0.3,0.5,0.3,0.4,10.81288,14.41717,return,7.569136600010097,,,,,,,16,21,female,left_right_width,2023_Oct_17_1443,exp1,2021.2.3,60.01666061211096,
,,,,,,,,,,,,,,,,3,8.2,10,11.8,0,0,1.7999999999999998,1.4,0.4,4,10,match,36.05,296,361,425,0,0,9,9,9,0,0,,,,,4,0,4,0,0,33,33,53,,,,,num_3,0.9626690000295639,num_3,0.1,1.2,0.39999999999999997,2.3,14.41717,82.89874,return,9.482435199955944,,,,,,,16,21,female,left_right_width,2023_Oct_17_1443,exp1,2021.2.3,60.01666061211096,
,,,,,,,,,,,,,,,,5,8.2,9.1,10,10.9,11.8,0.9,0.8,0.1,3.7,10,initial,36.05,296,328,361,393,425,9,9,9,9,9,,,,,4,0,4,0,0,34,34,48,,,,,num_6,0.914996900013648,num_6,0.45,1.0,0.10000000000000007,1.0,3.60429,36.04293,return,5.27644580003107,,,,,,,16,21,female,left_right_width,2023_Oct_17_1443,exp1,2021.2.3,60.01666061211096,
,,,,,,,,,,,,,,,,3,9.1,10,10.9,0,0,0.9,0.65,0.25,2.05,10,initial,36.05,328,361,393,0,0,9,9,9,0,0,,,,,4,0,4,0,0,35,35,14,,,,,num_3,0.9467764000291936,num_3,0.45,0.7,0.30000000000000004,1.05,10.81288,37.84507,return,2.860347499954514,,,,,,,16,21,female,left_right_width,2023_Oct_17_1443,exp1,2021.2.3,60.01666061211096,
,,,,,,,,,,,,,,,,4,9.425,9.808333333333334,10.191666666666666,10.575,0,0.3833333333333333,0.1333333333333333,0.25,1.4,10,match,36.05,340,354,367,381,0,9,9,9,9,0,,,,,4,0,4,0,0,36,36,5,,,,,num_3,1.114078599959612,num_3,0.4,0.5,0.35000000000000003,0.45,12.61502,16.21932,return,2.633941499982029,,,,,,,16,21,female,left_right_width,2023_Oct_17_1443,exp1,2021.2.3,60.01666061211096,
,,,,,,,,,,,,,,,,3,9.3,10,10.7,0,0,0.7,0.6,0.1,1.5,10,initial,36.05,335,361,386,0,0,9,9,9,0,0,,,,,4,0,4,0,0,37,37,6,,,,,num_2,3.626158699975349,num_2,0.15,1.6,0.09999999999999999,0.5,3.60429,18.02146,return,5.369785999995656,,,,,,,16,21,female,left_right_width,2023_Oct_17_1443,exp1,2021.2.3,60.01666061211096,
,,,,,,,,,,,,,,,,3,9,10,11,0,0,1,0.75,0.25,2.25,10,match,36.05,324,361,397,0,0,9,9,9,0,0,,,,,4,0,4,0,0,38,38,39,,,,,num_3,1.0342065999866463,num_3,0.1,0.3,0.15000000000000002,0.95,5.40644,34.24078,return,4.446412599994801,,,,,,,16,21,female,left_right_width,2023_Oct_17_1443,exp1,2021.2.3,60.01666061211096,
,,,,,,,,,,,,,,,,5,8.2,9.1,10,10.9,11.8,0.9,0.65,0.25,3.85,10,initial,36.05,296,328,361,393,425,9,9,9,9,9,,,,,4,0,4,0,0,39,39,50,,,,,num_6,1.1432294999831356,num_6,0.35,0.7,0.2,1.1,7.20859,39.64722,return,2.39150010002777,,,,,,,16,21,female,left_right_width,2023_Oct_17_1443,exp1,2021.2.3,60.01666061211096,
,,,,,,,,,,,,,,,,3,9.1,10,10.9,0,0,0.9,0.5,0.4,2.2,10,initial,36.05,328,361,393,0,0,9,9,9,0,0,,,,,4,0,4,0,0,40,40,16,,,,,num_3,0.8634536999743432,num_3,0.3,0.9,0.44999999999999996,0.9,16.21932,32.43864,return,1.2432511000079103,,,,,,,16,21,female,left_right_width,2023_Oct_17_1443,exp1,2021.2.3,60.01666061211096,
,,,,,,,,,,,,,,,,3,8.525,10,11.475,0,0,1.475,1.225,0.25,3.2,10,match,36.05,307,361,414,0,0,9,9,9,0,0,,,,,4,0,4,0,0,41,41,47,,,,,num_3,1.0405139999929816,num_3,0.3,0.5,0.10000000000000002,0.95,3.60429,34.24078,return,6.502657599980012,,,,,,,16,21,female,left_right_width,2023_Oct_17_1443,exp1,2021.2.3,60.01666061211096,
,,,,,,,,,,,,,,,,5,9.25,9.625,10,10.375,10.75,0.375,0.125,0.25,1.75,10,match,36.05,333,347,361,374,388,9,9,9,9,9,,,,,4,0,4,0,0,42,42,21,,,,,num_5,1.0666223999578506,num_5,0.3,0.4,0.3,0.4,10.81288,14.41717,return,1.2628531000227667,,,,,,,16,21,female,left_right_width,2023_Oct_17_1443,exp1,2021.2.3,60.01666061211096,
,,,,,,,,,,,,,,,,3,8.2,10,11.8,0,0,1.8,1.55,0.25,3.85,10,match,36.05,296,361,425,0,0,9,9,9,0,0,,,,,4,0,4,0,0,43,43,51,,,,,num_5,1.4753862000070512,num_5,0.4,0.5,0.35000000000000003,1.2,12.61502,43.25151,return,7.766618599998765,,,,,,,16,21,female,left_right_width,2023_Oct_17_1443,exp1,2021.2.3,60.01666061211096,
,,,,,,,,,,,,,,,,3,9.3,10,10.7,0,0,0.7,0.44999999999999996,0.25,1.65,10,initial,36.05,335,361,386,0,0,9,9,9,0,0,,,,,4,0,4,0,0,44,44,8,,,,,num_3,1.1696265999926254,num_3,0.1,0.7,0.35,0.6,12.61502,21.62576,return,6.8478582999669015,,,,,,,16,21,female,left_right_width,2023_Oct_17_1443,exp1,2021.2.3,60.01666061211096,
,,,,,,,,,,,,,,,,4,8.65,9.55,10.45,11.35,0,0.9,0.8,0.1,2.8000000000000003,10,initial,36.05,312,344,377,409,0,9,9,9,9,0,,,,,4,0,4,0,0,45,45,30,,,,,num_5,1.094305400038138,num_5,0.2,1.2,0.10000000000000002,1.3,3.60429,46.85581,return,3.176817600033246,,,,,,,16,21,female,left_right_width,2023_Oct_17_1443,exp1,2021.2.3,60.01666061211096,
,,,,,,,,,,,,,,,,4,9.25,9.75,10.25,10.75,0,0.5,0.25,0.25,1.75,10,initial,36.05,333,351,370,388,0,9,9,9,9,0,,,,,4,0,4,0,0,46,46,20,,,,,num_4,3.02487610001117,num_4,0.1,1.3,0.1,1.0,3.60429,36.04293,return,9.541897899995092,,,,,,,16,21,female,left_right_width,2023_Oct_17_1443,exp1,2021.2.3,60.01666061211096,
,,,,,,,,,,,,,,,,4,8.95,9.65,10.35,11.05,0,0.7,0.44999999999999996,0.25,2.3499999999999996,10,initial,36.05,323,348,373,398,0,9,9,9,9,0,,,,,4,0,4,0,0,47,47,26,,,,,num_5,1.049272300035227,num_5,0.4,1.1,0.35000000000000003,0.8,12.61502,28.83434,return,2.9596216999925673,,,,,,,16,21,female,left_right_width,2023_Oct_17_1443,exp1,2021.2.3,60.01666061211096,
,,,,,,,,,,,,,,,,5,8.95,9.475,10,10.525,11.05,0.525,0.125,0.4,2.5,10,match,36.05,323,342,361,379,398,9,9,9,9,9,,,,,4,0,4,0,0,48,48,29,,,,,num_5,1.4768201999831945,num_5,0.3,0.5,0.44999999999999996,0.55,16.21932,19.82361,return,3.5442376999999397,,,,,,,16,21,female,left_right_width,2023_Oct_17_1443,exp1,2021.2.3,60.01666061211096,
,,,,,,,,,,,,,,,,3,8.6,10,11.4,0,0,1.4,1.2999999999999998,0.1,2.9,10,match,36.05,310,361,411,0,0,9,9,9,0,0,,,,,4,0,4,0,0,49,49,43,,,,,num_3,1.5150551000260748,num_3,0.25,0.4,0.10000000000000002,1.2,3.60429,43.25151,return,6.140081099991221,,,,,,,16,21,female,left_right_width,2023_Oct_17_1443,exp1,2021.2.3,60.01666061211096,
,,,,,,,,,,,,,,,,4,9.3,9.766666666666667,10.233333333333333,10.7,0,0.4666666666666667,0.06666666666666665,0.4,1.8,10,match,36.05,335,352,369,386,0,9,9,9,9,0,,,,,4,0,4,0,0,50,50,11,,,,,num_3,3.5344067999976687,num_3,0.25,1.2,0.25,1.25,9.01073,45.05366,return,3.4562170000281185,,,,,,,16,21,female,left_right_width,2023_Oct_17_1443,exp1,2021.2.3,60.01666061211096,
,,,,,,,,,,,,,,,,5,8.6,9.3,10,10.7,11.4,0.7,0.6,0.1,2.9,10,initial,36.05,310,335,361,386,411,9,9,9,9,9,,,,,4,0,4,0,0,51,51,42,,,,,num_5,0.9428189999889582,num_5,0.3,0.4,0.05000000000000002,0.85,1.80215,30.63649,return,7.912241999991238,,,,,,,16,21,female,left_right_width,2023_Oct_17_1443,exp1,2021.2.3,60.01666061211096,
,,,,,,,,,,,,,,,,3,9,10,11,0,0,0.9999999999999999,0.5999999999999999,0.4,2.4,10,match,36.05,324,361,397,0,0,9,9,9,0,0,,,,,4,0,4,0,0,52,52,41,,,,,num_3,1.132008999993559,num_3,0.1,0.4,0.2,1.25,7.20859,45.05366,return,10.49502809997648,,,,,,,16,21,female,left_right_width,2023_Oct_17_1443,exp1,2021.2.3,60.01666061211096,
,,,,,,,,,,,,,,,,5,9.175,9.5875,10,10.4125,10.825,0.4125,0.16249999999999998,0.25,1.9,10,match,36.05,331,346,361,375,390,9,9,9,9,9,,,,,4,0,4,0,0,53,53,23,,,,,num_6,1.2609080000547692,num_6,0.4,0.8,0.4,0.5,14.41717,18.02146,return,3.449441200005822,,,,,,,16,21,female,left_right_width,2023_Oct_17_1443,exp1,2021.2.3,60.01666061211096,
,,,,,,,,,,,,,,,,,,,,,,,,,,,,,,,,,,,,,,,,,,,4,0,4,0,,,,,,,,,,,,,,,,,,,,,,2727.1837811000296,None,2727.1837811000296,None,16,21,female,left_right_width,2023_Oct_17_1443,exp1,2021.2.3,60.01666061211096,
,,,,,,,,,,,,,,,,3,9,10,11,0,0,1,0.9,0.1,2.1,10,match,36.05,324,361,397,0,0,9,9,9,0,0,,,,,5,0,5,0,0,0,0,37,,,,,num_2,1.43505740002729,num_2,0.15,1.6,0.15,1.4,5.40644,50.4601,return,3.2636370999971405,,,,,,,16,21,female,left_right_width,2023_Oct_17_1443,exp1,2021.2.3,60.01666061211096,
,,,,,,,,,,,,,,,,3,9.3,10,10.7,0,0,0.7,0.44999999999999996,0.25,1.65,10,initial,36.05,335,361,386,0,0,9,9,9,0,0,,,,,5,0,5,0,0,1,1,8,,,,,num_2,1.4146804999909364,num_2,0.3,1.6,0.3,1.4,10.81288,50.4601,return,1.8540269000222906,,,,,,,16,21,female,left_right_width,2023_Oct_17_1443,exp1,2021.2.3,60.01666061211096,
,,,,,,,,,,,,,,,,5,9,9.5,10,10.5,11,0.5,0.25,0.25,2.25,10,initial,36.05,324,342,361,379,397,9,9,9,9,9,,,,,5,0,5,0,0,2,2,38,,,,,num_4,0.988040300027933,num_4,0.45,0.8,0.30000000000000004,0.9,10.81288,32.43864,return,4.163270699966233,,,,,,,16,21,female,left_right_width,2023_Oct_17_1443,exp1,2021.2.3,60.01666061211096,
,,,,,,,,,,,,,,,,4,8.65,9.55,10.45,11.35,0,0.9,0.65,0.25,2.95,10,initial,36.05,312,344,377,409,0,9,9,9,9,0,,,,,5,0,5,0,0,3,3,32,,,,,num_5,0.9793990000034682,num_5,0.2,0.7,0.15000000000000002,0.7,5.40644,25.23005,return,1.033570600033272,,,,,,,16,21,female,left_right_width,2023_Oct_17_1443,exp1,2021.2.3,60.01666061211096,
,,,,,,,,,,,,,,,,3,8.525,10,11.475,0,0,1.475,1.225,0.25,3.2,10,match,36.05,307,361,414,0,0,9,9,9,0,0,,,,,5,0,5,0,0,4,4,47,,,,,num_3,1.1187858000048436,num_3,0.4,0.6,0.25000000000000006,0.75,9.01073,27.0322,return,8.061684300017077,,,,,,,16,21,female,left_right_width,2023_Oct_17_1443,exp1,2021.2.3,60.01666061211096,
,,,,,,,,,,,,,,,,5,8.65,9.325,10,10.675,11.35,0.675,0.42500000000000004,0.25,2.95,10,match,36.05,312,336,361,385,409,9,9,9,9,9,,,,,5,0,5,0,0,5,5,33,,,,,num_5,1.0025999000063166,num_5,0.2,0.5,0.2,0.6,7.20859,21.62576,return,1.6178640999714844,,,,,,,16,21,female,left_right_width,2023_Oct_17_1443,exp1,2021.2.3,60.01666061211096,
,,,,,,,,,,,,,,,,4,8.95,9.65,10.35,11.05,0,0.7,0.44999999999999996,0.25,2.3499999999999996,10,initial,36.05,323,348,373,398,0,9,9,9,9,0,,,,,5,0,5,0,0,6,6,26,,,,,num_4,0.9315981999970973,num_4,0.1,0.6,0.25,0.6,9.01073,21.62576,return,1.4848877000040375,,,,,,,16,21,female,left_right_width,2023_Oct_17_1443,exp1,2021.2.3,60.01666061211096,
,,,,,,,,,,,,,,,,3,9.5,10,10.5,0,0,0.5,0.4,0.1,1.1,10,initial,36.05,342,361,379,0,0,9,9,9,0,0,,,,,5,0,5,0,0,7,7,0,,,,,num_3,1.3494126999867149,num_3,0.4,1.3,0.30000000000000004,0.95,10.81288,34.24078,return,3.4067717000143602,,,,,,,16,21,female,left_right_width,2023_Oct_17_1443,exp1,2021.2.3,60.01666061211096,
,,,,,,,,,,,,,,,,4,8.65,9.55,10.45,11.35,0,0.9,0.5,0.4,3.1,10,initial,36.05,312,344,377,409,0,9,9,9,9,0,,,,,5,0,5,0,0,8,8,34,,,,,num_5,1.0008480999968015,num_5,0.45,1.3,0.4,1.1,14.41717,39.64722,return,1.9519552999990992,,,,,,,16,21,female,left_right_width,2023_Oct_17_1443,exp1,2021.2.3,60.01666061211096,
,,,,,,,,,,,,,,,,5,8.2,9.1,10,10.9,11.8,0.9,0.8,0.1,3.7,10,initial,36.05,296,328,361,393,425,9,9,9,9,9,,,,,5,0,5,0,0,9,9,48,,,,,num_6,1.0065657999948598,num_6,0.45,0.7,0.05000000000000007,1.3,1.80215,46.85581,return,5.924266499991063,,,,,,,16,21,female,left_right_width,2023_Oct_17_1443,exp1,2021.2.3,60.01666061211096,
,,,,,,,,,,,,,,,,4,9.25,9.75,10.25,10.75,0,0.5,0.09999999999999998,0.4,1.9,10,initial,36.05,333,351,370,388,0,9,9,9,9,0,,,,,5,0,5,0,0,10,10,22,,,,,num_6,5.486507399997208,num_6,0.1,0.6,0.1,0.5,3.60429,18.02146,return,5.441624899976887,,,,,,,16,21,female,left_right_width,2023_Oct_17_1443,exp1,2021.2.3,60.01666061211096,
,,,,,,,,,,,,,,,,4,9.25,9.75,10.25,10.75,0,0.5,0.25,0.25,1.75,10,initial,36.05,333,351,370,388,0,9,9,9,9,0,,,,,5,0,5,0,0,11,11,20,,,,,num_6,4.676704800047446,num_6,0.2,0.3,0.2,0.5,7.20859,18.02146,return,5.750435900001321,,,,,,,16,21,female,left_right_width,2023_Oct_17_1443,exp1,2021.2.3,60.01666061211096,
,,,,,,,,,,,,,,,,4,9.1,9.7,10.3,10.9,0,0.6000000000000001,0.20000000000000004,0.4,2.2,10,match,36.05,328,350,371,393,0,9,9,9,9,0,,,,,5,0,5,0,0,12,12,17,,,,,num_5,1.7394666000036523,num_5,0.1,0.8,0.3,0.5,10.81288,18.02146,return,6.371912100003101,,,,,,,16,21,female,left_right_width,2023_Oct_17_1443,exp1,2021.2.3,60.01666061211096,
,,,,,,,,,,,,,,,,4,9.5,9.833333333333334,10.166666666666666,10.5,0,0.33333333333333337,0.23333333333333336,0.1,1.1,10,match,36.05,342,354,367,379,0,9,9,9,9,0,,,,,5,0,5,0,0,13,13,1,,,,,num_3,1.1186752000357956,num_3,0.3,1.2,0.35,0.85,12.61502,30.63649,return,11.43786150001688,,,,,,,16,21,female,left_right_width,2023_Oct_17_1443,exp1,2021.2.3,60.01666061211096,
,,,,,,,,,,,,,,,,3,8.6,10,11.4,0,0,1.4,1.2999999999999998,0.1,2.9,10,match,36.05,310,361,411,0,0,9,9,9,0,0,,,,,5,0,5,0,0,14,14,43,,,,,num_3,1.5167596000246704,num_3,0.1,1,-0.05000000000000002,1.45,-1.80215,52.26225,return,6.19081289996393,,,,,,,16,21,female,left_right_width,2023_Oct_17_1443,exp1,2021.2.3,60.01666061211096,
,,,,,,,,,,,,,,,,4,9.3,9.766666666666667,10.233333333333333,10.7,0,0.4666666666666667,0.3666666666666667,0.1,1.5,10,match,36.05,335,352,369,386,0,9,9,9,9,0,,,,,5,0,5,0,0,15,15,7,,,,,num_5,1.0602268999791704,num_5,0.45,1.0,0.25000000000000006,0.7,9.01073,25.23005,return,11.256262199953198,,,,,,,16,21,female,left_right_width,2023_Oct_17_1443,exp1,2021.2.3,60.01666061211096,
,,,,,,,,,,,,,,,,4,9.25,9.75,10.25,10.75,0,0.5,0.4,0.1,1.6,10,initial,36.05,333,351,370,388,0,9,9,9,9,0,,,,,5,0,5,0,0,16,16,18,,,,,num_6,1.4367492999881506,num_6,0.15,0.9,0.15000000000000002,0.6,5.40644,21.62576,return,7.729844500019681,,,,,,,16,21,female,left_right_width,2023_Oct_17_1443,exp1,2021.2.3,60.01666061211096,
,,,,,,,,,,,,,,,,5,9,9.5,10,10.5,11,0.5,0.09999999999999998,0.4,2.4,10,initial,36.05,324,342,361,379,397,9,9,9,9,9,,,,,5,0,5,0,0,17,17,40,,,,,num_5,1.2353181000216864,num_5,0.1,0.9,0.25,0.35,9.01073,12.61502,return,5.585820800042711,,,,,,,16,21,female,left_right_width,2023_Oct_17_1443,exp1,2021.2.3,60.01666061211096,
,,,,,,,,,,,,,,,,3,8.2,10,11.8,0,0,1.8,1.55,0.25,3.85,10,match,36.05,296,361,425,0,0,9,9,9,0,0,,,,,5,0,5,0,0,18,18,51,,,,,num_3,1.1148894000216387,num_3,0.25,0.3,0.25,1.25,9.01073,45.05366,return,5.597826699959114,,,,,,,16,21,female,left_right_width,2023_Oct_17_1443,exp1,2021.2.3,60.01666061211096,
,,,,,,,,,,,,,,,,4,9.1,9.7,10.3,10.9,0,0.5999999999999999,0.3499999999999999,0.25,2.05,10,match,36.05,328,350,371,393,0,9,9,9,9,0,,,,,5,0,5,0,0,19,19,15,,,,,num_4,2.016031799954362,num_4,0.15,0.3,0.15,1.0,5.40644,36.04293,return,3.7902110000140965,,,,,,,16,21,female,left_right_width,2023_Oct_17_1443,exp1,2021.2.3,60.01666061211096,
,,,,,,,,,,,,,,,,3,9.5,10,10.5,0,0,0.5,0.25,0.25,1.25,10,initial,36.05,342,361,379,0,0,9,9,9,0,0,,,,,5,0,5,0,0,20,20,2,,,,,num_3,1.5712427999824286,num_3,0.2,1.3,0.2,1.5,7.20859,54.06439,return,3.1064109000144526,,,,,,,16,21,female,left_right_width,2023_Oct_17_1443,exp1,2021.2.3,60.01666061211096,
