amount_p,posx1_p,posx2_p,posx3_p,posx4_p,posx5_p,center_to_center_p,edge_to_edge_p,w_p,stim_lengt_p,eccentricity_p,line1_p,line2_p,line3_p,line4_p,line5_p,amount,posx1,posx2,posx3,posx4,posx5,center_to_center,edge_to_edge,w,stim_length,eccentricity,trial_type,deg_to_pix_index,posx1_in_pix,posx2_in_pix,posx3_in_pix,posx4_in_pix,posx5_in_pix,line1,line2,line3,line4,line5,trials.thisRepN,trials.thisTrialN,trials.thisN,trials.thisIndex,blocks.thisRepN,blocks.thisTrialN,blocks.thisN,blocks.thisIndex,loop.thisRepN,loop.thisTrialN,loop.thisN,loop.thisIndex,key_resp_3.keys,key_resp_3.rt,key_resp_3.started,key_resp_3.stopped,key_resp.keys,key_resp.rt,response,starting_width_deg,starting_space_deg,response_width_degree,response_spacing_degree,response_width_pixel,response_spacing_pixel,next_5.keys,next_5.rt,key_resp_4.keys,key_resp_4.rt,text_3.started,text_3.stopped,text_4.started,text_4.stopped,participant,age,gender,resp_group,date,expName,psychopyVersion,frameRate,
,,,,,,,,,,,,,,,,,,,,,,,,,,,,,,,,,,,,,,,,,,,,,,,,,,,c,103.57372370001394,70.58527790004155,None,,,,,,,,,,,,,,,,,,17,23,male,left_right_width,2023_Oct_17_1712,exp1,2021.2.3,59.89282775977537,
4,8.65,9.55,10.45,11.35,0,0.9,0.5,0.4,3.1,10,9,9,9,9,0,,,,,,,,,,,,,,,,,,,,,,,,0,0,0,5,,,,,,,,,,,,,num_4,4.221554499992635,num_4,0.2,1.0,0.15000000000000002,0.7,5.40644,25.23005,return,14.274112900020555,,,,,,,17,23,male,left_right_width,2023_Oct_17_1712,exp1,2021.2.3,59.89282775977537,
4,9.25,9.75,10.25,10.75,0,0.5,0.25,0.25,1.75,10,9,9,9,9,0,,,,,,,,,,,,,,,,,,,,,,,,0,1,1,4,,,,,,,,,,,,,num_4,2.665414299990516,num_4,0.2,1.0,0.10000000000000002,0.7,3.60429,25.23005,return,4.892362900020089,,,,,,,17,23,male,left_right_width,2023_Oct_17_1712,exp1,2021.2.3,59.89282775977537,
5,8.6,9.3,10,10.7,11.4,0.7,0.29999999999999993,0.4,3.1999999999999997,10,9,9,9,9,9,,,,,,,,,,,,,,,,,,,,,,,,0,2,2,7,,,,,,,,,,,,,num_5,3.6006145999999717,num_5,0.2,0.5,0.2,0.5,7.20859,18.02146,return,2.041773499979172,,,,,,,17,23,male,left_right_width,2023_Oct_17_1712,exp1,2021.2.3,59.89282775977537,
3,9,10,11,0,0,1,0.9,0.1,2.1,10,9,9,9,0,0,,,,,,,,,,,,,,,,,,,,,,,,0,3,3,1,,,,,,,,,,,,,num_3,2.127033600001596,num_3,0.15,0.7,0.04999999999999999,0.7,1.80215,25.23005,return,4.9685227000154555,,,,,,,17,23,male,left_right_width,2023_Oct_17_1712,exp1,2021.2.3,59.89282775977537,
5,9,9.5,10,10.5,11,0.5,0.09999999999999998,0.4,2.4,10,9,9,9,9,9,,,,,,,,,,,,,,,,,,,,,,,,0,4,4,8,,,,,,,,,,,,,num_4,2.2937441999674775,num_4,0.2,0.9,0.10000000000000002,0.9,3.60429,32.43864,return,14.309732599998824,,,,,,,17,23,male,left_right_width,2023_Oct_17_1712,exp1,2021.2.3,59.89282775977537,
5,9.25,9.625,10,10.375,10.75,0.375,0.125,0.25,1.75,10,9,9,9,9,9,,,,,,,,,,,,,,,,,,,,,,,,0,5,5,6,,,,,,,,,,,,,num_3,3.253647200006526,num_3,0.15,0.8,0.2,0.8,7.20859,28.83434,return,1.5919361999840476,,,,,,,17,23,male,left_right_width,2023_Oct_17_1712,exp1,2021.2.3,59.89282775977537,
3,9.5,10,10.5,0,0,0.5,0.4,0.1,1.1,10,9,9,9,0,0,,,,,,,,,,,,,,,,,,,,,,,,0,6,6,0,,,,,,,,,,,,,num_3,1.871223900001496,num_3,0.45,0.8,0.10000000000000007,0.8,3.60429,28.83434,return,3.579320800025016,,,,,,,17,23,male,left_right_width,2023_Oct_17_1712,exp1,2021.2.3,59.89282775977537,
3,8.2,10,11.8,0,0,1.7999999999999998,1.4,0.4,4,10,9,9,9,0,0,,,,,,,,,,,,,,,,,,,,,,,,0,7,7,2,,,,,,,,,,,,,num_3,2.6533930000150576,num_3,0.4,1,0.35000000000000003,1.1,12.61502,39.64722,return,8.036522299982607,,,,,,,17,23,male,left_right_width,2023_Oct_17_1712,exp1,2021.2.3,59.89282775977537,
4,9.5,9.833333333333334,10.166666666666666,10.5,0,0.33333333333333337,0.23333333333333336,0.1,1.1,10,9,9,9,9,0,,,,,,,,,,,,,,,,,,,,,,,,0,8,8,3,,,,,,,,,,,,,num_3,2.759433800005354,num_3,0.15,0.7,0.09999999999999999,0.7,3.60429,25.23005,return,1.735919999948237,,,,,,,17,23,male,left_right_width,2023_Oct_17_1712,exp1,2021.2.3,59.89282775977537,
,,,,,,,,,,,,,,,,,,,,,,,,,,,,,,,,,,,,,,,,,,,,,,,,,,,,,,,,,,,,,,,,,,c,114.91397410002537,,,,,17,23,male,left_right_width,2023_Oct_17_1712,exp1,2021.2.3,59.89282775977537,
,,,,,,,,,,,,,,,,4,8.95,9.65,10.35,11.05,0,0.7,0.6,0.1,2.1999999999999997,10,initial,36.05,323,348,373,398,0,9,9,9,9,0,,,,,0,0,0,0,0,0,0,24,,,,,num_3,2.9228898999863304,num_3,0.15,0.7,0.04999999999999999,0.7,1.80215,25.23005,return,2.18108949996531,,,,,,,17,23,male,left_right_width,2023_Oct_17_1712,exp1,2021.2.3,59.89282775977537,
,,,,,,,,,,,,,,,,5,8.6,9.3,10,10.7,11.4,0.7,0.29999999999999993,0.4,3.1999999999999997,10,initial,36.05,310,335,361,386,411,9,9,9,9,9,,,,,0,0,0,0,0,1,1,46,,,,,num_4,3.054194499971345,num_4,0.2,1.3,0.25,1.0,9.01073,36.04293,return,5.15524789999472,,,,,,,17,23,male,left_right_width,2023_Oct_17_1712,exp1,2021.2.3,59.89282775977537,
,,,,,,,,,,,,,,,,5,8.65,9.325,10,10.675,11.35,0.675,0.42500000000000004,0.25,2.95,10,match,36.05,312,336,361,385,409,9,9,9,9,9,,,,,0,0,0,0,0,2,2,33,,,,,num_5,2.7754640000057407,num_5,0.3,1.2,0.15000000000000002,1.0,5.40644,36.04293,return,4.306451399985235,,,,,,,17,23,male,left_right_width,2023_Oct_17_1712,exp1,2021.2.3,59.89282775977537,
,,,,,,,,,,,,,,,,4,8.65,9.55,10.45,11.35,0,0.9,0.65,0.25,2.95,10,initial,36.05,312,344,377,409,0,9,9,9,9,0,,,,,0,0,0,0,0,3,3,32,,,,,num_4,2.7183826999971643,num_4,0.3,0.9,0.15000000000000002,0.8,5.40644,28.83434,return,3.494914900045842,,,,,,,17,23,male,left_right_width,2023_Oct_17_1712,exp1,2021.2.3,59.89282775977537,
,,,,,,,,,,,,,,,,5,9,9.5,10,10.5,11,0.5,0.09999999999999998,0.4,2.4,10,initial,36.05,324,342,361,379,397,9,9,9,9,9,,,,,0,0,0,0,0,4,4,40,,,,,num_4,2.0692022000439465,num_4,0.4,1.2,0.55,0.9,19.82361,32.43864,return,6.574882599990815,,,,,,,17,23,male,left_right_width,2023_Oct_17_1712,exp1,2021.2.3,59.89282775977537,
,,,,,,,,,,,,,,,,4,9.3,9.766666666666667,10.233333333333333,10.7,0,0.4666666666666667,0.06666666666666665,0.4,1.8,10,match,36.05,335,352,369,386,0,9,9,9,9,0,,,,,0,0,0,0,0,5,5,11,,,,,num_4,2.39454680000199,num_4,0.3,0.6,0.49999999999999994,0.6,18.02146,21.62576,return,9.625322400010191,,,,,,,17,23,male,left_right_width,2023_Oct_17_1712,exp1,2021.2.3,59.89282775977537,
,,,,,,,,,,,,,,,,3,9.5,10,10.5,0,0,0.5,0.09999999999999998,0.4,1.4000000000000001,10,initial,36.05,342,361,379,0,0,9,9,9,0,0,,,,,0,0,0,0,0,6,6,4,,,,,num_3,4.048857300018426,num_3,0.2,0.5,0.35,0.5,12.61502,18.02146,return,2.4449506999808364,,,,,,,17,23,male,left_right_width,2023_Oct_17_1712,exp1,2021.2.3,59.89282775977537,
,,,,,,,,,,,,,,,,5,9.25,9.625,10,10.375,10.75,0.375,0.125,0.25,1.75,10,match,36.05,333,347,361,374,388,9,9,9,9,9,,,,,0,0,0,0,0,7,7,21,,,,,num_4,2.431204400025308,num_4,0.15,0.6,0.39999999999999997,0.6,14.41717,21.62576,return,3.0373863999848254,,,,,,,17,23,male,left_right_width,2023_Oct_17_1712,exp1,2021.2.3,59.89282775977537,
,,,,,,,,,,,,,,,,3,8.2,10,11.8,0,0,1.8000000000000003,1.7000000000000002,0.1,3.7,10,match,36.05,296,361,425,0,0,9,9,9,0,0,,,,,0,0,0,0,0,8,8,49,,,,,num_3,2.1645716999773867,num_3,0.25,0.5,0.05000000000000002,0.5,1.80215,18.02146,return,3.008389000024181,,,,,,,17,23,male,left_right_width,2023_Oct_17_1712,exp1,2021.2.3,59.89282775977537,
,,,,,,,,,,,,,,,,5,8.2,9.1,10,10.9,11.8,0.9,0.5,0.4,4,10,initial,36.05,296,328,361,393,425,9,9,9,9,9,,,,,0,0,0,0,0,9,9,52,,,,,num_6,2.661405900027603,num_6,0.3,0.8,0.2,0.7,7.20859,25.23005,return,5.172022100014146,,,,,,,17,23,male,left_right_width,2023_Oct_17_1712,exp1,2021.2.3,59.89282775977537,
,,,,,,,,,,,,,,,,4,9.25,9.75,10.25,10.75,0,0.5,0.4,0.1,1.6,10,initial,36.05,333,351,370,388,0,9,9,9,9,0,,,,,0,0,0,0,0,10,10,18,,,,,num_3,1.9598093999666162,num_3,0.25,1.1,0.15000000000000002,1.1,5.40644,39.64722,return,1.3523593000136316,,,,,,,17,23,male,left_right_width,2023_Oct_17_1712,exp1,2021.2.3,59.89282775977537,
,,,,,,,,,,,,,,,,3,9.1,10,10.9,0,0,0.9,0.65,0.25,2.05,10,initial,36.05,328,361,393,0,0,9,9,9,0,0,,,,,0,0,0,0,0,11,11,14,,,,,num_3,2.377216099994257,num_3,0.15,1.1,0.2,1.05,7.20859,37.84507,return,2.7769802999682724,,,,,,,17,23,male,left_right_width,2023_Oct_17_1712,exp1,2021.2.3,59.89282775977537,
,,,,,,,,,,,,,,,,4,8.95,9.65,10.35,11.05,0,0.7,0.29999999999999993,0.4,2.5,10,initial,36.05,323,348,373,398,0,9,9,9,9,0,,,,,0,0,0,0,0,12,12,28,,,,,num_3,2.810592900030315,num_3,0.2,0.6,0.25,0.75,9.01073,27.0322,return,6.806811700051185,,,,,,,17,23,male,left_right_width,2023_Oct_17_1712,exp1,2021.2.3,59.89282775977537,
,,,,,,,,,,,,,,,,5,9,9.5,10,10.5,11,0.5,0.25,0.25,2.25,10,initial,36.05,324,342,361,379,397,9,9,9,9,9,,,,,0,0,0,0,0,13,13,38,,,,,num_4,1.9132083000149578,num_4,0.15,0.9,0.3,0.8,10.81288,28.83434,return,3.1794574999948964,,,,,,,17,23,male,left_right_width,2023_Oct_17_1712,exp1,2021.2.3,59.89282775977537,
,,,,,,,,,,,,,,,,4,9.425,9.808333333333334,10.191666666666666,10.575,0,0.3833333333333333,0.1333333333333333,0.25,1.4,10,match,36.05,340,354,367,381,0,9,9,9,9,0,,,,,0,0,0,0,0,14,14,5,,,,,num_4,1.8528126999735832,num_4,0.25,0.7,0.35,0.6,12.61502,21.62576,return,3.0367351999739185,,,,,,,17,23,male,left_right_width,2023_Oct_17_1712,exp1,2021.2.3,59.89282775977537,
,,,,,,,,,,,,,,,,5,9.175,9.5875,10,10.4125,10.825,0.4125,0.16249999999999998,0.25,1.9,10,match,36.05,331,346,361,375,390,9,9,9,9,9,,,,,0,0,0,0,0,15,15,23,,,,,num_5,1.8093138000112958,num_5,0.3,1.2,0.44999999999999996,0.85,16.21932,30.63649,return,3.9748630999820307,,,,,,,17,23,male,left_right_width,2023_Oct_17_1712,exp1,2021.2.3,59.89282775977537,
,,,,,,,,,,,,,,,,4,9.1,9.7,10.3,10.9,0,0.6,0.5,0.1,1.9,10,match,36.05,328,350,371,393,0,9,9,9,9,0,,,,,0,0,0,0,0,16,16,13,,,,,num_4,2.261435699998401,num_4,0.2,0.9,0.10000000000000002,0.7,3.60429,25.23005,return,5.334206199971959,,,,,,,17,23,male,left_right_width,2023_Oct_17_1712,exp1,2021.2.3,59.89282775977537,
,,,,,,,,,,,,,,,,4,9.1,9.7,10.3,10.9,0,0.6000000000000001,0.20000000000000004,0.4,2.2,10,match,36.05,328,350,371,393,0,9,9,9,9,0,,,,,0,0,0,0,0,17,17,17,,,,,num_4,1.8456773999496363,num_4,0.1,1.3,0.39999999999999997,0.9,14.41717,32.43864,return,5.883698000048753,,,,,,,17,23,male,left_right_width,2023_Oct_17_1712,exp1,2021.2.3,59.89282775977537,
,,,,,,,,,,,,,,,,5,8.65,9.325,10,10.675,11.35,0.6749999999999999,0.575,0.1,2.8,10,match,36.05,312,336,361,385,409,9,9,9,9,9,,,,,0,0,0,0,0,18,18,31,,,,,num_4,2.2325509999645874,num_4,0.35,0.5,0.10000000000000002,0.9,3.60429,32.43864,return,4.622497899981681,,,,,,,17,23,male,left_right_width,2023_Oct_17_1712,exp1,2021.2.3,59.89282775977537,
,,,,,,,,,,,,,,,,4,9.3,9.766666666666667,10.233333333333333,10.7,0,0.4666666666666667,0.21666666666666665,0.25,1.65,10,match,36.05,335,352,369,386,0,9,9,9,9,0,,,,,0,0,0,0,0,19,19,9,,,,,num_3,2.565722099971026,num_3,0.3,0.5,0.25,0.55,9.01073,19.82361,return,3.0859182000276633,,,,,,,17,23,male,left_right_width,2023_Oct_17_1712,exp1,2021.2.3,59.89282775977537,
,,,,,,,,,,,,,,,,4,8.95,9.65,10.35,11.05,0,0.7,0.44999999999999996,0.25,2.3499999999999996,10,initial,36.05,323,348,373,398,0,9,9,9,9,0,,,,,0,0,0,0,0,20,20,26,,,,,num_4,2.4578674000222236,num_4,0.15,0.8,0.25,0.7,9.01073,25.23005,return,7.590010499989148,,,,,,,17,23,male,left_right_width,2023_Oct_17_1712,exp1,2021.2.3,59.89282775977537,
,,,,,,,,,,,,,,,,3,9,10,11,0,0,1,0.75,0.25,2.25,10,match,36.05,324,361,397,0,0,9,9,9,0,0,,,,,0,0,0,0,0,21,21,39,,,,,num_3,2.4152899000328034,num_3,0.35,1.2,0.25,1.25,9.01073,45.05366,return,3.2458736000116915,,,,,,,17,23,male,left_right_width,2023_Oct_17_1712,exp1,2021.2.3,59.89282775977537,
,,,,,,,,,,,,,,,,3,9.3,10,10.7,0,0,0.7,0.44999999999999996,0.25,1.65,10,initial,36.05,335,361,386,0,0,9,9,9,0,0,,,,,0,0,0,0,0,22,22,8,,,,,num_3,2.606883999949787,num_3,0.25,1.2,0.2,1.15,7.20859,41.44937,return,1.7590045999968424,,,,,,,17,23,male,left_right_width,2023_Oct_17_1712,exp1,2021.2.3,59.89282775977537,
,,,,,,,,,,,,,,,,3,9.3,10,10.7,0,0,0.7,0.6,0.1,1.5,10,initial,36.05,335,361,386,0,0,9,9,9,0,0,,,,,0,0,0,0,0,23,23,6,,,,,num_3,1.5278339999495074,num_3,0.4,0.8,0.05000000000000007,0.85,1.80215,30.63649,return,3.7532345000072382,,,,,,,17,23,male,left_right_width,2023_Oct_17_1712,exp1,2021.2.3,59.89282775977537,
,,,,,,,,,,,,,,,,5,8.95,9.475,10,10.525,11.05,0.525,0.42500000000000004,0.1,2.2,10,match,36.05,323,342,361,379,398,9,9,9,9,9,,,,,0,0,0,0,0,24,24,25,,,,,num_4,2.000722799974028,num_4,0.15,0.6,0.04999999999999999,0.7,1.80215,25.23005,return,4.35202459996799,,,,,,,17,23,male,left_right_width,2023_Oct_17_1712,exp1,2021.2.3,59.89282775977537,
,,,,,,,,,,,,,,,,4,9.5,9.833333333333334,10.166666666666666,10.5,0,0.3333333333333333,0.08333333333333333,0.25,1.25,10,match,36.05,342,354,367,379,0,9,9,9,9,0,,,,,0,0,0,0,0,25,25,3,,,,,num_4,1.7065838999697007,num_4,0.25,1.3,0.39999999999999997,0.8,14.41717,28.83434,return,4.802529299980961,,,,,,,17,23,male,left_right_width,2023_Oct_17_1712,exp1,2021.2.3,59.89282775977537,
,,,,,,,,,,,,,,,,5,8.6,9.3,10,10.7,11.4,0.7,0.44999999999999996,0.25,3.05,10,initial,36.05,310,335,361,386,411,9,9,9,9,9,,,,,0,0,0,0,0,26,26,44,,,,,num_5,1.909845599962864,num_5,0.1,0.6,0.2,0.65,7.20859,23.4279,return,4.487707299995236,,,,,,,17,23,male,left_right_width,2023_Oct_17_1712,exp1,2021.2.3,59.89282775977537,
,,,,,,,,,,,,,,,,3,9,10,11,0,0,0.9999999999999999,0.5999999999999999,0.4,2.4,10,match,36.05,324,361,397,0,0,9,9,9,0,0,,,,,0,0,0,0,0,27,27,41,,,,,num_4,1.7971139999572188,num_4,0.15,1.1,0.3,0.9,10.81288,32.43864,return,1.9654491000110283,,,,,,,17,23,male,left_right_width,2023_Oct_17_1712,exp1,2021.2.3,59.89282775977537,
,,,,,,,,,,,,,,,,4,9.3,9.766666666666667,10.233333333333333,10.7,0,0.4666666666666667,0.3666666666666667,0.1,1.5,10,match,36.05,335,352,369,386,0,9,9,9,9,0,,,,,0,0,0,0,0,28,28,7,,,,,num_3,2.090596199966967,num_3,0.25,0.5,0.10000000000000002,0.9,3.60429,32.43864,return,5.863246299966704,,,,,,,17,23,male,left_right_width,2023_Oct_17_1712,exp1,2021.2.3,59.89282775977537,
,,,,,,,,,,,,,,,,3,8.525,10,11.475,0,0,1.475,1.225,0.25,3.2,10,match,36.05,307,361,414,0,0,9,9,9,0,0,,,,,0,0,0,0,0,29,29,47,,,,,num_3,1.7357854000292718,num_3,0.2,1.1,0.10000000000000002,1.45,3.60429,52.26225,return,4.352747600001749,,,,,,,17,23,male,left_right_width,2023_Oct_17_1712,exp1,2021.2.3,59.89282775977537,
,,,,,,,,,,,,,,,,4,8.65,9.55,10.45,11.35,0,0.9,0.8,0.1,2.8000000000000003,10,initial,36.05,312,344,377,409,0,9,9,9,9,0,,,,,0,0,0,0,0,30,30,30,,,,,num_4,1.307723400008399,num_4,0.35,0.4,0.05000000000000002,0.9,1.80215,32.43864,return,5.078748199972324,,,,,,,17,23,male,left_right_width,2023_Oct_17_1712,exp1,2021.2.3,59.89282775977537,
,,,,,,,,,,,,,,,,3,9.5,10,10.5,0,0,0.5,0.4,0.1,1.1,10,initial,36.05,342,361,379,0,0,9,9,9,0,0,,,,,0,0,0,0,0,31,31,0,,,,,num_3,1.4859140999615192,num_3,0.1,0.9,0.10000000000000002,0.95,3.60429,34.24078,return,4.8010099999955855,,,,,,,17,23,male,left_right_width,2023_Oct_17_1712,exp1,2021.2.3,59.89282775977537,
,,,,,,,,,,,,,,,,3,9,10,11,0,0,1,0.9,0.1,2.1,10,match,36.05,324,361,397,0,0,9,9,9,0,0,,,,,0,0,0,0,0,32,32,37,,,,,num_3,1.9553638999932446,num_3,0.1,1,0.05000000000000002,1.3,1.80215,46.85581,return,7.439344400016125,,,,,,,17,23,male,left_right_width,2023_Oct_17_1712,exp1,2021.2.3,59.89282775977537,
,,,,,,,,,,,,,,,,5,9.25,9.625,10,10.375,10.75,0.375,0.275,0.1,1.6,10,match,36.05,333,347,361,374,388,9,9,9,9,9,,,,,0,0,0,0,0,33,33,19,,,,,num_4,1.911983500001952,num_4,0.2,1.3,0.05000000000000002,1.1,1.80215,39.64722,return,3.9594243000028655,,,,,,,17,23,male,left_right_width,2023_Oct_17_1712,exp1,2021.2.3,59.89282775977537,
,,,,,,,,,,,,,,,,3,9.1,10,10.9,0,0,0.9,0.5,0.4,2.2,10,initial,36.05,328,361,393,0,0,9,9,9,0,0,,,,,0,0,0,0,0,34,34,16,,,,,num_4,2.655079999996815,num_4,0.4,1.0,0.4,0.9,14.41717,32.43864,return,2.882645000005141,,,,,,,17,23,male,left_right_width,2023_Oct_17_1712,exp1,2021.2.3,59.89282775977537,
,,,,,,,,,,,,,,,,4,9.5,9.833333333333334,10.166666666666666,10.5,0,0.33333333333333337,0.23333333333333336,0.1,1.1,10,match,36.05,342,354,367,379,0,9,9,9,9,0,,,,,0,0,0,0,0,35,35,1,,,,,num_4,3.062863200029824,num_4,0.35,0.7,0.15000000000000002,0.6,5.40644,21.62576,return,3.3272020000149496,,,,,,,17,23,male,left_right_width,2023_Oct_17_1712,exp1,2021.2.3,59.89282775977537,
,,,,,,,,,,,,,,,,3,8.6,10,11.4,0,0,1.4,1.15,0.25,3.05,10,match,36.05,310,361,411,0,0,9,9,9,0,0,,,,,0,0,0,0,0,36,36,45,,,,,num_3,1.571386400028132,num_3,0.3,0.9,0.25,1.2,9.01073,43.25151,return,4.616572199971415,,,,,,,17,23,male,left_right_width,2023_Oct_17_1712,exp1,2021.2.3,59.89282775977537,
,,,,,,,,,,,,,,,,5,8.95,9.475,10,10.525,11.05,0.525,0.275,0.25,2.35,10,match,36.05,323,342,361,379,398,9,9,9,9,9,,,,,0,0,0,0,0,37,37,27,,,,,num_4,2.010836100031156,num_4,0.25,1.0,0.3,0.8,10.81288,28.83434,return,3.7654156999778934,,,,,,,17,23,male,left_right_width,2023_Oct_17_1712,exp1,2021.2.3,59.89282775977537,
,,,,,,,,,,,,,,,,4,9.25,9.75,10.25,10.75,0,0.5,0.25,0.25,1.75,10,initial,36.05,333,351,370,388,0,9,9,9,9,0,,,,,0,0,0,0,0,38,38,20,,,,,num_3,2.3786831999896094,num_3,0.15,0.8,0.25,0.75,9.01073,27.0322,return,2.585259900020901,,,,,,,17,23,male,left_right_width,2023_Oct_17_1712,exp1,2021.2.3,59.89282775977537,
,,,,,,,,,,,,,,,,3,9.5,10,10.5,0,0,0.5,0.25,0.25,1.25,10,initial,36.05,342,361,379,0,0,9,9,9,0,0,,,,,0,0,0,0,0,39,39,2,,,,,num_3,2.2714078999706544,num_3,0.45,1.3,0.30000000000000004,0.8,10.81288,28.83434,return,5.9634209999931045,,,,,,,17,23,male,left_right_width,2023_Oct_17_1712,exp1,2021.2.3,59.89282775977537,
,,,,,,,,,,,,,,,,3,8.6,10,11.4,0,0,1.4,1.2999999999999998,0.1,2.9,10,match,36.05,310,361,411,0,0,9,9,9,0,0,,,,,0,0,0,0,0,40,40,43,,,,,num_3,2.5735361999832094,num_3,0.45,1.3,0.10000000000000007,1.45,3.60429,52.26225,return,6.332037199987099,,,,,,,17,23,male,left_right_width,2023_Oct_17_1712,exp1,2021.2.3,59.89282775977537,
,,,,,,,,,,,,,,,,4,9.1,9.7,10.3,10.9,0,0.5999999999999999,0.3499999999999999,0.25,2.05,10,match,36.05,328,350,371,393,0,9,9,9,9,0,,,,,0,0,0,0,0,41,41,15,,,,,num_3,2.671117599995341,num_3,0.1,0.4,0.10000000000000002,0.65,3.60429,23.4279,return,4.363735300023109,,,,,,,17,23,male,left_right_width,2023_Oct_17_1712,exp1,2021.2.3,59.89282775977537,
,,,,,,,,,,,,,,,,4,9.25,9.75,10.25,10.75,0,0.5,0.09999999999999998,0.4,1.9,10,initial,36.05,333,351,370,388,0,9,9,9,9,0,,,,,0,0,0,0,0,42,42,22,,,,,num_4,1.8847114000236616,num_4,0.35,0.7,0.39999999999999997,0.7,14.41717,25.23005,return,3.4594563000136986,,,,,,,17,23,male,left_right_width,2023_Oct_17_1712,exp1,2021.2.3,59.89282775977537,
,,,,,,,,,,,,,,,,5,9,9.5,10,10.5,11,0.5,0.4,0.1,2.1,10,initial,36.05,324,342,361,379,397,9,9,9,9,9,,,,,0,0,0,0,0,43,43,36,,,,,num_4,1.7433399999863468,num_4,0.45,1.3,0.05000000000000007,1.2,1.80215,43.25151,return,4.267953500035219,,,,,,,17,23,male,left_right_width,2023_Oct_17_1712,exp1,2021.2.3,59.89282775977537,
,,,,,,,,,,,,,,,,5,8.2,9.1,10,10.9,11.8,0.9,0.65,0.25,3.85,10,initial,36.05,296,328,361,393,425,9,9,9,9,9,,,,,0,0,0,0,0,44,44,50,,,,,num_5,2.502531000005547,num_5,0.4,0.6,0.15000000000000008,0.95,5.40644,34.24078,return,5.3752388000139035,,,,,,,17,23,male,left_right_width,2023_Oct_17_1712,exp1,2021.2.3,59.89282775977537,
,,,,,,,,,,,,,,,,4,8.65,9.55,10.45,11.35,0,0.9,0.5,0.4,3.1,10,initial,36.05,312,344,377,409,0,9,9,9,9,0,,,,,0,0,0,0,0,45,45,34,,,,,num_4,1.6390742000075988,num_4,0.2,1.0,0.3,1.2,10.81288,43.25151,return,2.8055680000106804,,,,,,,17,23,male,left_right_width,2023_Oct_17_1712,exp1,2021.2.3,59.89282775977537,
,,,,,,,,,,,,,,,,5,8.65,9.325,10,10.675,11.35,0.675,0.275,0.4,3.1,10,match,36.05,312,336,361,385,409,9,9,9,9,9,,,,,0,0,0,0,0,46,46,35,,,,,num_5,2.7369569999864325,num_5,0.35,1.3,0.39999999999999997,1.05,14.41717,37.84507,return,2.7704575000097975,,,,,,,17,23,male,left_right_width,2023_Oct_17_1712,exp1,2021.2.3,59.89282775977537,
,,,,,,,,,,,,,,,,3,8.2,10,11.8,0,0,1.7999999999999998,1.4,0.4,4,10,match,36.05,296,361,425,0,0,9,9,9,0,0,,,,,0,0,0,0,0,47,47,53,,,,,num_4,1.414118500018958,num_4,0.3,0.5,0.2,1.0,7.20859,36.04293,return,4.340254999988247,,,,,,,17,23,male,left_right_width,2023_Oct_17_1712,exp1,2021.2.3,59.89282775977537,
,,,,,,,,,,,,,,,,3,9.1,10,10.9,0,0,0.9,0.8,0.1,1.9000000000000001,10,initial,36.05,328,361,393,0,0,9,9,9,0,0,,,,,0,0,0,0,0,48,48,12,,,,,num_3,1.3621342000551522,num_3,0.4,1.1,0.10000000000000007,1.05,3.60429,37.84507,return,4.350978999980725,,,,,,,17,23,male,left_right_width,2023_Oct_17_1712,exp1,2021.2.3,59.89282775977537,
,,,,,,,,,,,,,,,,3,8.2,10,11.8,0,0,1.8,1.55,0.25,3.85,10,match,36.05,296,361,425,0,0,9,9,9,0,0,,,,,0,0,0,0,0,49,49,51,,,,,num_3,1.6053970999782905,num_3,0.15,0.7,0.15000000000000002,1.25,5.40644,45.05366,return,8.723146300006192,,,,,,,17,23,male,left_right_width,2023_Oct_17_1712,exp1,2021.2.3,59.89282775977537,
,,,,,,,,,,,,,,,,5,8.95,9.475,10,10.525,11.05,0.525,0.125,0.4,2.5,10,match,36.05,323,342,361,379,398,9,9,9,9,9,,,,,0,0,0,0,0,50,50,29,,,,,num_3,2.4237521999748424,num_3,0.3,0.6,0.44999999999999996,0.7,16.21932,25.23005,return,6.168975199980196,,,,,,,17,23,male,left_right_width,2023_Oct_17_1712,exp1,2021.2.3,59.89282775977537,
,,,,,,,,,,,,,,,,5,8.2,9.1,10,10.9,11.8,0.9,0.8,0.1,3.7,10,initial,36.05,296,328,361,393,425,9,9,9,9,9,,,,,0,0,0,0,0,51,51,48,,,,,num_4,1.8776090999599546,num_4,0.1,0.6,0.05,0.7,1.80215,25.23005,return,3.0984420999884605,,,,,,,17,23,male,left_right_width,2023_Oct_17_1712,exp1,2021.2.3,59.89282775977537,
,,,,,,,,,,,,,,,,5,8.6,9.3,10,10.7,11.4,0.7,0.6,0.1,2.9,10,initial,36.05,310,335,361,386,411,9,9,9,9,9,,,,,0,0,0,0,0,52,52,42,,,,,num_5,1.211065499985125,num_5,0.4,1.3,0.10000000000000007,1.2,3.60429,43.25151,return,4.7615798999904655,,,,,,,17,23,male,left_right_width,2023_Oct_17_1712,exp1,2021.2.3,59.89282775977537,
,,,,,,,,,,,,,,,,3,9.3,10,10.7,0,0,0.7,0.29999999999999993,0.4,1.8,10,initial,36.05,335,361,386,0,0,9,9,9,0,0,,,,,0,0,0,0,0,53,53,10,,,,,num_3,1.3725313000031747,num_3,0.45,0.7,0.35000000000000003,1.0,12.61502,36.04293,return,6.435231900017243,,,,,,,17,23,male,left_right_width,2023_Oct_17_1712,exp1,2021.2.3,59.89282775977537,
,,,,,,,,,,,,,,,,,,,,,,,,,,,,,,,,,,,,,,,,,,,0,0,0,0,,,,,,,,,,,,,,,,,,,,,,831.5519802999916,None,831.5519802999916,None,17,23,male,left_right_width,2023_Oct_17_1712,exp1,2021.2.3,59.89282775977537,
,,,,,,,,,,,,,,,,3,9.5,10,10.5,0,0,0.5,0.09999999999999998,0.4,1.4000000000000001,10,initial,36.05,342,361,379,0,0,9,9,9,0,0,,,,,1,0,1,0,0,0,0,4,,,,,num_3,1.701199600007385,num_3,0.25,0.8,0.44999999999999996,0.8,16.21932,28.83434,return,1.7475945000187494,,,,,,,17,23,male,left_right_width,2023_Oct_17_1712,exp1,2021.2.3,59.89282775977537,
,,,,,,,,,,,,,,,,4,8.95,9.65,10.35,11.05,0,0.7,0.44999999999999996,0.25,2.3499999999999996,10,initial,36.05,323,348,373,398,0,9,9,9,9,0,,,,,1,0,1,0,0,1,1,26,,,,,num_4,1.2609876000205986,num_4,0.2,0.4,0.15000000000000002,1.0,5.40644,36.04293,return,2.3283792000147514,,,,,,,17,23,male,left_right_width,2023_Oct_17_1712,exp1,2021.2.3,59.89282775977537,
,,,,,,,,,,,,,,,,5,8.65,9.325,10,10.675,11.35,0.6749999999999999,0.575,0.1,2.8,10,match,36.05,312,336,361,385,409,9,9,9,9,9,,,,,1,0,1,0,0,2,2,31,,,,,num_5,1.6696265999926254,num_5,0.3,1.3,0.05000000000000002,1.35,1.80215,48.65795,return,3.9019123000325635,,,,,,,17,23,male,left_right_width,2023_Oct_17_1712,exp1,2021.2.3,59.89282775977537,
,,,,,,,,,,,,,,,,5,9,9.5,10,10.5,11,0.5,0.25,0.25,2.25,10,initial,36.05,324,342,361,379,397,9,9,9,9,9,,,,,1,0,1,0,0,3,3,38,,,,,num_4,1.5099485000246204,num_4,0.1,1.1,0.35,0.9,12.61502,32.43864,return,4.919388499984052,,,,,,,17,23,male,left_right_width,2023_Oct_17_1712,exp1,2021.2.3,59.89282775977537,
,,,,,,,,,,,,,,,,4,8.95,9.65,10.35,11.05,0,0.7,0.29999999999999993,0.4,2.5,10,initial,36.05,323,348,373,398,0,9,9,9,9,0,,,,,1,0,1,0,0,4,4,28,,,,,num_3,1.6494377999915741,num_3,0.35,0.6,0.39999999999999997,0.75,14.41717,27.0322,return,1.8354120999574661,,,,,,,17,23,male,left_right_width,2023_Oct_17_1712,exp1,2021.2.3,59.89282775977537,
,,,,,,,,,,,,,,,,5,8.6,9.3,10,10.7,11.4,0.7,0.6,0.1,2.9,10,initial,36.05,310,335,361,386,411,9,9,9,9,9,,,,,1,0,1,0,0,5,5,42,,,,,num_5,1.6040553000057116,num_5,0.2,0.8,0.05000000000000002,0.9,1.80215,32.43864,return,4.816872399998829,,,,,,,17,23,male,left_right_width,2023_Oct_17_1712,exp1,2021.2.3,59.89282775977537,
,,,,,,,,,,,,,,,,3,9.1,10,10.9,0,0,0.9,0.5,0.4,2.2,10,initial,36.05,328,361,393,0,0,9,9,9,0,0,,,,,1,0,1,0,0,6,6,16,,,,,num_4,2.15315530000953,num_4,0.15,1.2,0.44999999999999996,1.2,16.21932,43.25151,return,2.706213600002229,,,,,,,17,23,male,left_right_width,2023_Oct_17_1712,exp1,2021.2.3,59.89282775977537,
,,,,,,,,,,,,,,,,3,8.2,10,11.8,0,0,1.7999999999999998,1.4,0.4,4,10,match,36.05,296,361,425,0,0,9,9,9,0,0,,,,,1,0,1,0,0,7,7,53,,,,,num_3,1.6933381999842823,num_3,0.25,0.3,0.39999999999999997,1.2,14.41717,43.25151,return,7.047850799979642,,,,,,,17,23,male,left_right_width,2023_Oct_17_1712,exp1,2021.2.3,59.89282775977537,
,,,,,,,,,,,,,,,,3,9.5,10,10.5,0,0,0.5,0.4,0.1,1.1,10,initial,36.05,342,361,379,0,0,9,9,9,0,0,,,,,1,0,1,0,0,8,8,0,,,,,num_3,1.8392087999964133,num_3,0.1,1.2,0.10000000000000002,0.65,3.60429,23.4279,return,8.275763100013137,,,,,,,17,23,male,left_right_width,2023_Oct_17_1712,exp1,2021.2.3,59.89282775977537,
,,,,,,,,,,,,,,,,5,8.6,9.3,10,10.7,11.4,0.7,0.29999999999999993,0.4,3.1999999999999997,10,initial,36.05,310,335,361,386,411,9,9,9,9,9,,,,,1,0,1,0,0,9,9,46,,,,,num_5,1.7455310000223108,num_5,0.35,0.5,0.25,0.6,9.01073,21.62576,return,4.1699107000022195,,,,,,,17,23,male,left_right_width,2023_Oct_17_1712,exp1,2021.2.3,59.89282775977537,
,,,,,,,,,,,,,,,,5,9.175,9.5875,10,10.4125,10.825,0.4125,0.16249999999999998,0.25,1.9,10,match,36.05,331,346,361,375,390,9,9,9,9,9,,,,,1,0,1,0,0,10,10,23,,,,,num_5,2.9991515000001527,num_5,0.15,1.2,0.25,0.55,9.01073,19.82361,return,5.167040299973451,,,,,,,17,23,male,left_right_width,2023_Oct_17_1712,exp1,2021.2.3,59.89282775977537,
,,,,,,,,,,,,,,,,5,9,9.5,10,10.5,11,0.5,0.09999999999999998,0.4,2.4,10,initial,36.05,324,342,361,379,397,9,9,9,9,9,,,,,1,0,1,0,0,11,11,40,,,,,num_5,1.7900106000015512,num_5,0.2,0.5,0.39999999999999997,0.7,14.41717,25.23005,return,3.9882620999705978,,,,,,,17,23,male,left_right_width,2023_Oct_17_1712,exp1,2021.2.3,59.89282775977537,
,,,,,,,,,,,,,,,,4,8.65,9.55,10.45,11.35,0,0.9,0.8,0.1,2.8000000000000003,10,initial,36.05,312,344,377,409,0,9,9,9,9,0,,,,,1,0,1,0,0,12,12,30,,,,,num_4,2.3979844000423327,num_4,0.4,0.6,0.10000000000000007,0.9,3.60429,32.43864,return,5.851708000001963,,,,,,,17,23,male,left_right_width,2023_Oct_17_1712,exp1,2021.2.3,59.89282775977537,
,,,,,,,,,,,,,,,,3,8.6,10,11.4,0,0,1.4,1.2999999999999998,0.1,2.9,10,match,36.05,310,361,411,0,0,9,9,9,0,0,,,,,1,0,1,0,0,13,13,43,,,,,num_3,1.344046700047329,num_3,0.45,0.5,0.05000000000000007,1.35,1.80215,48.65795,return,7.2085271999822,,,,,,,17,23,male,left_right_width,2023_Oct_17_1712,exp1,2021.2.3,59.89282775977537,
,,,,,,,,,,,,,,,,3,9.1,10,10.9,0,0,0.9,0.65,0.25,2.05,10,initial,36.05,328,361,393,0,0,9,9,9,0,0,,,,,1,0,1,0,0,14,14,14,,,,,num_3,1.6093330000294372,num_3,0.2,0.9,0.15000000000000002,1.05,5.40644,37.84507,return,3.3834163999999873,,,,,,,17,23,male,left_right_width,2023_Oct_17_1712,exp1,2021.2.3,59.89282775977537,
,,,,,,,,,,,,,,,,5,9.25,9.625,10,10.375,10.75,0.375,0.275,0.1,1.6,10,match,36.05,333,347,361,374,388,9,9,9,9,9,,,,,1,0,1,0,0,15,15,19,,,,,num_4,1.1691151999984868,num_4,0.15,1.1,0.04999999999999999,0.8,1.80215,28.83434,return,2.657124500023201,,,,,,,17,23,male,left_right_width,2023_Oct_17_1712,exp1,2021.2.3,59.89282775977537,
,,,,,,,,,,,,,,,,5,9,9.5,10,10.5,11,0.5,0.4,0.1,2.1,10,initial,36.05,324,342,361,379,397,9,9,9,9,9,,,,,1,0,1,0,0,16,16,36,,,,,num_4,1.4272344000055455,num_4,0.15,1.1,0.04999999999999999,0.8,1.80215,28.83434,return,2.472866900032386,,,,,,,17,23,male,left_right_width,2023_Oct_17_1712,exp1,2021.2.3,59.89282775977537,
,,,,,,,,,,,,,,,,3,9.3,10,10.7,0,0,0.7,0.29999999999999993,0.4,1.8,10,initial,36.05,335,361,386,0,0,9,9,9,0,0,,,,,1,0,1,0,0,17,17,10,,,,,num_3,1.6925857000169344,num_3,0.2,0.4,0.25,0.9,9.01073,32.43864,return,2.9438070000032894,,,,,,,17,23,male,left_right_width,2023_Oct_17_1712,exp1,2021.2.3,59.89282775977537,
,,,,,,,,,,,,,,,,5,8.95,9.475,10,10.525,11.05,0.525,0.42500000000000004,0.1,2.2,10,match,36.05,323,342,361,379,398,9,9,9,9,9,,,,,1,0,1,0,0,18,18,25,,,,,num_4,1.497335199965164,num_4,0.15,0.5,0.05000000000000002,0.9,1.80215,32.43864,return,3.3881944000022486,,,,,,,17,23,male,left_right_width,2023_Oct_17_1712,exp1,2021.2.3,59.89282775977537,
,,,,,,,,,,,,,,,,3,8.2,10,11.8,0,0,1.8,1.55,0.25,3.85,10,match,36.05,296,361,425,0,0,9,9,9,0,0,,,,,1,0,1,0,0,19,19,51,,,,,num_4,1.6393481999984942,num_4,0.3,0.4,0.10000000000000002,1.5,3.60429,54.06439,return,5.170919399999548,,,,,,,17,23,male,left_right_width,2023_Oct_17_1712,exp1,2021.2.3,59.89282775977537,
,,,,,,,,,,,,,,,,4,8.65,9.55,10.45,11.35,0,0.9,0.5,0.4,3.1,10,initial,36.05,312,344,377,409,0,9,9,9,9,0,,,,,1,0,1,0,0,20,20,34,,,,,num_5,2.221765600028448,num_5,0.4,0.6,0.30000000000000004,1.25,10.81288,45.05366,return,6.208961799973622,,,,,,,17,23,male,left_right_width,2023_Oct_17_1712,exp1,2021.2.3,59.89282775977537,
,,,,,,,,,,,,,,,,3,8.2,10,11.8,0,0,1.8000000000000003,1.7000000000000002,0.1,3.7,10,match,36.05,296,361,425,0,0,9,9,9,0,0,,,,,1,0,1,0,0,21,21,49,,,,,num_3,1.294104399974458,num_3,0.1,1.3,0.05,1.3,1.80215,46.85581,return,1.9761526000220329,,,,,,,17,23,male,left_right_width,2023_Oct_17_1712,exp1,2021.2.3,59.89282775977537,
,,,,,,,,,,,,,,,,3,9.5,10,10.5,0,0,0.5,0.25,0.25,1.25,10,initial,36.05,342,361,379,0,0,9,9,9,0,0,,,,,1,0,1,0,0,22,22,2,,,,,num_3,1.654463900020346,num_3,0.15,1.2,0.15,1.0,5.40644,36.04293,return,5.970686099957675,,,,,,,17,23,male,left_right_width,2023_Oct_17_1712,exp1,2021.2.3,59.89282775977537,
,,,,,,,,,,,,,,,,5,8.2,9.1,10,10.9,11.8,0.9,0.5,0.4,4,10,initial,36.05,296,328,361,393,425,9,9,9,9,9,,,,,1,0,1,0,0,23,23,52,,,,,num_4,1.6973038999713026,num_4,0.35,0.8,0.39999999999999997,1.3,14.41717,46.85581,return,3.307552400045097,,,,,,,17,23,male,left_right_width,2023_Oct_17_1712,exp1,2021.2.3,59.89282775977537,
,,,,,,,,,,,,,,,,3,9.1,10,10.9,0,0,0.9,0.8,0.1,1.9000000000000001,10,initial,36.05,328,361,393,0,0,9,9,9,0,0,,,,,1,0,1,0,0,24,24,12,,,,,num_3,1.5359218000085093,num_3,0.4,0.9,0.05000000000000007,1.15,1.80215,41.44937,return,4.116500200005248,,,,,,,17,23,male,left_right_width,2023_Oct_17_1712,exp1,2021.2.3,59.89282775977537,
,,,,,,,,,,,,,,,,3,9.3,10,10.7,0,0,0.7,0.6,0.1,1.5,10,initial,36.05,335,361,386,0,0,9,9,9,0,0,,,,,1,0,1,0,0,25,25,6,,,,,num_3,1.5197058000485413,num_3,0.4,1.1,0.10000000000000007,0.9,3.60429,32.43864,return,3.440155699965544,,,,,,,17,23,male,left_right_width,2023_Oct_17_1712,exp1,2021.2.3,59.89282775977537,
,,,,,,,,,,,,,,,,5,8.95,9.475,10,10.525,11.05,0.525,0.275,0.25,2.35,10,match,36.05,323,342,361,379,398,9,9,9,9,9,,,,,1,0,1,0,0,26,26,27,,,,,num_4,1.5211978000006638,num_4,0.2,0.5,0.3,1.0,10.81288,36.04293,return,3.9544712000060827,,,,,,,17,23,male,left_right_width,2023_Oct_17_1712,exp1,2021.2.3,59.89282775977537,
,,,,,,,,,,,,,,,,4,9.5,9.833333333333334,10.166666666666666,10.5,0,0.33333333333333337,0.23333333333333336,0.1,1.1,10,match,36.05,342,354,367,379,0,9,9,9,9,0,,,,,1,0,1,0,0,27,27,1,,,,,num_3,1.227181099995505,num_3,0.45,0.5,0.30000000000000004,0.9,10.81288,32.43864,return,5.576486499980092,,,,,,,17,23,male,left_right_width,2023_Oct_17_1712,exp1,2021.2.3,59.89282775977537,
,,,,,,,,,,,,,,,,4,9.25,9.75,10.25,10.75,0,0.5,0.09999999999999998,0.4,1.9,10,initial,36.05,333,351,370,388,0,9,9,9,9,0,,,,,1,0,1,0,0,28,28,22,,,,,num_3,1.4363795000244863,num_3,0.4,1.1,0.5,0.95,18.02146,34.24078,return,5.9682751999935135,,,,,,,17,23,male,left_right_width,2023_Oct_17_1712,exp1,2021.2.3,59.89282775977537,
,,,,,,,,,,,,,,,,4,9.1,9.7,10.3,10.9,0,0.6000000000000001,0.20000000000000004,0.4,2.2,10,match,36.05,328,350,371,393,0,9,9,9,9,0,,,,,1,0,1,0,0,29,29,17,,,,,num_3,1.5575933000072837,num_3,0.35,0.8,0.44999999999999996,0.8,16.21932,28.83434,return,1.7339517999789678,,,,,,,17,23,male,left_right_width,2023_Oct_17_1712,exp1,2021.2.3,59.89282775977537,
,,,,,,,,,,,,,,,,5,8.6,9.3,10,10.7,11.4,0.7,0.44999999999999996,0.25,3.05,10,initial,36.05,310,335,361,386,411,9,9,9,9,9,,,,,1,0,1,0,0,30,30,44,,,,,num_5,1.5061164000071585,num_5,0.1,0.6,0.25,0.6,9.01073,21.62576,return,2.9457314999890514,,,,,,,17,23,male,left_right_width,2023_Oct_17_1712,exp1,2021.2.3,59.89282775977537,
,,,,,,,,,,,,,,,,4,9.5,9.833333333333334,10.166666666666666,10.5,0,0.3333333333333333,0.08333333333333333,0.25,1.25,10,match,36.05,342,354,367,379,0,9,9,9,9,0,,,,,1,0,1,0,0,31,31,3,,,,,num_3,1.3974764000158757,num_3,0.25,0.5,0.3,0.5,10.81288,18.02146,return,3.4200872000074014,,,,,,,17,23,male,left_right_width,2023_Oct_17_1712,exp1,2021.2.3,59.89282775977537,
,,,,,,,,,,,,,,,,4,9.1,9.7,10.3,10.9,0,0.5999999999999999,0.3499999999999999,0.25,2.05,10,match,36.05,328,350,371,393,0,9,9,9,9,0,,,,,1,0,1,0,0,32,32,15,,,,,num_4,1.5262813000008464,num_4,0.25,1.3,0.35,0.7,12.61502,25.23005,return,3.462528200005181,,,,,,,17,23,male,left_right_width,2023_Oct_17_1712,exp1,2021.2.3,59.89282775977537,
,,,,,,,,,,,,,,,,5,8.2,9.1,10,10.9,11.8,0.9,0.8,0.1,3.7,10,initial,36.05,296,328,361,393,425,9,9,9,9,9,,,,,1,0,1,0,0,33,33,48,,,,,num_5,1.5250064000138082,num_5,0.1,1.3,0.05,1.2,1.80215,43.25151,return,2.5102312000235543,,,,,,,17,23,male,left_right_width,2023_Oct_17_1712,exp1,2021.2.3,59.89282775977537,
,,,,,,,,,,,,,,,,4,9.3,9.766666666666667,10.233333333333333,10.7,0,0.4666666666666667,0.3666666666666667,0.1,1.5,10,match,36.05,335,352,369,386,0,9,9,9,9,0,,,,,1,0,1,0,0,34,34,7,,,,,num_3,1.3538749999715947,num_3,0.35,0.6,0.05000000000000002,0.65,1.80215,23.4279,return,4.737185799982399,,,,,,,17,23,male,left_right_width,2023_Oct_17_1712,exp1,2021.2.3,59.89282775977537,
,,,,,,,,,,,,,,,,4,8.65,9.55,10.45,11.35,0,0.9,0.65,0.25,2.95,10,initial,36.05,312,344,377,409,0,9,9,9,9,0,,,,,1,0,1,0,0,35,35,32,,,,,num_4,1.2872566999867558,num_4,0.4,0.6,0.25000000000000006,1.0,9.01073,36.04293,return,7.226693100004923,,,,,,,17,23,male,left_right_width,2023_Oct_17_1712,exp1,2021.2.3,59.89282775977537,
,,,,,,,,,,,,,,,,4,9.25,9.75,10.25,10.75,0,0.5,0.25,0.25,1.75,10,initial,36.05,333,351,370,388,0,9,9,9,9,0,,,,,1,0,1,0,0,36,36,20,,,,,num_4,1.3316324999905191,num_4,0.2,0.3,0.25,0.8,9.01073,28.83434,return,1.978678499988746,,,,,,,17,23,male,left_right_width,2023_Oct_17_1712,exp1,2021.2.3,59.89282775977537,
,,,,,,,,,,,,,,,,3,9,10,11,0,0,0.9999999999999999,0.5999999999999999,0.4,2.4,10,match,36.05,324,361,397,0,0,9,9,9,0,0,,,,,1,0,1,0,0,37,37,41,,,,,num_3,1.0788771999650635,num_3,0.45,1.3,0.5,1.15,18.02146,41.44937,return,2.250761399976909,,,,,,,17,23,male,left_right_width,2023_Oct_17_1712,exp1,2021.2.3,59.89282775977537,
,,,,,,,,,,,,,,,,3,8.6,10,11.4,0,0,1.4,1.15,0.25,3.05,10,match,36.05,310,361,411,0,0,9,9,9,0,0,,,,,1,0,1,0,0,38,38,45,,,,,num_3,1.016548200044781,num_3,0.45,1.3,0.25000000000000006,1.5,9.01073,54.06439,return,3.302247600047849,,,,,,,17,23,male,left_right_width,2023_Oct_17_1712,exp1,2021.2.3,59.89282775977537,
,,,,,,,,,,,,,,,,3,9,10,11,0,0,1,0.75,0.25,2.25,10,match,36.05,324,361,397,0,0,9,9,9,0,0,,,,,1,0,1,0,0,39,39,39,,,,,num_3,1.0832357999752276,num_3,0.35,1.2,0.2,1.15,7.20859,41.44937,return,3.209007399971597,,,,,,,17,23,male,left_right_width,2023_Oct_17_1712,exp1,2021.2.3,59.89282775977537,
,,,,,,,,,,,,,,,,4,9.3,9.766666666666667,10.233333333333333,10.7,0,0.4666666666666667,0.06666666666666665,0.4,1.8,10,match,36.05,335,352,369,386,0,9,9,9,9,0,,,,,1,0,1,0,0,40,40,11,,,,,num_3,1.3339559999876656,num_3,0.2,0.3,0.39999999999999997,0.6,14.41717,21.62576,return,4.367152100021485,,,,,,,17,23,male,left_right_width,2023_Oct_17_1712,exp1,2021.2.3,59.89282775977537,
,,,,,,,,,,,,,,,,4,8.95,9.65,10.35,11.05,0,0.7,0.6,0.1,2.1999999999999997,10,initial,36.05,323,348,373,398,0,9,9,9,9,0,,,,,1,0,1,0,0,41,41,24,,,,,num_4,1.0919093000120483,num_4,0.1,1.0,0.05,0.8,1.80215,28.83434,return,3.7822646000422537,,,,,,,17,23,male,left_right_width,2023_Oct_17_1712,exp1,2021.2.3,59.89282775977537,
,,,,,,,,,,,,,,,,5,9.25,9.625,10,10.375,10.75,0.375,0.125,0.25,1.75,10,match,36.05,333,347,361,374,388,9,9,9,9,9,,,,,1,0,1,0,0,42,42,21,,,,,num_4,1.6644463000120595,num_4,0.2,0.9,0.2,0.4,7.20859,14.41717,return,3.563235599955078,,,,,,,17,23,male,left_right_width,2023_Oct_17_1712,exp1,2021.2.3,59.89282775977537,
,,,,,,,,,,,,,,,,5,8.65,9.325,10,10.675,11.35,0.675,0.42500000000000004,0.25,2.95,10,match,36.05,312,336,361,385,409,9,9,9,9,9,,,,,1,0,1,0,0,43,43,33,,,,,num_5,1.083281600032933,num_5,0.15,1.3,0.2,0.85,7.20859,30.63649,return,4.3338045999989845,,,,,,,17,23,male,left_right_width,2023_Oct_17_1712,exp1,2021.2.3,59.89282775977537,
,,,,,,,,,,,,,,,,5,8.2,9.1,10,10.9,11.8,0.9,0.65,0.25,3.85,10,initial,36.05,296,328,361,393,425,9,9,9,9,9,,,,,1,0,1,0,0,44,44,50,,,,,num_6,1.2027112999930978,num_6,0.25,0.7,0.2,0.9,7.20859,32.43864,return,2.8495630999677815,,,,,,,17,23,male,left_right_width,2023_Oct_17_1712,exp1,2021.2.3,59.89282775977537,
,,,,,,,,,,,,,,,,4,9.425,9.808333333333334,10.191666666666666,10.575,0,0.3833333333333333,0.1333333333333333,0.25,1.4,10,match,36.05,340,354,367,381,0,9,9,9,9,0,,,,,1,0,1,0,0,45,45,5,,,,,num_3,1.3359717999701388,num_3,0.1,0.6,0.3,0.55,10.81288,19.82361,return,3.51668719999725,,,,,,,17,23,male,left_right_width,2023_Oct_17_1712,exp1,2021.2.3,59.89282775977537,
,,,,,,,,,,,,,,,,4,9.25,9.75,10.25,10.75,0,0.5,0.4,0.1,1.6,10,initial,36.05,333,351,370,388,0,9,9,9,9,0,,,,,1,0,1,0,0,46,46,18,,,,,num_3,1.0462998000439256,num_3,0.3,0.8,0.05000000000000002,0.7,1.80215,25.23005,return,3.3537979999673553,,,,,,,17,23,male,left_right_width,2023_Oct_17_1712,exp1,2021.2.3,59.89282775977537,
,,,,,,,,,,,,,,,,5,8.95,9.475,10,10.525,11.05,0.525,0.125,0.4,2.5,10,match,36.05,323,342,361,379,398,9,9,9,9,9,,,,,1,0,1,0,0,47,47,29,,,,,num_4,1.1430302999797277,num_4,0.35,0.4,0.3,0.5,10.81288,18.02146,return,5.2471192999510095,,,,,,,17,23,male,left_right_width,2023_Oct_17_1712,exp1,2021.2.3,59.89282775977537,
,,,,,,,,,,,,,,,,3,9,10,11,0,0,1,0.9,0.1,2.1,10,match,36.05,324,361,397,0,0,9,9,9,0,0,,,,,1,0,1,0,0,48,48,37,,,,,num_3,1.1331698999856599,num_3,0.25,0.9,-0.09999999999999999,0.85,-3.60429,30.63649,return,8.566055400006007,,,,,,,17,23,male,left_right_width,2023_Oct_17_1712,exp1,2021.2.3,59.89282775977537,
,,,,,,,,,,,,,,,,3,9.3,10,10.7,0,0,0.7,0.44999999999999996,0.25,1.65,10,initial,36.05,335,361,386,0,0,9,9,9,0,0,,,,,1,0,1,0,0,49,49,8,,,,,num_3,1.0454355000401847,num_3,0.25,1,0.15000000000000002,0.9,5.40644,32.43864,return,3.146036499994807,,,,,,,17,23,male,left_right_width,2023_Oct_17_1712,exp1,2021.2.3,59.89282775977537,
,,,,,,,,,,,,,,,,4,9.1,9.7,10.3,10.9,0,0.6,0.5,0.1,1.9,10,match,36.05,328,350,371,393,0,9,9,9,9,0,,,,,1,0,1,0,0,50,50,13,,,,,num_3,1.084847100020852,num_3,0.15,1.3,0.05000000000000002,1.1,1.80215,39.64722,return,3.0882251000148244,,,,,,,17,23,male,left_right_width,2023_Oct_17_1712,exp1,2021.2.3,59.89282775977537,
,,,,,,,,,,,,,,,,4,9.3,9.766666666666667,10.233333333333333,10.7,0,0.4666666666666667,0.21666666666666665,0.25,1.65,10,match,36.05,335,352,369,386,0,9,9,9,9,0,,,,,1,0,1,0,0,51,51,9,,,,,num_4,1.0197823999915272,num_4,0.3,0.6,0.2,0.7,7.20859,25.23005,return,2.7377760999952443,,,,,,,17,23,male,left_right_width,2023_Oct_17_1712,exp1,2021.2.3,59.89282775977537,
,,,,,,,,,,,,,,,,5,8.65,9.325,10,10.675,11.35,0.675,0.275,0.4,3.1,10,match,36.05,312,336,361,385,409,9,9,9,9,9,,,,,1,0,1,0,0,52,52,35,,,,,num_5,1.0253426000126638,num_5,0.2,1.2,0.25,0.9,9.01073,32.43864,return,3.7010987999965437,,,,,,,17,23,male,left_right_width,2023_Oct_17_1712,exp1,2021.2.3,59.89282775977537,
,,,,,,,,,,,,,,,,3,8.525,10,11.475,0,0,1.475,1.225,0.25,3.2,10,match,36.05,307,361,414,0,0,9,9,9,0,0,,,,,1,0,1,0,0,53,53,47,,,,,num_4,1.0876553000416607,num_4,0.45,1.3,0.25000000000000006,1.7,9.01073,61.27298,return,2.6984048999729566,,,,,,,17,23,male,left_right_width,2023_Oct_17_1712,exp1,2021.2.3,59.89282775977537,
,,,,,,,,,,,,,,,,,,,,,,,,,,,,,,,,,,,,,,,,,,,1,0,1,0,,,,,,,,,,,,,,,,,,,,,,1276.248146100028,None,1276.248146100028,None,17,23,male,left_right_width,2023_Oct_17_1712,exp1,2021.2.3,59.89282775977537,
,,,,,,,,,,,,,,,,5,9,9.5,10,10.5,11,0.5,0.25,0.25,2.25,10,initial,36.05,324,342,361,379,397,9,9,9,9,9,,,,,2,0,2,0,0,0,0,38,,,,,num_5,1.114061500004027,num_5,0.25,0.5,0.25,0.6,9.01073,21.62576,return,1.724151200032793,,,,,,,17,23,male,left_right_width,2023_Oct_17_1712,exp1,2021.2.3,59.89282775977537,
,,,,,,,,,,,,,,,,4,8.95,9.65,10.35,11.05,0,0.7,0.29999999999999993,0.4,2.5,10,initial,36.05,323,348,373,398,0,9,9,9,9,0,,,,,2,0,2,0,0,1,1,28,,,,,num_4,1.5079713999875821,num_4,0.4,0.7,0.4,0.9,14.41717,32.43864,return,2.021882999979425,,,,,,,17,23,male,left_right_width,2023_Oct_17_1712,exp1,2021.2.3,59.89282775977537,
,,,,,,,,,,,,,,,,5,8.65,9.325,10,10.675,11.35,0.6749999999999999,0.575,0.1,2.8,10,match,36.05,312,336,361,385,409,9,9,9,9,9,,,,,2,0,2,0,0,2,2,31,,,,,num_5,1.3816437000059523,num_5,0.3,0.6,0.05000000000000002,0.65,1.80215,23.4279,return,3.3486634000437334,,,,,,,17,23,male,left_right_width,2023_Oct_17_1712,exp1,2021.2.3,59.89282775977537,
,,,,,,,,,,,,,,,,3,8.2,10,11.8,0,0,1.7999999999999998,1.4,0.4,4,10,match,36.05,296,361,425,0,0,9,9,9,0,0,,,,,2,0,2,0,0,3,3,53,,,,,num_3,1.3107084999792278,num_3,0.2,0.5,0.35,1.1,12.61502,39.64722,return,4.136719599948265,,,,,,,17,23,male,left_right_width,2023_Oct_17_1712,exp1,2021.2.3,59.89282775977537,
,,,,,,,,,,,,,,,,4,9.3,9.766666666666667,10.233333333333333,10.7,0,0.4666666666666667,0.06666666666666665,0.4,1.8,10,match,36.05,335,352,369,386,0,9,9,9,9,0,,,,,2,0,2,0,0,4,4,11,,,,,num_3,0.9830146000022069,num_3,0.35,0.5,0.35,0.75,12.61502,27.0322,return,3.0699849000084214,,,,,,,17,23,male,left_right_width,2023_Oct_17_1712,exp1,2021.2.3,59.89282775977537,
,,,,,,,,,,,,,,,,3,9.3,10,10.7,0,0,0.7,0.29999999999999993,0.4,1.8,10,initial,36.05,335,361,386,0,0,9,9,9,0,0,,,,,2,0,2,0,0,5,5,10,,,,,num_3,1.2959458999685012,num_3,0.3,0.5,0.39999999999999997,0.9,14.41717,32.43864,return,3.771672300004866,,,,,,,17,23,male,left_right_width,2023_Oct_17_1712,exp1,2021.2.3,59.89282775977537,
,,,,,,,,,,,,,,,,5,8.2,9.1,10,10.9,11.8,0.9,0.8,0.1,3.7,10,initial,36.05,296,328,361,393,425,9,9,9,9,9,,,,,2,0,2,0,0,6,6,48,,,,,num_4,0.9716394999995828,num_4,0.1,1.0,0.05,1.1,1.80215,39.64722,return,3.0000389000051655,,,,,,,17,23,male,left_right_width,2023_Oct_17_1712,exp1,2021.2.3,59.89282775977537,
,,,,,,,,,,,,,,,,3,8.2,10,11.8,0,0,1.8,1.55,0.25,3.85,10,match,36.05,296,361,425,0,0,9,9,9,0,0,,,,,2,0,2,0,0,7,7,51,,,,,num_3,1.1321881000185385,num_3,0.25,0.3,0.10000000000000002,1.3,3.60429,46.85581,return,6.78012079995824,,,,,,,17,23,male,left_right_width,2023_Oct_17_1712,exp1,2021.2.3,59.89282775977537,
,,,,,,,,,,,,,,,,4,8.65,9.55,10.45,11.35,0,0.9,0.8,0.1,2.8000000000000003,10,initial,36.05,312,344,377,409,0,9,9,9,9,0,,,,,2,0,2,0,0,8,8,30,,,,,num_4,1.1134933000430465,num_4,0.35,0.7,0.05000000000000002,1.1,1.80215,39.64722,return,4.800707299960777,,,,,,,17,23,male,left_right_width,2023_Oct_17_1712,exp1,2021.2.3,59.89282775977537,
,,,,,,,,,,,,,,,,4,9.1,9.7,10.3,10.9,0,0.6,0.5,0.1,1.9,10,match,36.05,328,350,371,393,0,9,9,9,9,0,,,,,2,0,2,0,0,9,9,13,,,,,num_4,2.30958219995955,num_4,0.15,1.2,0.04999999999999999,1.1,1.80215,39.64722,return,4.654276699991897,,,,,,,17,23,male,left_right_width,2023_Oct_17_1712,exp1,2021.2.3,59.89282775977537,
,,,,,,,,,,,,,,,,5,9.25,9.625,10,10.375,10.75,0.375,0.125,0.25,1.75,10,match,36.05,333,347,361,374,388,9,9,9,9,9,,,,,2,0,2,0,0,10,10,21,,,,,num_4,2.350871999980882,num_4,0.15,1.3,0.2,0.5,7.20859,18.02146,return,5.108163000026252,,,,,,,17,23,male,left_right_width,2023_Oct_17_1712,exp1,2021.2.3,59.89282775977537,
,,,,,,,,,,,,,,,,4,9.1,9.7,10.3,10.9,0,0.6000000000000001,0.20000000000000004,0.4,2.2,10,match,36.05,328,350,371,393,0,9,9,9,9,0,,,,,2,0,2,0,0,11,11,17,,,,,num_4,1.0615328999701887,num_4,0.35,1.3,0.35,0.7,12.61502,25.23005,return,3.3689123000367545,,,,,,,17,23,male,left_right_width,2023_Oct_17_1712,exp1,2021.2.3,59.89282775977537,
,,,,,,,,,,,,,,,,5,8.95,9.475,10,10.525,11.05,0.525,0.125,0.4,2.5,10,match,36.05,323,342,361,379,398,9,9,9,9,9,,,,,2,0,2,0,0,12,12,29,,,,,num_4,2.112149099993985,num_4,0.3,0.6,0.39999999999999997,0.6,14.41717,21.62576,return,5.600660299998708,,,,,,,17,23,male,left_right_width,2023_Oct_17_1712,exp1,2021.2.3,59.89282775977537,
,,,,,,,,,,,,,,,,4,8.95,9.65,10.35,11.05,0,0.7,0.6,0.1,2.1999999999999997,10,initial,36.05,323,348,373,398,0,9,9,9,9,0,,,,,2,0,2,0,0,13,13,24,,,,,num_4,1.2003891000058502,num_4,0.35,1.3,0.05000000000000002,1.0,1.80215,36.04293,return,3.758944800007157,,,,,,,17,23,male,left_right_width,2023_Oct_17_1712,exp1,2021.2.3,59.89282775977537,
,,,,,,,,,,,,,,,,4,9.3,9.766666666666667,10.233333333333333,10.7,0,0.4666666666666667,0.3666666666666667,0.1,1.5,10,match,36.05,335,352,369,386,0,9,9,9,9,0,,,,,2,0,2,0,0,14,14,7,,,,,num_3,1.264927499985788,num_3,0.35,0.5,0.10000000000000002,0.7,3.60429,25.23005,return,3.821299800009001,,,,,,,17,23,male,left_right_width,2023_Oct_17_1712,exp1,2021.2.3,59.89282775977537,
,,,,,,,,,,,,,,,,3,9,10,11,0,0,1,0.9,0.1,2.1,10,match,36.05,324,361,397,0,0,9,9,9,0,0,,,,,2,0,2,0,0,15,15,37,,,,,num_3,1.5953027000068687,num_3,0.35,1.2,0.05000000000000002,1.4,1.80215,50.4601,return,4.553423799981829,,,,,,,17,23,male,left_right_width,2023_Oct_17_1712,exp1,2021.2.3,59.89282775977537,
,,,,,,,,,,,,,,,,5,9.175,9.5875,10,10.4125,10.825,0.4125,0.16249999999999998,0.25,1.9,10,match,36.05,331,346,361,375,390,9,9,9,9,9,,,,,2,0,2,0,0,16,16,23,,,,,num_4,1.1791378000052646,num_4,0.45,0.8,0.30000000000000004,0.8,10.81288,28.83434,return,4.533014299988281,,,,,,,17,23,male,left_right_width,2023_Oct_17_1712,exp1,2021.2.3,59.89282775977537,
,,,,,,,,,,,,,,,,5,8.6,9.3,10,10.7,11.4,0.7,0.29999999999999993,0.4,3.1999999999999997,10,initial,36.05,310,335,361,386,411,9,9,9,9,9,,,,,2,0,2,0,0,17,17,46,,,,,num_5,1.2067805000115186,num_5,0.4,1.2,0.25000000000000006,1.1,9.01073,39.64722,return,3.3163828999968246,,,,,,,17,23,male,left_right_width,2023_Oct_17_1712,exp1,2021.2.3,59.89282775977537,
,,,,,,,,,,,,,,,,3,8.6,10,11.4,0,0,1.4,1.2999999999999998,0.1,2.9,10,match,36.05,310,361,411,0,0,9,9,9,0,0,,,,,2,0,2,0,0,18,18,43,,,,,num_3,1.1713599999784492,num_3,0.35,0.6,0.05000000000000002,1.1,1.80215,39.64722,return,4.440136299992446,,,,,,,17,23,male,left_right_width,2023_Oct_17_1712,exp1,2021.2.3,59.89282775977537,
,,,,,,,,,,,,,,,,4,9.3,9.766666666666667,10.233333333333333,10.7,0,0.4666666666666667,0.21666666666666665,0.25,1.65,10,match,36.05,335,352,369,386,0,9,9,9,9,0,,,,,2,0,2,0,0,19,19,9,,,,,num_3,1.3817409999901429,num_3,0.45,1.3,0.20000000000000007,0.9,7.20859,32.43864,return,5.644022300024517,,,,,,,17,23,male,left_right_width,2023_Oct_17_1712,exp1,2021.2.3,59.89282775977537,
,,,,,,,,,,,,,,,,5,8.6,9.3,10,10.7,11.4,0.7,0.6,0.1,2.9,10,initial,36.05,310,335,361,386,411,9,9,9,9,9,,,,,2,0,2,0,0,20,20,42,,,,,num_4,1.3774070999934338,num_4,0.1,1.1,0.10000000000000002,0.9,3.60429,32.43864,return,5.081366700003855,,,,,,,17,23,male,left_right_width,2023_Oct_17_1712,exp1,2021.2.3,59.89282775977537,
,,,,,,,,,,,,,,,,4,9.25,9.75,10.25,10.75,0,0.5,0.4,0.1,1.6,10,initial,36.05,333,351,370,388,0,9,9,9,9,0,,,,,2,0,2,0,0,21,21,18,,,,,num_4,1.5662113999715075,num_4,0.4,1.2,0.05000000000000007,0.9,1.80215,32.43864,return,5.631200900010299,,,,,,,17,23,male,left_right_width,2023_Oct_17_1712,exp1,2021.2.3,59.89282775977537,
,,,,,,,,,,,,,,,,5,8.95,9.475,10,10.525,11.05,0.525,0.275,0.25,2.35,10,match,36.05,323,342,361,379,398,9,9,9,9,9,,,,,2,0,2,0,0,22,22,27,,,,,num_4,1.749338599969633,num_4,0.2,0.6,0.25,0.9,9.01073,32.43864,return,4.606355699943379,,,,,,,17,23,male,left_right_width,2023_Oct_17_1712,exp1,2021.2.3,59.89282775977537,
,,,,,,,,,,,,,,,,4,9.25,9.75,10.25,10.75,0,0.5,0.25,0.25,1.75,10,initial,36.05,333,351,370,388,0,9,9,9,9,0,,,,,2,0,2,0,0,23,23,20,,,,,num_4,1.5021283000241965,num_4,0.2,0.8,0.25,0.8,9.01073,28.83434,return,1.935684600030072,,,,,,,17,23,male,left_right_width,2023_Oct_17_1712,exp1,2021.2.3,59.89282775977537,
,,,,,,,,,,,,,,,,4,9.1,9.7,10.3,10.9,0,0.5999999999999999,0.3499999999999999,0.25,2.05,10,match,36.05,328,350,371,393,0,9,9,9,9,0,,,,,2,0,2,0,0,24,24,15,,,,,num_4,1.3662688999902457,num_4,0.1,0.7,0.25,0.7,9.01073,25.23005,return,1.9606625000014901,,,,,,,17,23,male,left_right_width,2023_Oct_17_1712,exp1,2021.2.3,59.89282775977537,
,,,,,,,,,,,,,,,,4,8.65,9.55,10.45,11.35,0,0.9,0.65,0.25,2.95,10,initial,36.05,312,344,377,409,0,9,9,9,9,0,,,,,2,0,2,0,0,25,25,32,,,,,num_4,1.2487248000106774,num_4,0.3,0.8,0.3,1.2,10.81288,43.25151,return,3.674853200034704,,,,,,,17,23,male,left_right_width,2023_Oct_17_1712,exp1,2021.2.3,59.89282775977537,
,,,,,,,,,,,,,,,,3,9.3,10,10.7,0,0,0.7,0.44999999999999996,0.25,1.65,10,initial,36.05,335,361,386,0,0,9,9,9,0,0,,,,,2,0,2,0,0,26,26,8,,,,,num_3,1.1217433999991044,num_3,0.2,0.5,0.3,0.8,10.81288,28.83434,return,3.303247799980454,,,,,,,17,23,male,left_right_width,2023_Oct_17_1712,exp1,2021.2.3,59.89282775977537,
,,,,,,,,,,,,,,,,5,9,9.5,10,10.5,11,0.5,0.09999999999999998,0.4,2.4,10,initial,36.05,324,342,361,379,397,9,9,9,9,9,,,,,2,0,2,0,0,27,27,40,,,,,num_4,0.9995010999846272,num_4,0.25,0.9,0.5499999999999999,0.8,19.82361,28.83434,return,2.7308090000296943,,,,,,,17,23,male,left_right_width,2023_Oct_17_1712,exp1,2021.2.3,59.89282775977537,
,,,,,,,,,,,,,,,,3,9.1,10,10.9,0,0,0.9,0.5,0.4,2.2,10,initial,36.05,328,361,393,0,0,9,9,9,0,0,,,,,2,0,2,0,0,28,28,16,,,,,num_3,1.7949191000079736,num_3,0.3,0.8,0.44999999999999996,0.8,16.21932,28.83434,return,2.954415099986363,,,,,,,17,23,male,left_right_width,2023_Oct_17_1712,exp1,2021.2.3,59.89282775977537,
,,,,,,,,,,,,,,,,4,9.425,9.808333333333334,10.191666666666666,10.575,0,0.3833333333333333,0.1333333333333333,0.25,1.4,10,match,36.05,340,354,367,381,0,9,9,9,9,0,,,,,2,0,2,0,0,29,29,5,,,,,num_3,1.5413548999931663,num_3,0.35,0.4,0.35,0.5,12.61502,18.02146,return,2.4220241000293754,,,,,,,17,23,male,left_right_width,2023_Oct_17_1712,exp1,2021.2.3,59.89282775977537,
,,,,,,,,,,,,,,,,5,8.65,9.325,10,10.675,11.35,0.675,0.275,0.4,3.1,10,match,36.05,312,336,361,385,409,9,9,9,9,9,,,,,2,0,2,0,0,30,30,35,,,,,num_5,2.459751399990637,num_5,0.2,1.0,0.39999999999999997,0.75,14.41717,27.0322,return,4.560635500005446,,,,,,,17,23,male,left_right_width,2023_Oct_17_1712,exp1,2021.2.3,59.89282775977537,
,,,,,,,,,,,,,,,,3,9.5,10,10.5,0,0,0.5,0.09999999999999998,0.4,1.4000000000000001,10,initial,36.05,342,361,379,0,0,9,9,9,0,0,,,,,2,0,2,0,0,31,31,4,,,,,num_3,1.2990587999811396,num_3,0.3,1.2,0.39999999999999997,0.65,14.41717,23.4279,return,5.5786724999779835,,,,,,,17,23,male,left_right_width,2023_Oct_17_1712,exp1,2021.2.3,59.89282775977537,
,,,,,,,,,,,,,,,,3,8.525,10,11.475,0,0,1.475,1.225,0.25,3.2,10,match,36.05,307,361,414,0,0,9,9,9,0,0,,,,,2,0,2,0,0,32,32,47,,,,,num_3,1.0779622999834828,num_3,0.35,0.6,0.10000000000000002,1.5,3.60429,54.06439,return,6.0402721999562345,,,,,,,17,23,male,left_right_width,2023_Oct_17_1712,exp1,2021.2.3,59.89282775977537,
,,,,,,,,,,,,,,,,3,9.5,10,10.5,0,0,0.5,0.25,0.25,1.25,10,initial,36.05,342,361,379,0,0,9,9,9,0,0,,,,,2,0,2,0,0,33,33,2,,,,,num_3,2.0087892999872565,num_3,0.4,0.7,0.30000000000000004,0.85,10.81288,30.63649,return,3.3342273000162095,,,,,,,17,23,male,left_right_width,2023_Oct_17_1712,exp1,2021.2.3,59.89282775977537,
,,,,,,,,,,,,,,,,3,8.6,10,11.4,0,0,1.4,1.15,0.25,3.05,10,match,36.05,310,361,411,0,0,9,9,9,0,0,,,,,2,0,2,0,0,34,34,45,,,,,num_3,1.1663995999842882,num_3,0.35,0.6,0.10000000000000002,1.1,3.60429,39.64722,return,5.8387865999829955,,,,,,,17,23,male,left_right_width,2023_Oct_17_1712,exp1,2021.2.3,59.89282775977537,
,,,,,,,,,,,,,,,,5,8.65,9.325,10,10.675,11.35,0.675,0.42500000000000004,0.25,2.95,10,match,36.05,312,336,361,385,409,9,9,9,9,9,,,,,2,0,2,0,0,35,35,33,,,,,num_5,1.2440907999989577,num_5,0.2,0.3,0.15000000000000002,0.85,5.40644,30.63649,return,2.7129810000187717,,,,,,,17,23,male,left_right_width,2023_Oct_17_1712,exp1,2021.2.3,59.89282775977537,
,,,,,,,,,,,,,,,,3,9.1,10,10.9,0,0,0.9,0.65,0.25,2.05,10,initial,36.05,328,361,393,0,0,9,9,9,0,0,,,,,2,0,2,0,0,36,36,14,,,,,num_3,1.0711524999933317,num_3,0.15,0.6,0.15,1.1,5.40644,39.64722,return,4.306265000021085,,,,,,,17,23,male,left_right_width,2023_Oct_17_1712,exp1,2021.2.3,59.89282775977537,
,,,,,,,,,,,,,,,,3,9,10,11,0,0,0.9999999999999999,0.5999999999999999,0.4,2.4,10,match,36.05,324,361,397,0,0,9,9,9,0,0,,,,,2,0,2,0,0,37,37,41,,,,,num_3,1.535096200008411,num_3,0.25,0.3,0.39999999999999997,0.85,14.41717,30.63649,return,4.1563469000393525,,,,,,,17,23,male,left_right_width,2023_Oct_17_1712,exp1,2021.2.3,59.89282775977537,
,,,,,,,,,,,,,,,,4,9.25,9.75,10.25,10.75,0,0.5,0.09999999999999998,0.4,1.9,10,initial,36.05,333,351,370,388,0,9,9,9,9,0,,,,,2,0,2,0,0,38,38,22,,,,,num_3,1.5957056999905035,num_3,0.1,0.8,0.44999999999999996,0.7,16.21932,25.23005,return,3.7904352000332437,,,,,,,17,23,male,left_right_width,2023_Oct_17_1712,exp1,2021.2.3,59.89282775977537,
,,,,,,,,,,,,,,,,5,9.25,9.625,10,10.375,10.75,0.375,0.275,0.1,1.6,10,match,36.05,333,347,361,374,388,9,9,9,9,9,,,,,2,0,2,0,0,39,39,19,,,,,num_4,1.0665886000497267,num_4,0.25,1.0,0.10000000000000002,0.6,3.60429,21.62576,return,3.74273890000768,,,,,,,17,23,male,left_right_width,2023_Oct_17_1712,exp1,2021.2.3,59.89282775977537,
,,,,,,,,,,,,,,,,3,9.1,10,10.9,0,0,0.9,0.8,0.1,1.9000000000000001,10,initial,36.05,328,361,393,0,0,9,9,9,0,0,,,,,2,0,2,0,0,40,40,12,,,,,num_3,1.1038658000179566,num_3,0.2,0.3,0.05000000000000002,0.7,1.80215,25.23005,return,4.671449399960693,,,,,,,17,23,male,left_right_width,2023_Oct_17_1712,exp1,2021.2.3,59.89282775977537,
,,,,,,,,,,,,,,,,4,8.95,9.65,10.35,11.05,0,0.7,0.44999999999999996,0.25,2.3499999999999996,10,initial,36.05,323,348,373,398,0,9,9,9,9,0,,,,,2,0,2,0,0,41,41,26,,,,,num_4,1.1920453000348061,num_4,0.45,0.9,0.20000000000000007,1.0,7.20859,36.04293,return,3.9894996999646537,,,,,,,17,23,male,left_right_width,2023_Oct_17_1712,exp1,2021.2.3,59.89282775977537,
,,,,,,,,,,,,,,,,3,8.2,10,11.8,0,0,1.8000000000000003,1.7000000000000002,0.1,3.7,10,match,36.05,296,361,425,0,0,9,9,9,0,0,,,,,2,0,2,0,0,42,42,49,,,,,num_3,1.4967951999860816,num_3,0.45,0.8,0.10000000000000007,1.55,3.60429,55.86654,return,5.485164900019299,,,,,,,17,23,male,left_right_width,2023_Oct_17_1712,exp1,2021.2.3,59.89282775977537,
,,,,,,,,,,,,,,,,3,9.3,10,10.7,0,0,0.7,0.6,0.1,1.5,10,initial,36.05,335,361,386,0,0,9,9,9,0,0,,,,,2,0,2,0,0,43,43,6,,,,,num_3,1.0912079999689013,num_3,0.25,0.7,0.05000000000000002,0.85,1.80215,30.63649,return,4.278289500041865,,,,,,,17,23,male,left_right_width,2023_Oct_17_1712,exp1,2021.2.3,59.89282775977537,
,,,,,,,,,,,,,,,,3,9.5,10,10.5,0,0,0.5,0.4,0.1,1.1,10,initial,36.05,342,361,379,0,0,9,9,9,0,0,,,,,2,0,2,0,0,44,44,0,,,,,num_2,0.9638010999769904,num_2,0.45,1.6,0.10000000000000007,1.2,3.60429,43.25151,return,3.8069483000435866,,,,,,,17,23,male,left_right_width,2023_Oct_17_1712,exp1,2021.2.3,59.89282775977537,
,,,,,,,,,,,,,,,,5,8.6,9.3,10,10.7,11.4,0.7,0.44999999999999996,0.25,3.05,10,initial,36.05,310,335,361,386,411,9,9,9,9,9,,,,,2,0,2,0,0,45,45,44,,,,,num_5,1.0309514999971725,num_5,0.2,0.7,0.2,0.55,7.20859,19.82361,return,4.166717500018422,,,,,,,17,23,male,left_right_width,2023_Oct_17_1712,exp1,2021.2.3,59.89282775977537,
,,,,,,,,,,,,,,,,4,9.5,9.833333333333334,10.166666666666666,10.5,0,0.33333333333333337,0.23333333333333336,0.1,1.1,10,match,36.05,342,354,367,379,0,9,9,9,9,0,,,,,2,0,2,0,0,46,46,1,,,,,num_3,1.1294583000126295,num_3,0.3,0.5,0.15000000000000002,0.4,5.40644,14.41717,return,3.5781093999976292,,,,,,,17,23,male,left_right_width,2023_Oct_17_1712,exp1,2021.2.3,59.89282775977537,
,,,,,,,,,,,,,,,,3,9,10,11,0,0,1,0.75,0.25,2.25,10,match,36.05,324,361,397,0,0,9,9,9,0,0,,,,,2,0,2,0,0,47,47,39,,,,,num_3,1.0165221000206657,num_3,0.1,1,0.3,1.1,10.81288,39.64722,return,2.9902989000547677,,,,,,,17,23,male,left_right_width,2023_Oct_17_1712,exp1,2021.2.3,59.89282775977537,
,,,,,,,,,,,,,,,,5,9,9.5,10,10.5,11,0.5,0.4,0.1,2.1,10,initial,36.05,324,342,361,379,397,9,9,9,9,9,,,,,2,0,2,0,0,48,48,36,,,,,num_4,0.9759080000221729,num_4,0.45,0.8,0.10000000000000007,1.0,3.60429,36.04293,return,3.5743197000119835,,,,,,,17,23,male,left_right_width,2023_Oct_17_1712,exp1,2021.2.3,59.89282775977537,
,,,,,,,,,,,,,,,,5,8.2,9.1,10,10.9,11.8,0.9,0.65,0.25,3.85,10,initial,36.05,296,328,361,393,425,9,9,9,9,9,,,,,2,0,2,0,0,49,49,50,,,,,num_5,0.94320899999002,num_5,0.35,0.5,0.10000000000000002,0.75,3.60429,27.0322,return,3.403158999979496,,,,,,,17,23,male,left_right_width,2023_Oct_17_1712,exp1,2021.2.3,59.89282775977537,
,,,,,,,,,,,,,,,,4,8.65,9.55,10.45,11.35,0,0.9,0.5,0.4,3.1,10,initial,36.05,312,344,377,409,0,9,9,9,9,0,,,,,2,0,2,0,0,50,50,34,,,,,num_4,0.905451999977231,num_4,0.35,0.7,0.39999999999999997,1.0,14.41717,36.04293,return,2.162061700015329,,,,,,,17,23,male,left_right_width,2023_Oct_17_1712,exp1,2021.2.3,59.89282775977537,
,,,,,,,,,,,,,,,,4,9.5,9.833333333333334,10.166666666666666,10.5,0,0.3333333333333333,0.08333333333333333,0.25,1.25,10,match,36.05,342,354,367,379,0,9,9,9,9,0,,,,,2,0,2,0,0,51,51,3,,,,,num_3,0.9058931000181474,num_3,0.4,0.7,0.45,0.65,16.21932,23.4279,return,2.0514286999823526,,,,,,,17,23,male,left_right_width,2023_Oct_17_1712,exp1,2021.2.3,59.89282775977537,
,,,,,,,,,,,,,,,,5,8.95,9.475,10,10.525,11.05,0.525,0.42500000000000004,0.1,2.2,10,match,36.05,323,342,361,379,398,9,9,9,9,9,,,,,2,0,2,0,0,52,52,25,,,,,num_5,1.317409500014037,num_5,0.35,0.7,0.10000000000000002,0.5,3.60429,18.02146,return,3.936760399956256,,,,,,,17,23,male,left_right_width,2023_Oct_17_1712,exp1,2021.2.3,59.89282775977537,
,,,,,,,,,,,,,,,,5,8.2,9.1,10,10.9,11.8,0.9,0.5,0.4,4,10,initial,36.05,296,328,361,393,425,9,9,9,9,9,,,,,2,0,2,0,0,53,53,52,,,,,num_5,1.0521354000084102,num_5,0.25,0.5,0.3,0.55,10.81288,19.82361,return,2.5764633000362664,,,,,,,17,23,male,left_right_width,2023_Oct_17_1712,exp1,2021.2.3,59.89282775977537,
,,,,,,,,,,,,,,,,,,,,,,,,,,,,,,,,,,,,,,,,,,,2,0,2,0,,,,,,,,,,,,,,,,,,,,,,1753.814397500013,None,1753.814397500013,None,17,23,male,left_right_width,2023_Oct_17_1712,exp1,2021.2.3,59.89282775977537,
,,,,,,,,,,,,,,,,5,8.6,9.3,10,10.7,11.4,0.7,0.6,0.1,2.9,10,initial,36.05,310,335,361,386,411,9,9,9,9,9,,,,,3,0,3,0,0,0,0,42,,,,,num_4,0.9486406999640167,num_4,0.45,0.8,0.10000000000000007,0.7,3.60429,25.23005,return,3.22519490000559,,,,,,,17,23,male,left_right_width,2023_Oct_17_1712,exp1,2021.2.3,59.89282775977537,
,,,,,,,,,,,,,,,,4,9.1,9.7,10.3,10.9,0,0.6,0.5,0.1,1.9,10,match,36.05,328,350,371,393,0,9,9,9,9,0,,,,,3,0,3,0,0,1,1,13,,,,,num_3,1.0464037000201643,num_3,0.4,1,0.10000000000000007,0.85,3.60429,30.63649,return,2.8398282999987714,,,,,,,17,23,male,left_right_width,2023_Oct_17_1712,exp1,2021.2.3,59.89282775977537,
,,,,,,,,,,,,,,,,4,8.95,9.65,10.35,11.05,0,0.7,0.29999999999999993,0.4,2.5,10,initial,36.05,323,348,373,398,0,9,9,9,9,0,,,,,3,0,3,0,0,2,2,28,,,,,num_3,0.9249812999623828,num_3,0.15,1.2,0.35,0.95,12.61502,34.24078,return,3.167646199988667,,,,,,,17,23,male,left_right_width,2023_Oct_17_1712,exp1,2021.2.3,59.89282775977537,
,,,,,,,,,,,,,,,,4,9.3,9.766666666666667,10.233333333333333,10.7,0,0.4666666666666667,0.3666666666666667,0.1,1.5,10,match,36.05,335,352,369,386,0,9,9,9,9,0,,,,,3,0,3,0,0,3,3,7,,,,,num_3,0.9069734999793582,num_3,0.2,0.7,0.15000000000000002,0.85,5.40644,30.63649,return,2.727930599998217,,,,,,,17,23,male,left_right_width,2023_Oct_17_1712,exp1,2021.2.3,59.89282775977537,
,,,,,,,,,,,,,,,,4,9.425,9.808333333333334,10.191666666666666,10.575,0,0.3833333333333333,0.1333333333333333,0.25,1.4,10,match,36.05,340,354,367,381,0,9,9,9,9,0,,,,,3,0,3,0,0,4,4,5,,,,,num_3,1.1184120000107214,num_3,0.1,0.7,0.25,0.65,9.01073,23.4279,return,2.4126380999805406,,,,,,,17,23,male,left_right_width,2023_Oct_17_1712,exp1,2021.2.3,59.89282775977537,
,,,,,,,,,,,,,,,,5,8.6,9.3,10,10.7,11.4,0.7,0.44999999999999996,0.25,3.05,10,initial,36.05,310,335,361,386,411,9,9,9,9,9,,,,,3,0,3,0,0,5,5,44,,,,,num_4,0.8300902000046335,num_4,0.25,0.7,0.3,0.7,10.81288,25.23005,return,1.6605526999919675,,,,,,,17,23,male,left_right_width,2023_Oct_17_1712,exp1,2021.2.3,59.89282775977537,
,,,,,,,,,,,,,,,,5,8.2,9.1,10,10.9,11.8,0.9,0.8,0.1,3.7,10,initial,36.05,296,328,361,393,425,9,9,9,9,9,,,,,3,0,3,0,0,6,6,48,,,,,num_4,0.8421471000183374,num_4,0.45,1.3,0.15000000000000008,0.9,5.40644,32.43864,return,3.54293230001349,,,,,,,17,23,male,left_right_width,2023_Oct_17_1712,exp1,2021.2.3,59.89282775977537,
,,,,,,,,,,,,,,,,5,9,9.5,10,10.5,11,0.5,0.25,0.25,2.25,10,initial,36.05,324,342,361,379,397,9,9,9,9,9,,,,,3,0,3,0,0,7,7,38,,,,,num_4,0.828851499943994,num_4,0.25,1.1,0.3,0.8,10.81288,28.83434,return,2.300140199949965,,,,,,,17,23,male,left_right_width,2023_Oct_17_1712,exp1,2021.2.3,59.89282775977537,
,,,,,,,,,,,,,,,,5,8.65,9.325,10,10.675,11.35,0.675,0.42500000000000004,0.25,2.95,10,match,36.05,312,336,361,385,409,9,9,9,9,9,,,,,3,0,3,0,0,8,8,33,,,,,num_4,0.8398586999974214,num_4,0.2,0.7,0.25,0.7,9.01073,25.23005,return,0.8215417999890633,,,,,,,17,23,male,left_right_width,2023_Oct_17_1712,exp1,2021.2.3,59.89282775977537,
,,,,,,,,,,,,,,,,3,8.525,10,11.475,0,0,1.475,1.225,0.25,3.2,10,match,36.05,307,361,414,0,0,9,9,9,0,0,,,,,3,0,3,0,0,9,9,47,,,,,num_3,0.9327085000113584,num_3,0.35,0.7,0.25,0.8,9.01073,28.83434,return,3.7745858000125736,,,,,,,17,23,male,left_right_width,2023_Oct_17_1712,exp1,2021.2.3,59.89282775977537,
,,,,,,,,,,,,,,,,3,8.2,10,11.8,0,0,1.8000000000000003,1.7000000000000002,0.1,3.7,10,match,36.05,296,361,425,0,0,9,9,9,0,0,,,,,3,0,3,0,0,10,10,49,,,,,num_3,0.8480395000078715,num_3,0.2,0.9,0.15000000000000002,1.05,5.40644,37.84507,return,1.7247122999979183,,,,,,,17,23,male,left_right_width,2023_Oct_17_1712,exp1,2021.2.3,59.89282775977537,
,,,,,,,,,,,,,,,,5,8.95,9.475,10,10.525,11.05,0.525,0.125,0.4,2.5,10,match,36.05,323,342,361,379,398,9,9,9,9,9,,,,,3,0,3,0,0,11,11,29,,,,,num_4,0.8582775999675505,num_4,0.2,1.2,0.39999999999999997,0.8,14.41717,28.83434,return,3.3811061999876983,,,,,,,17,23,male,left_right_width,2023_Oct_17_1712,exp1,2021.2.3,59.89282775977537,
,,,,,,,,,,,,,,,,4,8.65,9.55,10.45,11.35,0,0.9,0.5,0.4,3.1,10,initial,36.05,312,344,377,409,0,9,9,9,9,0,,,,,3,0,3,0,0,12,12,34,,,,,num_4,0.8216057000099681,num_4,0.35,0.8,0.3,0.7,10.81288,25.23005,return,2.1486660999944434,,,,,,,17,23,male,left_right_width,2023_Oct_17_1712,exp1,2021.2.3,59.89282775977537,
,,,,,,,,,,,,,,,,3,8.2,10,11.8,0,0,1.7999999999999998,1.4,0.4,4,10,match,36.05,296,361,425,0,0,9,9,9,0,0,,,,,3,0,3,0,0,13,13,53,,,,,num_3,0.8255644000018947,num_3,0.2,0.6,0.3,1.35,10.81288,48.65795,return,4.823613500047941,,,,,,,17,23,male,left_right_width,2023_Oct_17_1712,exp1,2021.2.3,59.89282775977537,
,,,,,,,,,,,,,,,,4,8.65,9.55,10.45,11.35,0,0.9,0.65,0.25,2.95,10,initial,36.05,312,344,377,409,0,9,9,9,9,0,,,,,3,0,3,0,0,14,14,32,,,,,num_4,0.9479334000498056,num_4,0.1,0.5,0.3,1.8,10.81288,64.87727,return,4.2792003999929875,,,,,,,17,23,male,left_right_width,2023_Oct_17_1712,exp1,2021.2.3,59.89282775977537,
,,,,,,,,,,,,,,,,5,8.6,9.3,10,10.7,11.4,0.7,0.29999999999999993,0.4,3.1999999999999997,10,initial,36.05,310,335,361,386,411,9,9,9,9,9,,,,,3,0,3,0,0,15,15,46,,,,,num_4,0.9653625999926589,num_4,0.3,0.7,0.35,1.1,12.61502,39.64722,return,1.757309200009331,,,,,,,17,23,male,left_right_width,2023_Oct_17_1712,exp1,2021.2.3,59.89282775977537,
,,,,,,,,,,,,,,,,5,9,9.5,10,10.5,11,0.5,0.09999999999999998,0.4,2.4,10,initial,36.05,324,342,361,379,397,9,9,9,9,9,,,,,3,0,3,0,0,16,16,40,,,,,num_4,0.9221969000063837,num_4,0.3,1.0,0.49999999999999994,0.7,18.02146,25.23005,return,4.420292299997527,,,,,,,17,23,male,left_right_width,2023_Oct_17_1712,exp1,2021.2.3,59.89282775977537,
,,,,,,,,,,,,,,,,5,9.25,9.625,10,10.375,10.75,0.375,0.125,0.25,1.75,10,match,36.05,333,347,361,374,388,9,9,9,9,9,,,,,3,0,3,0,0,17,17,21,,,,,num_4,1.0876142000197433,num_4,0.25,0.4,0.35,0.5,12.61502,18.02146,return,7.575862800003961,,,,,,,17,23,male,left_right_width,2023_Oct_17_1712,exp1,2021.2.3,59.89282775977537,
,,,,,,,,,,,,,,,,5,9,9.5,10,10.5,11,0.5,0.4,0.1,2.1,10,initial,36.05,324,342,361,379,397,9,9,9,9,9,,,,,3,0,3,0,0,18,18,36,,,,,num_4,1.1087329000001773,num_4,0.45,0.7,0.10000000000000007,0.5,3.60429,18.02146,return,3.3809401000034995,,,,,,,17,23,male,left_right_width,2023_Oct_17_1712,exp1,2021.2.3,59.89282775977537,
,,,,,,,,,,,,,,,,5,8.95,9.475,10,10.525,11.05,0.525,0.42500000000000004,0.1,2.2,10,match,36.05,323,342,361,379,398,9,9,9,9,9,,,,,3,0,3,0,0,19,19,25,,,,,num_4,1.7468189999926835,num_4,0.25,1.2,0.05000000000000002,1.2,1.80215,43.25151,return,5.3084067000309005,,,,,,,17,23,male,left_right_width,2023_Oct_17_1712,exp1,2021.2.3,59.89282775977537,
,,,,,,,,,,,,,,,,5,8.2,9.1,10,10.9,11.8,0.9,0.5,0.4,4,10,initial,36.05,296,328,361,393,425,9,9,9,9,9,,,,,3,0,3,0,0,20,20,52,,,,,num_5,1.3122500000172295,num_5,0.15,0.9,0.35,0.8,12.61502,28.83434,return,3.048684800043702,,,,,,,17,23,male,left_right_width,2023_Oct_17_1712,exp1,2021.2.3,59.89282775977537,
,,,,,,,,,,,,,,,,3,9.1,10,10.9,0,0,0.9,0.65,0.25,2.05,10,initial,36.05,328,361,393,0,0,9,9,9,0,0,,,,,3,0,3,0,0,21,21,14,,,,,num_3,1.1653322000056505,num_3,0.1,0.3,0.25,0.75,9.01073,27.0322,return,3.7415976999909617,,,,,,,17,23,male,left_right_width,2023_Oct_17_1712,exp1,2021.2.3,59.89282775977537,
,,,,,,,,,,,,,,,,4,9.1,9.7,10.3,10.9,0,0.6000000000000001,0.20000000000000004,0.4,2.2,10,match,36.05,328,350,371,393,0,9,9,9,9,0,,,,,3,0,3,0,0,22,22,17,,,,,num_3,0.9493124000146054,num_3,0.3,1.1,0.39999999999999997,0.9,14.41717,32.43864,return,3.8954818000202067,,,,,,,17,23,male,left_right_width,2023_Oct_17_1712,exp1,2021.2.3,59.89282775977537,
,,,,,,,,,,,,,,,,4,9.25,9.75,10.25,10.75,0,0.5,0.09999999999999998,0.4,1.9,10,initial,36.05,333,351,370,388,0,9,9,9,9,0,,,,,3,0,3,0,0,23,23,22,,,,,num_3,1.46609320002608,num_3,0.4,1,0.4,0.75,14.41717,27.0322,return,3.9016262000077404,,,,,,,17,23,male,left_right_width,2023_Oct_17_1712,exp1,2021.2.3,59.89282775977537,
,,,,,,,,,,,,,,,,3,9,10,11,0,0,0.9999999999999999,0.5999999999999999,0.4,2.4,10,match,36.05,324,361,397,0,0,9,9,9,0,0,,,,,3,0,3,0,0,24,24,41,,,,,num_3,1.2194406000198796,num_3,0.3,0.5,0.25,0.95,9.01073,34.24078,return,3.774508800008334,,,,,,,17,23,male,left_right_width,2023_Oct_17_1712,exp1,2021.2.3,59.89282775977537,
,,,,,,,,,,,,,,,,3,9.5,10,10.5,0,0,0.5,0.09999999999999998,0.4,1.4000000000000001,10,initial,36.05,342,361,379,0,0,9,9,9,0,0,,,,,3,0,3,0,0,25,25,4,,,,,num_3,0.8985711000277661,num_3,0.25,0.6,0.39999999999999997,0.55,14.41717,19.82361,return,2.7990732000325806,,,,,,,17,23,male,left_right_width,2023_Oct_17_1712,exp1,2021.2.3,59.89282775977537,
,,,,,,,,,,,,,,,,3,9,10,11,0,0,1,0.75,0.25,2.25,10,match,36.05,324,361,397,0,0,9,9,9,0,0,,,,,3,0,3,0,0,26,26,39,,,,,num_3,0.8383953999727964,num_3,0.15,1,0.3,1.15,10.81288,41.44937,return,2.5944732000352815,,,,,,,17,23,male,left_right_width,2023_Oct_17_1712,exp1,2021.2.3,59.89282775977537,
,,,,,,,,,,,,,,,,4,9.1,9.7,10.3,10.9,0,0.5999999999999999,0.3499999999999999,0.25,2.05,10,match,36.05,328,350,371,393,0,9,9,9,9,0,,,,,3,0,3,0,0,27,27,15,,,,,num_4,1.0114070000126958,num_4,0.25,0.3,0.10000000000000002,0.7,3.60429,25.23005,return,3.9936441000318155,,,,,,,17,23,male,left_right_width,2023_Oct_17_1712,exp1,2021.2.3,59.89282775977537,
,,,,,,,,,,,,,,,,5,8.95,9.475,10,10.525,11.05,0.525,0.275,0.25,2.35,10,match,36.05,323,342,361,379,398,9,9,9,9,9,,,,,3,0,3,0,0,28,28,27,,,,,num_4,1.3674394999979995,num_4,0.35,0.9,0.25,0.7,9.01073,25.23005,return,3.68122820003191,,,,,,,17,23,male,left_right_width,2023_Oct_17_1712,exp1,2021.2.3,59.89282775977537,
,,,,,,,,,,,,,,,,4,9.5,9.833333333333334,10.166666666666666,10.5,0,0.3333333333333333,0.08333333333333333,0.25,1.25,10,match,36.05,342,354,367,379,0,9,9,9,9,0,,,,,3,0,3,0,0,29,29,3,,,,,num_4,1.3315282999537885,num_4,0.3,0.4,0.3,0.4,10.81288,14.41717,return,1.2449386999942362,,,,,,,17,23,male,left_right_width,2023_Oct_17_1712,exp1,2021.2.3,59.89282775977537,
,,,,,,,,,,,,,,,,3,9.5,10,10.5,0,0,0.5,0.4,0.1,1.1,10,initial,36.05,342,361,379,0,0,9,9,9,0,0,,,,,3,0,3,0,0,30,30,0,,,,,num_3,1.1483452999964356,num_3,0.15,0.4,0.04999999999999999,0.35,1.80215,12.61502,return,2.4268121999921277,,,,,,,17,23,male,left_right_width,2023_Oct_17_1712,exp1,2021.2.3,59.89282775977537,
,,,,,,,,,,,,,,,,4,9.3,9.766666666666667,10.233333333333333,10.7,0,0.4666666666666667,0.06666666666666665,0.4,1.8,10,match,36.05,335,352,369,386,0,9,9,9,9,0,,,,,3,0,3,0,0,31,31,11,,,,,num_4,1.1166214999975637,num_4,0.2,0.6,0.3,0.4,10.81288,14.41717,return,2.9359430000185966,,,,,,,17,23,male,left_right_width,2023_Oct_17_1712,exp1,2021.2.3,59.89282775977537,
,,,,,,,,,,,,,,,,4,8.95,9.65,10.35,11.05,0,0.7,0.6,0.1,2.1999999999999997,10,initial,36.05,323,348,373,398,0,9,9,9,9,0,,,,,3,0,3,0,0,32,32,24,,,,,num_3,1.110309200012125,num_3,0.4,1,0.05000000000000007,1.1,1.80215,39.64722,return,4.8565627000061795,,,,,,,17,23,male,left_right_width,2023_Oct_17_1712,exp1,2021.2.3,59.89282775977537,
,,,,,,,,,,,,,,,,3,9.1,10,10.9,0,0,0.9,0.5,0.4,2.2,10,initial,36.05,328,361,393,0,0,9,9,9,0,0,,,,,3,0,3,0,0,33,33,16,,,,,num_3,1.2025794999790378,num_3,0.25,0.8,0.44999999999999996,0.95,16.21932,34.24078,return,2.9277821999858133,,,,,,,17,23,male,left_right_width,2023_Oct_17_1712,exp1,2021.2.3,59.89282775977537,
,,,,,,,,,,,,,,,,4,9.5,9.833333333333334,10.166666666666666,10.5,0,0.33333333333333337,0.23333333333333336,0.1,1.1,10,match,36.05,342,354,367,379,0,9,9,9,9,0,,,,,3,0,3,0,0,34,34,1,,,,,num_3,1.263527899980545,num_3,0.4,0.7,0.15000000000000008,0.45,5.40644,16.21932,return,4.156146599969361,,,,,,,17,23,male,left_right_width,2023_Oct_17_1712,exp1,2021.2.3,59.89282775977537,
,,,,,,,,,,,,,,,,3,8.6,10,11.4,0,0,1.4,1.2999999999999998,0.1,2.9,10,match,36.05,310,361,411,0,0,9,9,9,0,0,,,,,3,0,3,0,0,35,35,43,,,,,num_3,1.4898705000523478,num_3,0.3,1,0.05000000000000002,1.35,1.80215,48.65795,return,3.0097059999825433,,,,,,,17,23,male,left_right_width,2023_Oct_17_1712,exp1,2021.2.3,59.89282775977537,
,,,,,,,,,,,,,,,,5,9.175,9.5875,10,10.4125,10.825,0.4125,0.16249999999999998,0.25,1.9,10,match,36.05,331,346,361,375,390,9,9,9,9,9,,,,,3,0,3,0,0,36,36,23,,,,,num_4,0.9816559999599122,num_4,0.15,0.8,0.3,0.5,10.81288,18.02146,return,2.6700059000286274,,,,,,,17,23,male,left_right_width,2023_Oct_17_1712,exp1,2021.2.3,59.89282775977537,
,,,,,,,,,,,,,,,,5,8.65,9.325,10,10.675,11.35,0.6749999999999999,0.575,0.1,2.8,10,match,36.05,312,336,361,385,409,9,9,9,9,9,,,,,3,0,3,0,0,37,37,31,,,,,num_5,1.0601723999716341,num_5,0.1,0.4,0.15000000000000002,0.8,5.40644,28.83434,return,3.673004799988121,,,,,,,17,23,male,left_right_width,2023_Oct_17_1712,exp1,2021.2.3,59.89282775977537,
,,,,,,,,,,,,,,,,3,9.1,10,10.9,0,0,0.9,0.8,0.1,1.9000000000000001,10,initial,36.05,328,361,393,0,0,9,9,9,0,0,,,,,3,0,3,0,0,38,38,12,,,,,num_3,0.9340287999948487,num_3,0.45,1,0.20000000000000007,0.8,7.20859,28.83434,return,5.408129999996163,,,,,,,17,23,male,left_right_width,2023_Oct_17_1712,exp1,2021.2.3,59.89282775977537,
,,,,,,,,,,,,,,,,5,8.65,9.325,10,10.675,11.35,0.675,0.275,0.4,3.1,10,match,36.05,312,336,361,385,409,9,9,9,9,9,,,,,3,0,3,0,0,39,39,35,,,,,num_4,0.857545199978631,num_4,0.4,0.9,0.30000000000000004,0.7,10.81288,25.23005,return,2.5778805000009015,,,,,,,17,23,male,left_right_width,2023_Oct_17_1712,exp1,2021.2.3,59.89282775977537,
,,,,,,,,,,,,,,,,3,9.3,10,10.7,0,0,0.7,0.29999999999999993,0.4,1.8,10,initial,36.05,335,361,386,0,0,9,9,9,0,0,,,,,3,0,3,0,0,40,40,10,,,,,num_3,0.8859432999743149,num_3,0.2,0.4,0.3,0.6,10.81288,21.62576,return,2.815641100052744,,,,,,,17,23,male,left_right_width,2023_Oct_17_1712,exp1,2021.2.3,59.89282775977537,
,,,,,,,,,,,,,,,,3,9.5,10,10.5,0,0,0.5,0.25,0.25,1.25,10,initial,36.05,342,361,379,0,0,9,9,9,0,0,,,,,3,0,3,0,0,41,41,2,,,,,num_2,0.9254014000180177,num_2,0.35,1.6,0.39999999999999997,1.0,14.41717,36.04293,return,2.1515996000380255,,,,,,,17,23,male,left_right_width,2023_Oct_17_1712,exp1,2021.2.3,59.89282775977537,
,,,,,,,,,,,,,,,,3,9.3,10,10.7,0,0,0.7,0.6,0.1,1.5,10,initial,36.05,335,361,386,0,0,9,9,9,0,0,,,,,3,0,3,0,0,42,42,6,,,,,num_3,0.8420648000319488,num_3,0.4,0.5,0.10000000000000007,0.65,3.60429,23.4279,return,4.662519000004977,,,,,,,17,23,male,left_right_width,2023_Oct_17_1712,exp1,2021.2.3,59.89282775977537,
,,,,,,,,,,,,,,,,3,8.2,10,11.8,0,0,1.8,1.55,0.25,3.85,10,match,36.05,296,361,425,0,0,9,9,9,0,0,,,,,3,0,3,0,0,43,43,51,,,,,num_3,1.9135123000014573,num_3,0.25,0.7,0.10000000000000002,1.2,3.60429,43.25151,return,3.585578099999111,,,,,,,17,23,male,left_right_width,2023_Oct_17_1712,exp1,2021.2.3,59.89282775977537,
,,,,,,,,,,,,,,,,4,8.95,9.65,10.35,11.05,0,0.7,0.44999999999999996,0.25,2.3499999999999996,10,initial,36.05,323,348,373,398,0,9,9,9,9,0,,,,,3,0,3,0,0,44,44,26,,,,,num_4,1.033196099975612,num_4,0.2,1.0,0.15000000000000002,1.0,5.40644,36.04293,return,3.08710180001799,,,,,,,17,23,male,left_right_width,2023_Oct_17_1712,exp1,2021.2.3,59.89282775977537,
,,,,,,,,,,,,,,,,4,9.3,9.766666666666667,10.233333333333333,10.7,0,0.4666666666666667,0.21666666666666665,0.25,1.65,10,match,36.05,335,352,369,386,0,9,9,9,9,0,,,,,3,0,3,0,0,45,45,9,,,,,num_4,1.040407899999991,num_4,0.4,1.0,0.20000000000000007,0.5,7.20859,18.02146,return,3.727416399982758,,,,,,,17,23,male,left_right_width,2023_Oct_17_1712,exp1,2021.2.3,59.89282775977537,
,,,,,,,,,,,,,,,,5,8.2,9.1,10,10.9,11.8,0.9,0.65,0.25,3.85,10,initial,36.05,296,328,361,393,425,9,9,9,9,9,,,,,3,0,3,0,0,46,46,50,,,,,num_5,0.9900192000204697,num_5,0.2,0.3,0.25,0.75,9.01073,27.0322,return,2.0362338999984786,,,,,,,17,23,male,left_right_width,2023_Oct_17_1712,exp1,2021.2.3,59.89282775977537,
,,,,,,,,,,,,,,,,4,8.65,9.55,10.45,11.35,0,0.9,0.8,0.1,2.8000000000000003,10,initial,36.05,312,344,377,409,0,9,9,9,9,0,,,,,3,0,3,0,0,47,47,30,,,,,num_3,1.2929576000315137,num_3,0.3,1,0.10000000000000002,1.2,3.60429,43.25151,return,3.6236182999564335,,,,,,,17,23,male,left_right_width,2023_Oct_17_1712,exp1,2021.2.3,59.89282775977537,
,,,,,,,,,,,,,,,,4,9.25,9.75,10.25,10.75,0,0.5,0.25,0.25,1.75,10,initial,36.05,333,351,370,388,0,9,9,9,9,0,,,,,3,0,3,0,0,48,48,20,,,,,num_4,1.193961999961175,num_4,0.15,0.7,0.2,0.7,7.20859,25.23005,return,1.7194152000010945,,,,,,,17,23,male,left_right_width,2023_Oct_17_1712,exp1,2021.2.3,59.89282775977537,
,,,,,,,,,,,,,,,,3,8.6,10,11.4,0,0,1.4,1.15,0.25,3.05,10,match,36.05,310,361,411,0,0,9,9,9,0,0,,,,,3,0,3,0,0,49,49,45,,,,,num_3,0.8873186999699101,num_3,0.4,0.7,0.20000000000000007,0.8,7.20859,28.83434,return,2.7063178999815136,,,,,,,17,23,male,left_right_width,2023_Oct_17_1712,exp1,2021.2.3,59.89282775977537,
,,,,,,,,,,,,,,,,3,9.3,10,10.7,0,0,0.7,0.44999999999999996,0.25,1.65,10,initial,36.05,335,361,386,0,0,9,9,9,0,0,,,,,3,0,3,0,0,50,50,8,,,,,num_2,0.9786097000469454,num_2,0.3,1.6,0.25,0.8,9.01073,28.83434,return,3.7086373000056483,,,,,,,17,23,male,left_right_width,2023_Oct_17_1712,exp1,2021.2.3,59.89282775977537,
,,,,,,,,,,,,,,,,3,9,10,11,0,0,1,0.9,0.1,2.1,10,match,36.05,324,361,397,0,0,9,9,9,0,0,,,,,3,0,3,0,0,51,51,37,,,,,num_2,1.422338199976366,num_2,0.25,1.6,0.05000000000000002,1.2,1.80215,43.25151,return,3.436754699971061,,,,,,,17,23,male,left_right_width,2023_Oct_17_1712,exp1,2021.2.3,59.89282775977537,
,,,,,,,,,,,,,,,,4,9.25,9.75,10.25,10.75,0,0.5,0.4,0.1,1.6,10,initial,36.05,333,351,370,388,0,9,9,9,9,0,,,,,3,0,3,0,0,52,52,18,,,,,num_3,0.7661255999701098,num_3,0.3,0.4,0.05000000000000002,0.6,1.80215,21.62576,return,2.1059765000245534,,,,,,,17,23,male,left_right_width,2023_Oct_17_1712,exp1,2021.2.3,59.89282775977537,
,,,,,,,,,,,,,,,,5,9.25,9.625,10,10.375,10.75,0.375,0.275,0.1,1.6,10,match,36.05,333,347,361,374,388,9,9,9,9,9,,,,,3,0,3,0,0,53,53,19,,,,,num_4,0.9414272999856621,num_4,0.35,0.9,0.10000000000000002,0.7,3.60429,25.23005,return,3.751639799971599,,,,,,,17,23,male,left_right_width,2023_Oct_17_1712,exp1,2021.2.3,59.89282775977537,
,,,,,,,,,,,,,,,,,,,,,,,,,,,,,,,,,,,,,,,,,,,3,0,3,0,,,,,,,,,,,,,,,,,,,,,,2265.21412780002,None,2265.21412780002,None,17,23,male,left_right_width,2023_Oct_17_1712,exp1,2021.2.3,59.89282775977537,
,,,,,,,,,,,,,,,,5,9,9.5,10,10.5,11,0.5,0.4,0.1,2.1,10,initial,36.05,324,342,361,379,397,9,9,9,9,9,,,,,4,0,4,0,0,0,0,36,,,,,num_4,0.9653851999901235,num_4,0.3,0.5,0.10000000000000002,0.8,3.60429,28.83434,return,1.90269580000313,,,,,,,17,23,male,left_right_width,2023_Oct_17_1712,exp1,2021.2.3,59.89282775977537,
,,,,,,,,,,,,,,,,4,9.3,9.766666666666667,10.233333333333333,10.7,0,0.4666666666666667,0.3666666666666667,0.1,1.5,10,match,36.05,335,352,369,386,0,9,9,9,9,0,,,,,4,0,4,0,0,1,1,7,,,,,num_3,0.8027204999816604,num_3,0.4,0.5,0.10000000000000007,0.7,3.60429,25.23005,return,2.464653500006534,,,,,,,17,23,male,left_right_width,2023_Oct_17_1712,exp1,2021.2.3,59.89282775977537,
,,,,,,,,,,,,,,,,4,8.65,9.55,10.45,11.35,0,0.9,0.5,0.4,3.1,10,initial,36.05,312,344,377,409,0,9,9,9,9,0,,,,,4,0,4,0,0,2,2,34,,,,,num_4,0.7522994000464678,num_4,0.4,0.9,0.30000000000000004,0.7,10.81288,25.23005,return,2.398711399990134,,,,,,,17,23,male,left_right_width,2023_Oct_17_1712,exp1,2021.2.3,59.89282775977537,
,,,,,,,,,,,,,,,,3,8.525,10,11.475,0,0,1.475,1.225,0.25,3.2,10,match,36.05,307,361,414,0,0,9,9,9,0,0,,,,,4,0,4,0,0,3,3,47,,,,,num_3,0.7754321999964304,num_3,0.35,0.8,0.2,1.05,7.20859,37.84507,return,2.2927057000342757,,,,,,,17,23,male,left_right_width,2023_Oct_17_1712,exp1,2021.2.3,59.89282775977537,
,,,,,,,,,,,,,,,,5,8.95,9.475,10,10.525,11.05,0.525,0.275,0.25,2.35,10,match,36.05,323,342,361,379,398,9,9,9,9,9,,,,,4,0,4,0,0,4,4,27,,,,,num_4,0.8920165000017732,num_4,0.4,0.6,0.20000000000000007,0.7,7.20859,25.23005,return,1.1246760999783874,,,,,,,17,23,male,left_right_width,2023_Oct_17_1712,exp1,2021.2.3,59.89282775977537,
,,,,,,,,,,,,,,,,4,8.65,9.55,10.45,11.35,0,0.9,0.8,0.1,2.8000000000000003,10,initial,36.05,312,344,377,409,0,9,9,9,9,0,,,,,4,0,4,0,0,5,5,30,,,,,num_4,0.8128891999949701,num_4,0.2,0.8,0.10000000000000002,0.6,3.60429,21.62576,return,1.6527642000000924,,,,,,,17,23,male,left_right_width,2023_Oct_17_1712,exp1,2021.2.3,59.89282775977537,
,,,,,,,,,,,,,,,,5,8.6,9.3,10,10.7,11.4,0.7,0.44999999999999996,0.25,3.05,10,initial,36.05,310,335,361,386,411,9,9,9,9,9,,,,,4,0,4,0,0,6,6,44,,,,,num_5,0.8577821000362746,num_5,0.2,0.8,0.2,0.7,7.20859,25.23005,return,3.3326720999903046,,,,,,,17,23,male,left_right_width,2023_Oct_17_1712,exp1,2021.2.3,59.89282775977537,
,,,,,,,,,,,,,,,,3,9.5,10,10.5,0,0,0.5,0.4,0.1,1.1,10,initial,36.05,342,361,379,0,0,9,9,9,0,0,,,,,4,0,4,0,0,7,7,0,,,,,num_2,0.8579418999725021,num_2,0.25,1.6,0.10000000000000002,0.9,3.60429,32.43864,return,3.1420222999877296,,,,,,,17,23,male,left_right_width,2023_Oct_17_1712,exp1,2021.2.3,59.89282775977537,
,,,,,,,,,,,,,,,,5,8.95,9.475,10,10.525,11.05,0.525,0.125,0.4,2.5,10,match,36.05,323,342,361,379,398,9,9,9,9,9,,,,,4,0,4,0,0,8,8,29,,,,,num_1,0.8176620999583974,num_1,0.3,9999,0.3,9999,10.81288,360393.24009,return,1.9981230999692343,,,,,,,17,23,male,left_right_width,2023_Oct_17_1712,exp1,2021.2.3,59.89282775977537,
,,,,,,,,,,,,,,,,4,9.1,9.7,10.3,10.9,0,0.5999999999999999,0.3499999999999999,0.25,2.05,10,match,36.05,328,350,371,393,0,9,9,9,9,0,,,,,4,0,4,0,0,9,9,15,,,,,num_4,1.3609286000137217,num_4,0.35,1.0,0.3,0.6,10.81288,21.62576,return,1.5616360999993049,,,,,,,17,23,male,left_right_width,2023_Oct_17_1712,exp1,2021.2.3,59.89282775977537,
,,,,,,,,,,,,,,,,3,9.1,10,10.9,0,0,0.9,0.8,0.1,1.9000000000000001,10,initial,36.05,328,361,393,0,0,9,9,9,0,0,,,,,4,0,4,0,0,10,10,12,,,,,num_2,0.8135265000164509,num_2,0.25,1.6,0.10000000000000002,1.0,3.60429,36.04293,return,2.5566419000388123,,,,,,,17,23,male,left_right_width,2023_Oct_17_1712,exp1,2021.2.3,59.89282775977537,
,,,,,,,,,,,,,,,,5,8.95,9.475,10,10.525,11.05,0.525,0.42500000000000004,0.1,2.2,10,match,36.05,323,342,361,379,398,9,9,9,9,9,,,,,4,0,4,0,0,11,11,25,,,,,num_4,0.8310386000084691,num_4,0.15,1.0,0.09999999999999999,0.8,3.60429,28.83434,return,2.1034903000108898,,,,,,,17,23,male,left_right_width,2023_Oct_17_1712,exp1,2021.2.3,59.89282775977537,
,,,,,,,,,,,,,,,,4,9.425,9.808333333333334,10.191666666666666,10.575,0,0.3833333333333333,0.1333333333333333,0.25,1.4,10,match,36.05,340,354,367,381,0,9,9,9,9,0,,,,,4,0,4,0,0,12,12,5,,,,,num_3,1.1928580999956466,num_3,0.45,0.7,0.25000000000000006,0.6,9.01073,21.62576,return,2.8393404000089504,,,,,,,17,23,male,left_right_width,2023_Oct_17_1712,exp1,2021.2.3,59.89282775977537,
,,,,,,,,,,,,,,,,3,9.5,10,10.5,0,0,0.5,0.25,0.25,1.25,10,initial,36.05,342,361,379,0,0,9,9,9,0,0,,,,,4,0,4,0,0,13,13,2,,,,,num_2,0.8866041000001132,num_2,0.35,1.6,0.3,0.9,10.81288,32.43864,return,2.689568300032988,,,,,,,17,23,male,left_right_width,2023_Oct_17_1712,exp1,2021.2.3,59.89282775977537,
,,,,,,,,,,,,,,,,3,9,10,11,0,0,1,0.9,0.1,2.1,10,match,36.05,324,361,397,0,0,9,9,9,0,0,,,,,4,0,4,0,0,14,14,37,,,,,num_2,1.0635646999580786,num_2,0.25,1.6,0.15000000000000002,1.0,5.40644,36.04293,return,1.9965930000180379,,,,,,,17,23,male,left_right_width,2023_Oct_17_1712,exp1,2021.2.3,59.89282775977537,
,,,,,,,,,,,,,,,,4,8.95,9.65,10.35,11.05,0,0.7,0.6,0.1,2.1999999999999997,10,initial,36.05,323,348,373,398,0,9,9,9,9,0,,,,,4,0,4,0,0,15,15,24,,,,,num_3,1.1766479999641888,num_3,0.1,1.3,0.1,1.0,3.60429,36.04293,return,3.208325900021009,,,,,,,17,23,male,left_right_width,2023_Oct_17_1712,exp1,2021.2.3,59.89282775977537,
,,,,,,,,,,,,,,,,3,8.6,10,11.4,0,0,1.4,1.2999999999999998,0.1,2.9,10,match,36.05,310,361,411,0,0,9,9,9,0,0,,,,,4,0,4,0,0,16,16,43,,,,,num_3,1.0395292000030167,num_3,0.2,1.1,0.10000000000000002,1.05,3.60429,37.84507,return,1.2351338000153191,,,,,,,17,23,male,left_right_width,2023_Oct_17_1712,exp1,2021.2.3,59.89282775977537,
,,,,,,,,,,,,,,,,3,8.2,10,11.8,0,0,1.8000000000000003,1.7000000000000002,0.1,3.7,10,match,36.05,296,361,425,0,0,9,9,9,0,0,,,,,4,0,4,0,0,17,17,49,,,,,num_3,0.8158906999742612,num_3,0.2,1.1,0.10000000000000002,1.15,3.60429,41.44937,return,1.869143999996595,,,,,,,17,23,male,left_right_width,2023_Oct_17_1712,exp1,2021.2.3,59.89282775977537,
,,,,,,,,,,,,,,,,4,9.25,9.75,10.25,10.75,0,0.5,0.25,0.25,1.75,10,initial,36.05,333,351,370,388,0,9,9,9,9,0,,,,,4,0,4,0,0,18,18,20,,,,,num_3,0.6884315999923274,num_3,0.35,1.3,0.39999999999999997,0.9,14.41717,32.43864,return,3.3480070999939926,,,,,,,17,23,male,left_right_width,2023_Oct_17_1712,exp1,2021.2.3,59.89282775977537,
,,,,,,,,,,,,,,,,5,8.65,9.325,10,10.675,11.35,0.6749999999999999,0.575,0.1,2.8,10,match,36.05,312,336,361,385,409,9,9,9,9,9,,,,,4,0,4,0,0,19,19,31,,,,,num_4,0.823490499984473,num_4,0.45,1.0,0.15000000000000008,0.7,5.40644,25.23005,return,2.886141300026793,,,,,,,17,23,male,left_right_width,2023_Oct_17_1712,exp1,2021.2.3,59.89282775977537,
,,,,,,,,,,,,,,,,4,9.3,9.766666666666667,10.233333333333333,10.7,0,0.4666666666666667,0.06666666666666665,0.4,1.8,10,match,36.05,335,352,369,386,0,9,9,9,9,0,,,,,4,0,4,0,0,20,20,11,,,,,num_4,0.8248158000060357,num_4,0.4,0.7,0.4,0.6,14.41717,21.62576,return,4.534602000028826,,,,,,,17,23,male,left_right_width,2023_Oct_17_1712,exp1,2021.2.3,59.89282775977537,
,,,,,,,,,,,,,,,,5,8.65,9.325,10,10.675,11.35,0.675,0.42500000000000004,0.25,2.95,10,match,36.05,312,336,361,385,409,9,9,9,9,9,,,,,4,0,4,0,0,21,21,33,,,,,num_5,0.8747940000030212,num_5,0.4,1.2,0.25000000000000006,0.65,9.01073,23.4279,return,3.302411000011489,,,,,,,17,23,male,left_right_width,2023_Oct_17_1712,exp1,2021.2.3,59.89282775977537,
,,,,,,,,,,,,,,,,5,9.175,9.5875,10,10.4125,10.825,0.4125,0.16249999999999998,0.25,1.9,10,match,36.05,331,346,361,375,390,9,9,9,9,9,,,,,4,0,4,0,0,22,22,23,,,,,num_4,1.019402799953241,num_4,0.2,1.1,0.3,0.5,10.81288,18.02146,return,3.6011069000232965,,,,,,,17,23,male,left_right_width,2023_Oct_17_1712,exp1,2021.2.3,59.89282775977537,
,,,,,,,,,,,,,,,,4,9.25,9.75,10.25,10.75,0,0.5,0.09999999999999998,0.4,1.9,10,initial,36.05,333,351,370,388,0,9,9,9,9,0,,,,,4,0,4,0,0,23,23,22,,,,,num_3,1.1401971000013873,num_3,0.3,0.9,0.35,0.7,12.61502,25.23005,return,2.9648543000221252,,,,,,,17,23,male,left_right_width,2023_Oct_17_1712,exp1,2021.2.3,59.89282775977537,
,,,,,,,,,,,,,,,,5,8.6,9.3,10,10.7,11.4,0.7,0.6,0.1,2.9,10,initial,36.05,310,335,361,386,411,9,9,9,9,9,,,,,4,0,4,0,0,24,24,42,,,,,num_4,0.8055701000266708,num_4,0.25,1.0,0.10000000000000002,0.7,3.60429,25.23005,return,1.5572572000091895,,,,,,,17,23,male,left_right_width,2023_Oct_17_1712,exp1,2021.2.3,59.89282775977537,
,,,,,,,,,,,,,,,,3,9.1,10,10.9,0,0,0.9,0.5,0.4,2.2,10,initial,36.05,328,361,393,0,0,9,9,9,0,0,,,,,4,0,4,0,0,25,25,16,,,,,num_3,0.8178985000122339,num_3,0.2,1.3,0.39999999999999997,1.25,14.41717,45.05366,return,4.192543400044087,,,,,,,17,23,male,left_right_width,2023_Oct_17_1712,exp1,2021.2.3,59.89282775977537,
,,,,,,,,,,,,,,,,3,8.6,10,11.4,0,0,1.4,1.15,0.25,3.05,10,match,36.05,310,361,411,0,0,9,9,9,0,0,,,,,4,0,4,0,0,26,26,45,,,,,num_3,1.1454211000236683,num_3,0.15,1.3,0.3,1.25,10.81288,45.05366,return,2.3146165999933146,,,,,,,17,23,male,left_right_width,2023_Oct_17_1712,exp1,2021.2.3,59.89282775977537,
,,,,,,,,,,,,,,,,5,8.2,9.1,10,10.9,11.8,0.9,0.65,0.25,3.85,10,initial,36.05,296,328,361,393,425,9,9,9,9,9,,,,,4,0,4,0,0,27,27,50,,,,,num_4,0.7526540999533609,num_4,0.35,0.4,0.2,1.0,7.20859,36.04293,return,3.7613795999786817,,,,,,,17,23,male,left_right_width,2023_Oct_17_1712,exp1,2021.2.3,59.89282775977537,
,,,,,,,,,,,,,,,,3,8.2,10,11.8,0,0,1.7999999999999998,1.4,0.4,4,10,match,36.05,296,361,425,0,0,9,9,9,0,0,,,,,4,0,4,0,0,28,28,53,,,,,num_3,0.8333518999861553,num_3,0.3,0.5,0.3,1.05,10.81288,37.84507,return,2.4944246999803,,,,,,,17,23,male,left_right_width,2023_Oct_17_1712,exp1,2021.2.3,59.89282775977537,
,,,,,,,,,,,,,,,,3,9,10,11,0,0,0.9999999999999999,0.5999999999999999,0.4,2.4,10,match,36.05,324,361,397,0,0,9,9,9,0,0,,,,,4,0,4,0,0,29,29,41,,,,,num_3,0.9901512000360526,num_3,0.35,0.6,0.35,1.1,12.61502,39.64722,return,2.1616681999876164,,,,,,,17,23,male,left_right_width,2023_Oct_17_1712,exp1,2021.2.3,59.89282775977537,
,,,,,,,,,,,,,,,,4,9.1,9.7,10.3,10.9,0,0.6,0.5,0.1,1.9,10,match,36.05,328,350,371,393,0,9,9,9,9,0,,,,,4,0,4,0,0,30,30,13,,,,,num_3,0.8699403000064194,num_3,0.15,1.3,0.09999999999999999,1.2,3.60429,43.25151,return,2.405541100015398,,,,,,,17,23,male,left_right_width,2023_Oct_17_1712,exp1,2021.2.3,59.89282775977537,
,,,,,,,,,,,,,,,,3,9.3,10,10.7,0,0,0.7,0.44999999999999996,0.25,1.65,10,initial,36.05,335,361,386,0,0,9,9,9,0,0,,,,,4,0,4,0,0,31,31,8,,,,,num_3,0.8587984000332654,num_3,0.35,1,0.25,0.85,9.01073,30.63649,return,2.564830100047402,,,,,,,17,23,male,left_right_width,2023_Oct_17_1712,exp1,2021.2.3,59.89282775977537,
,,,,,,,,,,,,,,,,5,9,9.5,10,10.5,11,0.5,0.25,0.25,2.25,10,initial,36.05,324,342,361,379,397,9,9,9,9,9,,,,,4,0,4,0,0,32,32,38,,,,,num_4,0.769539300003089,num_4,0.35,0.8,0.35,0.8,12.61502,28.83434,return,1.2631548999925144,,,,,,,17,23,male,left_right_width,2023_Oct_17_1712,exp1,2021.2.3,59.89282775977537,
,,,,,,,,,,,,,,,,5,8.2,9.1,10,10.9,11.8,0.9,0.5,0.4,4,10,initial,36.05,296,328,361,393,425,9,9,9,9,9,,,,,4,0,4,0,0,33,33,52,,,,,num_5,0.8751441999920644,num_5,0.1,0.6,0.3,0.75,10.81288,27.0322,return,2.1239660999854095,,,,,,,17,23,male,left_right_width,2023_Oct_17_1712,exp1,2021.2.3,59.89282775977537,
,,,,,,,,,,,,,,,,4,9.3,9.766666666666667,10.233333333333333,10.7,0,0.4666666666666667,0.21666666666666665,0.25,1.65,10,match,36.05,335,352,369,386,0,9,9,9,9,0,,,,,4,0,4,0,0,34,34,9,,,,,num_4,0.9231168999685906,num_4,0.35,0.7,0.35,0.7,12.61502,25.23005,return,0.9253030000254512,,,,,,,17,23,male,left_right_width,2023_Oct_17_1712,exp1,2021.2.3,59.89282775977537,
,,,,,,,,,,,,,,,,4,8.95,9.65,10.35,11.05,0,0.7,0.44999999999999996,0.25,2.3499999999999996,10,initial,36.05,323,348,373,398,0,9,9,9,9,0,,,,,4,0,4,0,0,35,35,26,,,,,num_4,1.1708292999537662,num_4,0.35,0.5,0.25,0.9,9.01073,32.43864,return,2.4828823000425473,,,,,,,17,23,male,left_right_width,2023_Oct_17_1712,exp1,2021.2.3,59.89282775977537,
,,,,,,,,,,,,,,,,5,8.2,9.1,10,10.9,11.8,0.9,0.8,0.1,3.7,10,initial,36.05,296,328,361,393,425,9,9,9,9,9,,,,,4,0,4,0,0,36,36,48,,,,,num_4,0.8659093999885954,num_4,0.3,1.2,1.3877787807814457e-17,0.9,0.0,32.43864,return,3.338472399977036,,,,,,,17,23,male,left_right_width,2023_Oct_17_1712,exp1,2021.2.3,59.89282775977537,
,,,,,,,,,,,,,,,,3,9.3,10,10.7,0,0,0.7,0.29999999999999993,0.4,1.8,10,initial,36.05,335,361,386,0,0,9,9,9,0,0,,,,,4,0,4,0,0,37,37,10,,,,,num_3,1.3875926000182517,num_3,0.2,0.9,0.39999999999999997,0.75,14.41717,27.0322,return,2.914702699985355,,,,,,,17,23,male,left_right_width,2023_Oct_17_1712,exp1,2021.2.3,59.89282775977537,
,,,,,,,,,,,,,,,,3,9.1,10,10.9,0,0,0.9,0.65,0.25,2.05,10,initial,36.05,328,361,393,0,0,9,9,9,0,0,,,,,4,0,4,0,0,38,38,14,,,,,num_3,1.086320500005968,num_3,0.2,0.9,0.35,0.75,12.61502,27.0322,return,1.8119329999899492,,,,,,,17,23,male,left_right_width,2023_Oct_17_1712,exp1,2021.2.3,59.89282775977537,
,,,,,,,,,,,,,,,,5,8.6,9.3,10,10.7,11.4,0.7,0.29999999999999993,0.4,3.1999999999999997,10,initial,36.05,310,335,361,386,411,9,9,9,9,9,,,,,4,0,4,0,0,39,39,46,,,,,num_4,0.8501965999603271,num_4,0.2,0.6,0.44999999999999996,1.0,16.21932,36.04293,return,3.0390626000007614,,,,,,,17,23,male,left_right_width,2023_Oct_17_1712,exp1,2021.2.3,59.89282775977537,
,,,,,,,,,,,,,,,,4,9.5,9.833333333333334,10.166666666666666,10.5,0,0.33333333333333337,0.23333333333333336,0.1,1.1,10,match,36.05,342,354,367,379,0,9,9,9,9,0,,,,,4,0,4,0,0,40,40,1,,,,,num_4,0.7861110999947414,num_4,0.3,1.0,0.10000000000000002,0.7,3.60429,25.23005,return,2.6104066999978386,,,,,,,17,23,male,left_right_width,2023_Oct_17_1712,exp1,2021.2.3,59.89282775977537,
,,,,,,,,,,,,,,,,5,9,9.5,10,10.5,11,0.5,0.09999999999999998,0.4,2.4,10,initial,36.05,324,342,361,379,397,9,9,9,9,9,,,,,4,0,4,0,0,41,41,40,,,,,num_4,0.7254658999736421,num_4,0.45,1.2,0.35000000000000003,0.6,12.61502,21.62576,return,4.32800010003848,,,,,,,17,23,male,left_right_width,2023_Oct_17_1712,exp1,2021.2.3,59.89282775977537,
,,,,,,,,,,,,,,,,4,8.65,9.55,10.45,11.35,0,0.9,0.65,0.25,2.95,10,initial,36.05,312,344,377,409,0,9,9,9,9,0,,,,,4,0,4,0,0,42,42,32,,,,,num_4,0.8748916999902576,num_4,0.25,0.4,0.15000000000000002,0.7,5.40644,25.23005,return,2.428149300045334,,,,,,,17,23,male,left_right_width,2023_Oct_17_1712,exp1,2021.2.3,59.89282775977537,
,,,,,,,,,,,,,,,,3,9.5,10,10.5,0,0,0.5,0.09999999999999998,0.4,1.4000000000000001,10,initial,36.05,342,361,379,0,0,9,9,9,0,0,,,,,4,0,4,0,0,43,43,4,,,,,num_3,1.318366400024388,num_3,0.15,1.1,0.39999999999999997,0.9,14.41717,32.43864,return,2.6820169999846257,,,,,,,17,23,male,left_right_width,2023_Oct_17_1712,exp1,2021.2.3,59.89282775977537,
,,,,,,,,,,,,,,,,3,9.3,10,10.7,0,0,0.7,0.6,0.1,1.5,10,initial,36.05,335,361,386,0,0,9,9,9,0,0,,,,,4,0,4,0,0,44,44,6,,,,,num_2,0.886614200018812,num_2,0.1,1.6,0.1,0.9,3.60429,32.43864,return,1.7941597999888472,,,,,,,17,23,male,left_right_width,2023_Oct_17_1712,exp1,2021.2.3,59.89282775977537,
,,,,,,,,,,,,,,,,5,9.25,9.625,10,10.375,10.75,0.375,0.275,0.1,1.6,10,match,36.05,333,347,361,374,388,9,9,9,9,9,,,,,4,0,4,0,0,45,45,19,,,,,num_4,1.1348617000039667,num_4,0.45,1.0,0.15000000000000008,0.6,5.40644,21.62576,return,2.3717647999874316,,,,,,,17,23,male,left_right_width,2023_Oct_17_1712,exp1,2021.2.3,59.89282775977537,
,,,,,,,,,,,,,,,,4,9.1,9.7,10.3,10.9,0,0.6000000000000001,0.20000000000000004,0.4,2.2,10,match,36.05,328,350,371,393,0,9,9,9,9,0,,,,,4,0,4,0,0,46,46,17,,,,,num_2,0.8873508000397123,num_2,0.35,1.6,0.35,1.0,12.61502,36.04293,return,2.3223780000116676,,,,,,,17,23,male,left_right_width,2023_Oct_17_1712,exp1,2021.2.3,59.89282775977537,
,,,,,,,,,,,,,,,,3,8.2,10,11.8,0,0,1.8,1.55,0.25,3.85,10,match,36.05,296,361,425,0,0,9,9,9,0,0,,,,,4,0,4,0,0,47,47,51,,,,,num_3,0.853929299977608,num_3,0.3,0.5,0.10000000000000002,1.4,3.60429,50.4601,return,4.7701171999797225,,,,,,,17,23,male,left_right_width,2023_Oct_17_1712,exp1,2021.2.3,59.89282775977537,
,,,,,,,,,,,,,,,,5,9.25,9.625,10,10.375,10.75,0.375,0.125,0.25,1.75,10,match,36.05,333,347,361,374,388,9,9,9,9,9,,,,,4,0,4,0,0,48,48,21,,,,,num_4,0.8716895999968983,num_4,0.15,1.1,0.25,0.4,9.01073,14.41717,return,3.8108037999481894,,,,,,,17,23,male,left_right_width,2023_Oct_17_1712,exp1,2021.2.3,59.89282775977537,
,,,,,,,,,,,,,,,,4,8.95,9.65,10.35,11.05,0,0.7,0.29999999999999993,0.4,2.5,10,initial,36.05,323,348,373,398,0,9,9,9,9,0,,,,,4,0,4,0,0,49,49,28,,,,,num_4,1.523387899971567,num_4,0.45,0.8,0.45,0.8,16.21932,28.83434,return,1.0018374000210315,,,,,,,17,23,male,left_right_width,2023_Oct_17_1712,exp1,2021.2.3,59.89282775977537,
,,,,,,,,,,,,,,,,3,9,10,11,0,0,1,0.75,0.25,2.25,10,match,36.05,324,361,397,0,0,9,9,9,0,0,,,,,4,0,4,0,0,50,50,39,,,,,num_3,0.9057894999859855,num_3,0.2,0.3,0.15000000000000002,0.7,5.40644,25.23005,return,1.8277960999985225,,,,,,,17,23,male,left_right_width,2023_Oct_17_1712,exp1,2021.2.3,59.89282775977537,
,,,,,,,,,,,,,,,,4,9.5,9.833333333333334,10.166666666666666,10.5,0,0.3333333333333333,0.08333333333333333,0.25,1.25,10,match,36.05,342,354,367,379,0,9,9,9,9,0,,,,,4,0,4,0,0,51,51,3,,,,,num_3,1.022592299967073,num_3,0.2,0.8,0.35,0.55,12.61502,19.82361,return,3.267526799987536,,,,,,,17,23,male,left_right_width,2023_Oct_17_1712,exp1,2021.2.3,59.89282775977537,
,,,,,,,,,,,,,,,,4,9.25,9.75,10.25,10.75,0,0.5,0.4,0.1,1.6,10,initial,36.05,333,351,370,388,0,9,9,9,9,0,,,,,4,0,4,0,0,52,52,18,,,,,num_3,0.8754164000274613,num_3,0.35,0.9,0.15000000000000002,0.65,5.40644,23.4279,return,2.117881699989084,,,,,,,17,23,male,left_right_width,2023_Oct_17_1712,exp1,2021.2.3,59.89282775977537,
,,,,,,,,,,,,,,,,5,8.65,9.325,10,10.675,11.35,0.675,0.275,0.4,3.1,10,match,36.05,312,336,361,385,409,9,9,9,9,9,,,,,4,0,4,0,0,53,53,35,,,,,num_4,0.8102596999960952,num_4,0.45,0.8,0.45,0.8,16.21932,28.83434,return,3.128398099972401,,,,,,,17,23,male,left_right_width,2023_Oct_17_1712,exp1,2021.2.3,59.89282775977537,
,,,,,,,,,,,,,,,,,,,,,,,,,,,,,,,,,,,,,,,,,,,4,0,4,0,,,,,,,,,,,,,,,,,,,,,,2658.963301800017,None,2658.963301800017,None,17,23,male,left_right_width,2023_Oct_17_1712,exp1,2021.2.3,59.89282775977537,
,,,,,,,,,,,,,,,,5,8.2,9.1,10,10.9,11.8,0.9,0.5,0.4,4,10,initial,36.05,296,328,361,393,425,9,9,9,9,9,,,,,5,0,5,0,0,0,0,52,,,,,num_4,1.7608929999987595,num_4,0.1,1.2,0.35,0.9,12.61502,32.43864,return,5.898323500005063,,,,,,,17,23,male,left_right_width,2023_Oct_17_1712,exp1,2021.2.3,59.89282775977537,
,,,,,,,,,,,,,,,,5,8.65,9.325,10,10.675,11.35,0.675,0.42500000000000004,0.25,2.95,10,match,36.05,312,336,361,385,409,9,9,9,9,9,,,,,5,0,5,0,0,1,1,33,,,,,num_4,0.9798658999498002,num_4,0.25,0.4,0.3,1.1,10.81288,39.64722,return,3.467952700040769,,,,,,,17,23,male,left_right_width,2023_Oct_17_1712,exp1,2021.2.3,59.89282775977537,
,,,,,,,,,,,,,,,,4,9.25,9.75,10.25,10.75,0,0.5,0.09999999999999998,0.4,1.9,10,initial,36.05,333,351,370,388,0,9,9,9,9,0,,,,,5,0,5,0,0,2,2,22,,,,,num_3,1.1866617999621667,num_3,0.15,0.5,0.3,0.65,10.81288,23.4279,return,2.290695699979551,,,,,,,17,23,male,left_right_width,2023_Oct_17_1712,exp1,2021.2.3,59.89282775977537,
,,,,,,,,,,,,,,,,3,9.5,10,10.5,0,0,0.5,0.4,0.1,1.1,10,initial,36.05,342,361,379,0,0,9,9,9,0,0,,,,,5,0,5,0,0,3,3,0,,,,,num_2,0.8448599000112154,num_2,0.4,1.6,0.10000000000000007,1.0,3.60429,36.04293,return,5.306274900038261,,,,,,,17,23,male,left_right_width,2023_Oct_17_1712,exp1,2021.2.3,59.89282775977537,
,,,,,,,,,,,,,,,,3,9,10,11,0,0,1,0.75,0.25,2.25,10,match,36.05,324,361,397,0,0,9,9,9,0,0,,,,,5,0,5,0,0,4,4,39,,,,,num_2,1.174225899972953,num_2,0.35,1.6,0.2,0.9,7.20859,32.43864,return,2.7905308000044897,,,,,,,17,23,male,left_right_width,2023_Oct_17_1712,exp1,2021.2.3,59.89282775977537,
,,,,,,,,,,,,,,,,5,8.65,9.325,10,10.675,11.35,0.675,0.275,0.4,3.1,10,match,36.05,312,336,361,385,409,9,9,9,9,9,,,,,5,0,5,0,0,5,5,35,,,,,num_4,0.9626697999774478,num_4,0.2,1.0,0.35,0.8,12.61502,28.83434,return,2.6228809999884106,,,,,,,17,23,male,left_right_width,2023_Oct_17_1712,exp1,2021.2.3,59.89282775977537,
,,,,,,,,,,,,,,,,4,8.95,9.65,10.35,11.05,0,0.7,0.29999999999999993,0.4,2.5,10,initial,36.05,323,348,373,398,0,9,9,9,9,0,,,,,5,0,5,0,0,6,6,28,,,,,num_4,0.9332192000001669,num_4,0.3,0.4,0.25,0.6,9.01073,21.62576,return,2.9493818000191823,,,,,,,17,23,male,left_right_width,2023_Oct_17_1712,exp1,2021.2.3,59.89282775977537,
,,,,,,,,,,,,,,,,3,8.2,10,11.8,0,0,1.8000000000000003,1.7000000000000002,0.1,3.7,10,match,36.05,296,361,425,0,0,9,9,9,0,0,,,,,5,0,5,0,0,7,7,49,,,,,num_3,1.0660557000082918,num_3,0.3,0.9,0.05000000000000002,0.95,1.80215,34.24078,return,2.7668112999526784,,,,,,,17,23,male,left_right_width,2023_Oct_17_1712,exp1,2021.2.3,59.89282775977537,
,,,,,,,,,,,,,,,,3,8.6,10,11.4,0,0,1.4,1.15,0.25,3.05,10,match,36.05,310,361,411,0,0,9,9,9,0,0,,,,,5,0,5,0,0,8,8,45,,,,,num_3,0.9404123999993317,num_3,0.35,0.9,0.25,0.8,9.01073,28.83434,return,2.3197031000163406,,,,,,,17,23,male,left_right_width,2023_Oct_17_1712,exp1,2021.2.3,59.89282775977537,
,,,,,,,,,,,,,,,,4,9.1,9.7,10.3,10.9,0,0.5999999999999999,0.3499999999999999,0.25,2.05,10,match,36.05,328,350,371,393,0,9,9,9,9,0,,,,,5,0,5,0,0,9,9,15,,,,,num_3,1.0832494999631308,num_3,0.1,1.2,0.25,1.15,9.01073,41.44937,return,2.84698600001866,,,,,,,17,23,male,left_right_width,2023_Oct_17_1712,exp1,2021.2.3,59.89282775977537,
,,,,,,,,,,,,,,,,3,9,10,11,0,0,1,0.9,0.1,2.1,10,match,36.05,324,361,397,0,0,9,9,9,0,0,,,,,5,0,5,0,0,10,10,37,,,,,num_3,0.9487508999882266,num_3,0.4,0.8,0.10000000000000007,0.7,3.60429,25.23005,return,2.334590599988587,,,,,,,17,23,male,left_right_width,2023_Oct_17_1712,exp1,2021.2.3,59.89282775977537,
,,,,,,,,,,,,,,,,4,8.65,9.55,10.45,11.35,0,0.9,0.65,0.25,2.95,10,initial,36.05,312,344,377,409,0,9,9,9,9,0,,,,,5,0,5,0,0,11,11,32,,,,,num_3,0.9931805999949574,num_3,0.4,1.2,0.20000000000000007,1.05,7.20859,37.84507,return,2.2461934000020847,,,,,,,17,23,male,left_right_width,2023_Oct_17_1712,exp1,2021.2.3,59.89282775977537,
,,,,,,,,,,,,,,,,3,9,10,11,0,0,0.9999999999999999,0.5999999999999999,0.4,2.4,10,match,36.05,324,361,397,0,0,9,9,9,0,0,,,,,5,0,5,0,0,12,12,41,,,,,num_2,0.8067474000272341,num_2,0.2,1.6,0.35,1.3,12.61502,46.85581,return,3.0909481999697164,,,,,,,17,23,male,left_right_width,2023_Oct_17_1712,exp1,2021.2.3,59.89282775977537,
,,,,,,,,,,,,,,,,5,8.6,9.3,10,10.7,11.4,0.7,0.44999999999999996,0.25,3.05,10,initial,36.05,310,335,361,386,411,9,9,9,9,9,,,,,5,0,5,0,0,13,13,44,,,,,num_4,0.8643103999784216,num_4,0.45,1.2,0.35000000000000003,0.9,12.61502,32.43864,return,2.5088532000081614,,,,,,,17,23,male,left_right_width,2023_Oct_17_1712,exp1,2021.2.3,59.89282775977537,
,,,,,,,,,,,,,,,,3,9.3,10,10.7,0,0,0.7,0.44999999999999996,0.25,1.65,10,initial,36.05,335,361,386,0,0,9,9,9,0,0,,,,,5,0,5,0,0,14,14,8,,,,,num_2,0.8367970999679528,num_2,0.45,1.6,0.5,1.1,18.02146,39.64722,return,1.2803635000018403,,,,,,,17,23,male,left_right_width,2023_Oct_17_1712,exp1,2021.2.3,59.89282775977537,
,,,,,,,,,,,,,,,,4,9.3,9.766666666666667,10.233333333333333,10.7,0,0.4666666666666667,0.3666666666666667,0.1,1.5,10,match,36.05,335,352,369,386,0,9,9,9,9,0,,,,,5,0,5,0,0,15,15,7,,,,,num_3,0.7990676999907009,num_3,0.1,1.2,0.25,0.9,9.01073,32.43864,return,2.881488699989859,,,,,,,17,23,male,left_right_width,2023_Oct_17_1712,exp1,2021.2.3,59.89282775977537,
,,,,,,,,,,,,,,,,4,9.3,9.766666666666667,10.233333333333333,10.7,0,0.4666666666666667,0.21666666666666665,0.25,1.65,10,match,36.05,335,352,369,386,0,9,9,9,9,0,,,,,5,0,5,0,0,16,16,9,,,,,num_3,0.9153514999779873,num_3,0.3,1.2,0.35,0.85,12.61502,30.63649,return,5.496991799969692,,,,,,,17,23,male,left_right_width,2023_Oct_17_1712,exp1,2021.2.3,59.89282775977537,
,,,,,,,,,,,,,,,,5,8.95,9.475,10,10.525,11.05,0.525,0.275,0.25,2.35,10,match,36.05,323,342,361,379,398,9,9,9,9,9,,,,,5,0,5,0,0,17,17,27,,,,,num_4,0.8337739999988116,num_4,0.4,1.1,0.4,0.9,14.41717,32.43864,return,3.59513109998079,,,,,,,17,23,male,left_right_width,2023_Oct_17_1712,exp1,2021.2.3,59.89282775977537,
,,,,,,,,,,,,,,,,4,9.25,9.75,10.25,10.75,0,0.5,0.25,0.25,1.75,10,initial,36.05,333,351,370,388,0,9,9,9,9,0,,,,,5,0,5,0,0,18,18,20,,,,,num_3,0.868293099978473,num_3,0.3,0.4,0.3,0.75,10.81288,27.0322,return,2.2059116999735124,,,,,,,17,23,male,left_right_width,2023_Oct_17_1712,exp1,2021.2.3,59.89282775977537,
,,,,,,,,,,,,,,,,3,9.3,10,10.7,0,0,0.7,0.29999999999999993,0.4,1.8,10,initial,36.05,335,361,386,0,0,9,9,9,0,0,,,,,5,0,5,0,0,19,19,10,,,,,num_3,1.063873200037051,num_3,0.25,0.9,0.35,0.8,12.61502,28.83434,return,2.9892959999851882,,,,,,,17,23,male,left_right_width,2023_Oct_17_1712,exp1,2021.2.3,59.89282775977537,
,,,,,,,,,,,,,,,,4,8.95,9.65,10.35,11.05,0,0.7,0.6,0.1,2.1999999999999997,10,initial,36.05,323,348,373,398,0,9,9,9,9,0,,,,,5,0,5,0,0,20,20,24,,,,,num_3,0.9977186999749392,num_3,0.25,0.7,0.15000000000000002,0.8,5.40644,28.83434,return,2.3331727999611758,,,,,,,17,23,male,left_right_width,2023_Oct_17_1712,exp1,2021.2.3,59.89282775977537,
,,,,,,,,,,,,,,,,5,9,9.5,10,10.5,11,0.5,0.09999999999999998,0.4,2.4,10,initial,36.05,324,342,361,379,397,9,9,9,9,9,,,,,5,0,5,0,0,21,21,40,,,,,num_4,0.753990099998191,num_4,0.15,0.7,0.39999999999999997,0.5,14.41717,18.02146,return,2.689856899960432,,,,,,,17,23,male,left_right_width,2023_Oct_17_1712,exp1,2021.2.3,59.89282775977537,
