amount_p,posx1_p,posx2_p,posx3_p,posx4_p,posx5_p,center_to_center_p,edge_to_edge_p,w_p,stim_lengt_p,eccentricity_p,line1_p,line2_p,line3_p,line4_p,line5_p,amount,posx1,posx2,posx3,posx4,posx5,center_to_center,edge_to_edge,w,stim_length,eccentricity,trial_type,deg_to_pix_index,posx1_in_pix,posx2_in_pix,posx3_in_pix,posx4_in_pix,posx5_in_pix,line1,line2,line3,line4,line5,trials.thisRepN,trials.thisTrialN,trials.thisN,trials.thisIndex,blocks.thisRepN,blocks.thisTrialN,blocks.thisN,blocks.thisIndex,loop.thisRepN,loop.thisTrialN,loop.thisN,loop.thisIndex,key_resp_3.keys,key_resp_3.rt,key_resp_3.started,key_resp_3.stopped,key_resp.keys,key_resp.rt,response,starting_width_deg,starting_space_deg,response_width_degree,response_spacing_degree,response_width_pixel,response_spacing_pixel,next_5.keys,next_5.rt,key_resp_4.keys,key_resp_4.rt,text_3.started,text_3.stopped,text_4.started,text_4.stopped,participant,age,gender,resp_group,date,expName,psychopyVersion,frameRate,
,,,,,,,,,,,,,,,,,,,,,,,,,,,,,,,,,,,,,,,,,,,,,,,,,,,c,91.4262335000094,844.6894600000232,None,,,,,,,,,,,,,,,,,,19,24,female,up_down_width,2023_Oct_18_1454,exp1,2021.2.3,59.98703079597238,
3,8.2,10,11.8,0,0,1.7999999999999998,1.4,0.4,4,10,9,9,9,0,0,,,,,,,,,,,,,,,,,,,,,,,,0,0,0,2,,,,,,,,,,,,,num_2,5.754967399989255,num_2,0.25,1.6,0.25,1.6,9.01073,57.66869,return,6.337040999962483,,,,,,,19,24,female,up_down_width,2023_Oct_18_1454,exp1,2021.2.3,59.98703079597238,
5,9,9.5,10,10.5,11,0.5,0.09999999999999998,0.4,2.4,10,9,9,9,9,9,,,,,,,,,,,,,,,,,,,,,,,,0,1,1,8,,,,,,,,,,,,,num_4,4.700411500001792,num_4,0.15,1.1,0.15,1.1,5.40644,39.64722,return,0.4296807000064291,,,,,,,19,24,female,up_down_width,2023_Oct_18_1454,exp1,2021.2.3,59.98703079597238,
3,9,10,11,0,0,1,0.9,0.1,2.1,10,9,9,9,0,0,,,,,,,,,,,,,,,,,,,,,,,,0,2,2,1,,,,,,,,,,,,,num_3,1.9272487999987788,num_3,0.2,0.3,0.2,0.7,7.20859,25.23005,return,12.968571799981873,,,,,,,19,24,female,up_down_width,2023_Oct_18_1454,exp1,2021.2.3,59.98703079597238,
4,9.5,9.833333333333334,10.166666666666666,10.5,0,0.33333333333333337,0.23333333333333336,0.1,1.1,10,9,9,9,9,0,,,,,,,,,,,,,,,,,,,,,,,,0,3,3,3,,,,,,,,,,,,,num_4,3.1190655000391416,num_4,0.4,1.2,0.15000000000000008,0.6,5.40644,21.62576,return,14.335106800019275,,,,,,,19,24,female,up_down_width,2023_Oct_18_1454,exp1,2021.2.3,59.98703079597238,
4,8.65,9.55,10.45,11.35,0,0.9,0.5,0.4,3.1,10,9,9,9,9,0,,,,,,,,,,,,,,,,,,,,,,,,0,4,4,5,,,,,,,,,,,,,num_5,4.188427200017031,num_5,0.3,1.2,0.35,0.75,12.61502,27.0322,return,6.786220899957698,,,,,,,19,24,female,up_down_width,2023_Oct_18_1454,exp1,2021.2.3,59.98703079597238,
4,9.25,9.75,10.25,10.75,0,0.5,0.25,0.25,1.75,10,9,9,9,9,0,,,,,,,,,,,,,,,,,,,,,,,,0,5,5,4,,,,,,,,,,,,,num_5,3.275238400034141,num_5,0.1,0.9,0.35,0.6,12.61502,21.62576,return,5.877796099986881,,,,,,,19,24,female,up_down_width,2023_Oct_18_1454,exp1,2021.2.3,59.98703079597238,
5,8.6,9.3,10,10.7,11.4,0.7,0.29999999999999993,0.4,3.1999999999999997,10,9,9,9,9,9,,,,,,,,,,,,,,,,,,,,,,,,0,6,6,7,,,,,,,,,,,,,num_6,2.916244000021834,num_6,0.45,1.2,0.35000000000000003,0.6,12.61502,21.62576,return,7.167551100021228,,,,,,,19,24,female,up_down_width,2023_Oct_18_1454,exp1,2021.2.3,59.98703079597238,
3,9.5,10,10.5,0,0,0.5,0.4,0.1,1.1,10,9,9,9,0,0,,,,,,,,,,,,,,,,,,,,,,,,0,7,7,0,,,,,,,,,,,,,num_3,2.649143299960997,num_3,0.25,1.2,0.25,0.8,9.01073,28.83434,return,5.02177519997349,,,,,,,19,24,female,up_down_width,2023_Oct_18_1454,exp1,2021.2.3,59.98703079597238,
5,9.25,9.625,10,10.375,10.75,0.375,0.125,0.25,1.75,10,9,9,9,9,9,,,,,,,,,,,,,,,,,,,,,,,,0,8,8,6,,,,,,,,,,,,,num_4,1.9418174999882467,num_4,0.4,1.1,0.25000000000000006,0.6,9.01073,21.62576,return,5.41376520000631,,,,,,,19,24,female,up_down_width,2023_Oct_18_1454,exp1,2021.2.3,59.98703079597238,
,,,,,,,,,,,,,,,,,,,,,,,,,,,,,,,,,,,,,,,,,,,,,,,,,,,,,,,,,,,,,,,,,,c,35.88426329998765,,,,,19,24,female,up_down_width,2023_Oct_18_1454,exp1,2021.2.3,59.98703079597238,
,,,,,,,,,,,,,,,,4,9.25,9.75,10.25,10.75,0,0.5,0.4,0.1,1.6,10,initial,36.05,333,351,370,388,0,9,9,9,9,0,,,,,0,0,0,0,0,0,0,18,,,,,num_3,1.2472206000238657,num_3,0.45,0.6,0.20000000000000007,0.55,7.20859,19.82361,return,2.795547900022939,,,,,,,19,24,female,up_down_width,2023_Oct_18_1454,exp1,2021.2.3,59.98703079597238,
,,,,,,,,,,,,,,,,5,8.65,9.325,10,10.675,11.35,0.675,0.275,0.4,3.1,10,match,36.05,312,336,361,385,409,9,9,9,9,9,,,,,0,0,0,0,0,1,1,35,,,,,num_4,1.1491266999510117,num_4,0.4,0.5,0.15000000000000008,0.5,5.40644,18.02146,return,2.829412399965804,,,,,,,19,24,female,up_down_width,2023_Oct_18_1454,exp1,2021.2.3,59.98703079597238,
,,,,,,,,,,,,,,,,3,8.6,10,11.4,0,0,1.4,1.2999999999999998,0.1,2.9,10,match,36.05,310,361,411,0,0,9,9,9,0,0,,,,,0,0,0,0,0,2,2,43,,,,,num_3,1.1353655999992043,num_3,0.4,0.5,0.10000000000000007,1.05,3.60429,37.84507,return,6.111557400028687,,,,,,,19,24,female,up_down_width,2023_Oct_18_1454,exp1,2021.2.3,59.98703079597238,
,,,,,,,,,,,,,,,,5,8.2,9.1,10,10.9,11.8,0.9,0.5,0.4,4,10,initial,36.05,296,328,361,393,425,9,9,9,9,9,,,,,0,0,0,0,0,3,3,52,,,,,num_5,1.78505830001086,num_5,0.1,1.1,0.35,1.0,12.61502,36.04293,return,4.863341600052081,,,,,,,19,24,female,up_down_width,2023_Oct_18_1454,exp1,2021.2.3,59.98703079597238,
,,,,,,,,,,,,,,,,3,9.3,10,10.7,0,0,0.7,0.44999999999999996,0.25,1.65,10,initial,36.05,335,361,386,0,0,9,9,9,0,0,,,,,0,0,0,0,0,4,4,8,,,,,num_4,1.2583926999941468,num_4,0.2,1.1,0.2,0.8,7.20859,28.83434,return,2.262330000055954,,,,,,,19,24,female,up_down_width,2023_Oct_18_1454,exp1,2021.2.3,59.98703079597238,
,,,,,,,,,,,,,,,,4,9.3,9.766666666666667,10.233333333333333,10.7,0,0.4666666666666667,0.3666666666666667,0.1,1.5,10,match,36.05,335,352,369,386,0,9,9,9,9,0,,,,,0,0,0,0,0,5,5,7,,,,,num_4,1.1233649000059813,num_4,0.35,1.1,0.15000000000000002,0.6,5.40644,21.62576,return,5.093367699999362,,,,,,,19,24,female,up_down_width,2023_Oct_18_1454,exp1,2021.2.3,59.98703079597238,
,,,,,,,,,,,,,,,,4,9.3,9.766666666666667,10.233333333333333,10.7,0,0.4666666666666667,0.06666666666666665,0.4,1.8,10,match,36.05,335,352,369,386,0,9,9,9,9,0,,,,,0,0,0,0,0,6,6,11,,,,,num_4,1.137562500021886,num_4,0.35,0.5,0.35,0.6,12.61502,21.62576,return,4.836883399984799,,,,,,,19,24,female,up_down_width,2023_Oct_18_1454,exp1,2021.2.3,59.98703079597238,
,,,,,,,,,,,,,,,,5,8.2,9.1,10,10.9,11.8,0.9,0.65,0.25,3.85,10,initial,36.05,296,328,361,393,425,9,9,9,9,9,,,,,0,0,0,0,0,7,7,50,,,,,num_5,1.7363601999823004,num_5,0.45,1.3,0.30000000000000004,1.05,10.81288,37.84507,return,4.657482800015714,,,,,,,19,24,female,up_down_width,2023_Oct_18_1454,exp1,2021.2.3,59.98703079597238,
,,,,,,,,,,,,,,,,4,9.425,9.808333333333334,10.191666666666666,10.575,0,0.3833333333333333,0.1333333333333333,0.25,1.4,10,match,36.05,340,354,367,381,0,9,9,9,9,0,,,,,0,0,0,0,0,8,8,5,,,,,num_4,0.9311002000467852,num_4,0.1,0.4,0.2,0.4,7.20859,14.41717,return,4.125317699974403,,,,,,,19,24,female,up_down_width,2023_Oct_18_1454,exp1,2021.2.3,59.98703079597238,
,,,,,,,,,,,,,,,,4,8.65,9.55,10.45,11.35,0,0.9,0.8,0.1,2.8000000000000003,10,initial,36.05,312,344,377,409,0,9,9,9,9,0,,,,,0,0,0,0,0,9,9,30,,,,,num_4,1.7298375999671407,num_4,0.1,1.0,0.15000000000000002,0.5,5.40644,18.02146,return,3.9657663999823853,,,,,,,19,24,female,up_down_width,2023_Oct_18_1454,exp1,2021.2.3,59.98703079597238,
,,,,,,,,,,,,,,,,5,8.65,9.325,10,10.675,11.35,0.6749999999999999,0.575,0.1,2.8,10,match,36.05,312,336,361,385,409,9,9,9,9,9,,,,,0,0,0,0,0,10,10,31,,,,,num_5,1.6139947999618016,num_5,0.35,1.1,0.15000000000000002,1.0,5.40644,36.04293,return,4.957181999983732,,,,,,,19,24,female,up_down_width,2023_Oct_18_1454,exp1,2021.2.3,59.98703079597238,
,,,,,,,,,,,,,,,,3,9.1,10,10.9,0,0,0.9,0.8,0.1,1.9000000000000001,10,initial,36.05,328,361,393,0,0,9,9,9,0,0,,,,,0,0,0,0,0,11,11,12,,,,,num_3,1.074321299965959,num_3,0.4,0.7,0.15000000000000008,0.9,5.40644,32.43864,return,4.628628100035712,,,,,,,19,24,female,up_down_width,2023_Oct_18_1454,exp1,2021.2.3,59.98703079597238,
,,,,,,,,,,,,,,,,5,8.6,9.3,10,10.7,11.4,0.7,0.29999999999999993,0.4,3.1999999999999997,10,initial,36.05,310,335,361,386,411,9,9,9,9,9,,,,,0,0,0,0,0,12,12,46,,,,,num_7,1.8392332999501377,num_7,0.1,1.2,0.25,0.55,9.01073,19.82361,return,4.4844093999709,,,,,,,19,24,female,up_down_width,2023_Oct_18_1454,exp1,2021.2.3,59.98703079597238,
,,,,,,,,,,,,,,,,4,8.95,9.65,10.35,11.05,0,0.7,0.29999999999999993,0.4,2.5,10,initial,36.05,323,348,373,398,0,9,9,9,9,0,,,,,0,0,0,0,0,13,13,28,,,,,num_4,0.943182299961336,num_4,0.1,1.0,0.35,0.6,12.61502,21.62576,return,3.397693899984006,,,,,,,19,24,female,up_down_width,2023_Oct_18_1454,exp1,2021.2.3,59.98703079597238,
,,,,,,,,,,,,,,,,5,8.95,9.475,10,10.525,11.05,0.525,0.275,0.25,2.35,10,match,36.05,323,342,361,379,398,9,9,9,9,9,,,,,0,0,0,0,0,14,14,27,,,,,num_6,1.3411898000049405,num_6,0.25,0.4,0.25,0.6,9.01073,21.62576,return,2.066999400034547,,,,,,,19,24,female,up_down_width,2023_Oct_18_1454,exp1,2021.2.3,59.98703079597238,
,,,,,,,,,,,,,,,,3,9,10,11,0,0,0.9999999999999999,0.5999999999999999,0.4,2.4,10,match,36.05,324,361,397,0,0,9,9,9,0,0,,,,,0,0,0,0,0,15,15,41,,,,,num_4,0.9289728999719955,num_4,0.3,0.8,0.3,0.9,10.81288,32.43864,return,1.4344710999866948,,,,,,,19,24,female,up_down_width,2023_Oct_18_1454,exp1,2021.2.3,59.98703079597238,
,,,,,,,,,,,,,,,,5,9.175,9.5875,10,10.4125,10.825,0.4125,0.16249999999999998,0.25,1.9,10,match,36.05,331,346,361,375,390,9,9,9,9,9,,,,,0,0,0,0,0,16,16,23,,,,,num_5,0.8502334000077099,num_5,0.3,1.1,0.3,0.55,10.81288,19.82361,return,3.1813082000007853,,,,,,,19,24,female,up_down_width,2023_Oct_18_1454,exp1,2021.2.3,59.98703079597238,
,,,,,,,,,,,,,,,,4,8.95,9.65,10.35,11.05,0,0.7,0.6,0.1,2.1999999999999997,10,initial,36.05,323,348,373,398,0,9,9,9,9,0,,,,,0,0,0,0,0,17,17,24,,,,,num_4,0.8452154000406154,num_4,0.15,0.6,0.15,0.6,5.40644,21.62576,return,1.272790500021074,,,,,,,19,24,female,up_down_width,2023_Oct_18_1454,exp1,2021.2.3,59.98703079597238,
,,,,,,,,,,,,,,,,5,9,9.5,10,10.5,11,0.5,0.25,0.25,2.25,10,initial,36.05,324,342,361,379,397,9,9,9,9,9,,,,,0,0,0,0,0,18,18,38,,,,,num_5,0.9639076999737881,num_5,0.2,1.0,0.35,0.9,12.61502,32.43864,return,1.7556199000100605,,,,,,,19,24,female,up_down_width,2023_Oct_18_1454,exp1,2021.2.3,59.98703079597238,
,,,,,,,,,,,,,,,,4,9.25,9.75,10.25,10.75,0,0.5,0.25,0.25,1.75,10,initial,36.05,333,351,370,388,0,9,9,9,9,0,,,,,0,0,0,0,0,19,19,20,,,,,num_4,0.9522544000064954,num_4,0.15,0.7,0.3,0.5,10.81288,18.02146,return,3.391423399967607,,,,,,,19,24,female,up_down_width,2023_Oct_18_1454,exp1,2021.2.3,59.98703079597238,
,,,,,,,,,,,,,,,,3,9,10,11,0,0,1,0.9,0.1,2.1,10,match,36.05,324,361,397,0,0,9,9,9,0,0,,,,,0,0,0,0,0,20,20,37,,,,,num_3,0.8919792000087909,num_3,0.45,0.6,0.10000000000000007,0.75,3.60429,27.0322,return,5.462026000022888,,,,,,,19,24,female,up_down_width,2023_Oct_18_1454,exp1,2021.2.3,59.98703079597238,
,,,,,,,,,,,,,,,,5,8.6,9.3,10,10.7,11.4,0.7,0.44999999999999996,0.25,3.05,10,initial,36.05,310,335,361,386,411,9,9,9,9,9,,,,,0,0,0,0,0,21,21,44,,,,,num_4,0.845926700043492,num_4,0.15,1.0,0.3,1.0,10.81288,36.04293,return,2.8595266999909654,,,,,,,19,24,female,up_down_width,2023_Oct_18_1454,exp1,2021.2.3,59.98703079597238,
,,,,,,,,,,,,,,,,3,8.2,10,11.8,0,0,1.8,1.55,0.25,3.85,10,match,36.05,296,361,425,0,0,9,9,9,0,0,,,,,0,0,0,0,0,22,22,51,,,,,num_2,1.2092724000103772,num_2,0.45,1.6,0.35000000000000003,1.6,12.61502,57.66869,return,2.037085300020408,,,,,,,19,24,female,up_down_width,2023_Oct_18_1454,exp1,2021.2.3,59.98703079597238,
,,,,,,,,,,,,,,,,5,8.95,9.475,10,10.525,11.05,0.525,0.42500000000000004,0.1,2.2,10,match,36.05,323,342,361,379,398,9,9,9,9,9,,,,,0,0,0,0,0,23,23,25,,,,,num_4,0.9560436000465415,num_4,0.15,0.9,0.2,0.9,7.20859,32.43864,return,1.2414240000071004,,,,,,,19,24,female,up_down_width,2023_Oct_18_1454,exp1,2021.2.3,59.98703079597238,
,,,,,,,,,,,,,,,,5,9,9.5,10,10.5,11,0.5,0.09999999999999998,0.4,2.4,10,initial,36.05,324,342,361,379,397,9,9,9,9,9,,,,,0,0,0,0,0,24,24,40,,,,,num_4,1.060492099961266,num_4,0.15,1.0,0.49999999999999994,1.0,18.02146,36.04293,return,2.0736015999573283,,,,,,,19,24,female,up_down_width,2023_Oct_18_1454,exp1,2021.2.3,59.98703079597238,
,,,,,,,,,,,,,,,,5,8.6,9.3,10,10.7,11.4,0.7,0.6,0.1,2.9,10,initial,36.05,310,335,361,386,411,9,9,9,9,9,,,,,0,0,0,0,0,25,25,42,,,,,num_4,1.0545101999887265,num_4,0.3,0.7,0.15000000000000002,0.6,5.40644,21.62576,return,3.9048287000041455,,,,,,,19,24,female,up_down_width,2023_Oct_18_1454,exp1,2021.2.3,59.98703079597238,
,,,,,,,,,,,,,,,,4,9.5,9.833333333333334,10.166666666666666,10.5,0,0.3333333333333333,0.08333333333333333,0.25,1.25,10,match,36.05,342,354,367,379,0,9,9,9,9,0,,,,,0,0,0,0,0,26,26,3,,,,,num_3,1.5811031999764964,num_3,0.25,0.5,0.3,0.5,10.81288,18.02146,return,1.5013838000013493,,,,,,,19,24,female,up_down_width,2023_Oct_18_1454,exp1,2021.2.3,59.98703079597238,
,,,,,,,,,,,,,,,,3,9.5,10,10.5,0,0,0.5,0.09999999999999998,0.4,1.4000000000000001,10,initial,36.05,342,361,379,0,0,9,9,9,0,0,,,,,0,0,0,0,0,27,27,4,,,,,num_3,0.8496777999680489,num_3,0.2,0.3,0.39999999999999997,0.5,14.41717,18.02146,return,5.660214099974837,,,,,,,19,24,female,up_down_width,2023_Oct_18_1454,exp1,2021.2.3,59.98703079597238,
,,,,,,,,,,,,,,,,4,8.95,9.65,10.35,11.05,0,0.7,0.44999999999999996,0.25,2.3499999999999996,10,initial,36.05,323,348,373,398,0,9,9,9,9,0,,,,,0,0,0,0,0,28,28,26,,,,,num_5,2.495265399978962,num_5,0.25,0.9,0.35,0.6,12.61502,21.62576,return,2.6348249999573454,,,,,,,19,24,female,up_down_width,2023_Oct_18_1454,exp1,2021.2.3,59.98703079597238,
,,,,,,,,,,,,,,,,3,9.1,10,10.9,0,0,0.9,0.65,0.25,2.05,10,initial,36.05,328,361,393,0,0,9,9,9,0,0,,,,,0,0,0,0,0,29,29,14,,,,,num_2,1.0497550999862142,num_2,0.15,1.6,0.3,0.7,10.81288,25.23005,return,3.407272600044962,,,,,,,19,24,female,up_down_width,2023_Oct_18_1454,exp1,2021.2.3,59.98703079597238,
,,,,,,,,,,,,,,,,4,9.25,9.75,10.25,10.75,0,0.5,0.09999999999999998,0.4,1.9,10,initial,36.05,333,351,370,388,0,9,9,9,9,0,,,,,0,0,0,0,0,30,30,22,,,,,num_4,2.5251837000250816,num_4,0.4,0.7,0.4,0.6,14.41717,21.62576,return,1.3649193999590352,,,,,,,19,24,female,up_down_width,2023_Oct_18_1454,exp1,2021.2.3,59.98703079597238,
,,,,,,,,,,,,,,,,5,9,9.5,10,10.5,11,0.5,0.4,0.1,2.1,10,initial,36.05,324,342,361,379,397,9,9,9,9,9,,,,,0,0,0,0,0,31,31,36,,,,,num_4,0.9310396000510082,num_4,0.15,0.9,0.15,0.6,5.40644,21.62576,return,2.426441599964164,,,,,,,19,24,female,up_down_width,2023_Oct_18_1454,exp1,2021.2.3,59.98703079597238,
,,,,,,,,,,,,,,,,3,9,10,11,0,0,1,0.75,0.25,2.25,10,match,36.05,324,361,397,0,0,9,9,9,0,0,,,,,0,0,0,0,0,32,32,39,,,,,num_2,31.790496800036635,num_2,0.2,1.6,0.3,1.6,10.81288,57.66869,return,1.2222121999948286,,,,,,,19,24,female,up_down_width,2023_Oct_18_1454,exp1,2021.2.3,59.98703079597238,
,,,,,,,,,,,,,,,,5,8.95,9.475,10,10.525,11.05,0.525,0.125,0.4,2.5,10,match,36.05,323,342,361,379,398,9,9,9,9,9,,,,,0,0,0,0,0,33,33,29,,,,,num_5,0.9399717999622226,num_5,0.2,0.4,0.49999999999999994,0.6,18.02146,21.62576,return,6.437895399983972,,,,,,,19,24,female,up_down_width,2023_Oct_18_1454,exp1,2021.2.3,59.98703079597238,
,,,,,,,,,,,,,,,,4,9.1,9.7,10.3,10.9,0,0.6000000000000001,0.20000000000000004,0.4,2.2,10,match,36.05,328,350,371,393,0,9,9,9,9,0,,,,,0,0,0,0,0,34,34,17,,,,,num_4,0.9966000000131316,num_4,0.1,0.6,0.3,0.5,10.81288,18.02146,return,3.547545799985528,,,,,,,19,24,female,up_down_width,2023_Oct_18_1454,exp1,2021.2.3,59.98703079597238,
,,,,,,,,,,,,,,,,3,8.525,10,11.475,0,0,1.475,1.225,0.25,3.2,10,match,36.05,307,361,414,0,0,9,9,9,0,0,,,,,0,0,0,0,0,35,35,47,,,,,num_3,1.0183414000202902,num_3,0.25,0.9,0.25,1.15,9.01073,41.44937,return,2.3186090999515727,,,,,,,19,24,female,up_down_width,2023_Oct_18_1454,exp1,2021.2.3,59.98703079597238,
,,,,,,,,,,,,,,,,3,9.1,10,10.9,0,0,0.9,0.5,0.4,2.2,10,initial,36.05,328,361,393,0,0,9,9,9,0,0,,,,,0,0,0,0,0,36,36,16,,,,,num_3,1.370510499982629,num_3,0.25,0.5,0.3,1.1,10.81288,39.64722,return,7.890421900025103,,,,,,,19,24,female,up_down_width,2023_Oct_18_1454,exp1,2021.2.3,59.98703079597238,
,,,,,,,,,,,,,,,,3,9.3,10,10.7,0,0,0.7,0.29999999999999993,0.4,1.8,10,initial,36.05,335,361,386,0,0,9,9,9,0,0,,,,,0,0,0,0,0,37,37,10,,,,,num_3,1.6612851000390947,num_3,0.2,0.6,0.3,0.55,10.81288,19.82361,return,5.815530199964996,,,,,,,19,24,female,up_down_width,2023_Oct_18_1454,exp1,2021.2.3,59.98703079597238,
,,,,,,,,,,,,,,,,3,8.2,10,11.8,0,0,1.8000000000000003,1.7000000000000002,0.1,3.7,10,match,36.05,296,361,425,0,0,9,9,9,0,0,,,,,0,0,0,0,0,38,38,49,,,,,num_3,1.0098902000463568,num_3,0.3,1.3,0.15000000000000002,1.45,5.40644,52.26225,return,5.784867300011683,,,,,,,19,24,female,up_down_width,2023_Oct_18_1454,exp1,2021.2.3,59.98703079597238,
,,,,,,,,,,,,,,,,5,8.2,9.1,10,10.9,11.8,0.9,0.8,0.1,3.7,10,initial,36.05,296,328,361,393,425,9,9,9,9,9,,,,,0,0,0,0,0,39,39,48,,,,,num_5,1.219784700020682,num_5,0.2,0.4,0.10000000000000002,0.85,3.60429,30.63649,return,4.962355400028173,,,,,,,19,24,female,up_down_width,2023_Oct_18_1454,exp1,2021.2.3,59.98703079597238,
,,,,,,,,,,,,,,,,3,8.2,10,11.8,0,0,1.7999999999999998,1.4,0.4,4,10,match,36.05,296,361,425,0,0,9,9,9,0,0,,,,,0,0,0,0,0,40,40,53,,,,,num_3,0.8915502000018023,num_3,0.25,0.8,0.25,1.5,9.01073,54.06439,return,5.3489254000014625,,,,,,,19,24,female,up_down_width,2023_Oct_18_1454,exp1,2021.2.3,59.98703079597238,
,,,,,,,,,,,,,,,,4,9.3,9.766666666666667,10.233333333333333,10.7,0,0.4666666666666667,0.21666666666666665,0.25,1.65,10,match,36.05,335,352,369,386,0,9,9,9,9,0,,,,,0,0,0,0,0,41,41,9,,,,,num_4,1.3039372999919578,num_4,0.3,1.1,0.3,0.5,10.81288,18.02146,return,2.177091699966695,,,,,,,19,24,female,up_down_width,2023_Oct_18_1454,exp1,2021.2.3,59.98703079597238,
,,,,,,,,,,,,,,,,4,8.65,9.55,10.45,11.35,0,0.9,0.5,0.4,3.1,10,initial,36.05,312,344,377,409,0,9,9,9,9,0,,,,,0,0,0,0,0,42,42,34,,,,,num_4,1.2237918000319041,num_4,0.35,1.0,0.35,0.8,12.61502,28.83434,return,2.0688255000277422,,,,,,,19,24,female,up_down_width,2023_Oct_18_1454,exp1,2021.2.3,59.98703079597238,
,,,,,,,,,,,,,,,,4,9.5,9.833333333333334,10.166666666666666,10.5,0,0.33333333333333337,0.23333333333333336,0.1,1.1,10,match,36.05,342,354,367,379,0,9,9,9,9,0,,,,,0,0,0,0,0,43,43,1,,,,,num_4,0.8640917000011541,num_4,0.25,0.4,0.10000000000000002,0.4,3.60429,14.41717,return,2.1585597000084817,,,,,,,19,24,female,up_down_width,2023_Oct_18_1454,exp1,2021.2.3,59.98703079597238,
,,,,,,,,,,,,,,,,5,9.25,9.625,10,10.375,10.75,0.375,0.125,0.25,1.75,10,match,36.05,333,347,361,374,388,9,9,9,9,9,,,,,0,0,0,0,0,44,44,21,,,,,num_5,0.984788799949456,num_5,0.2,1.0,0.3,0.55,10.81288,19.82361,return,5.1849185999599285,,,,,,,19,24,female,up_down_width,2023_Oct_18_1454,exp1,2021.2.3,59.98703079597238,
,,,,,,,,,,,,,,,,3,9.3,10,10.7,0,0,0.7,0.6,0.1,1.5,10,initial,36.05,335,361,386,0,0,9,9,9,0,0,,,,,0,0,0,0,0,45,45,6,,,,,num_3,0.8836351999780163,num_3,0.4,0.9,0.20000000000000007,0.75,7.20859,27.0322,return,3.021973499970045,,,,,,,19,24,female,up_down_width,2023_Oct_18_1454,exp1,2021.2.3,59.98703079597238,
,,,,,,,,,,,,,,,,5,8.65,9.325,10,10.675,11.35,0.675,0.42500000000000004,0.25,2.95,10,match,36.05,312,336,361,385,409,9,9,9,9,9,,,,,0,0,0,0,0,46,46,33,,,,,num_5,0.9733503999887034,num_5,0.35,0.7,0.2,0.65,7.20859,23.4279,return,4.117992299958132,,,,,,,19,24,female,up_down_width,2023_Oct_18_1454,exp1,2021.2.3,59.98703079597238,
,,,,,,,,,,,,,,,,5,9.25,9.625,10,10.375,10.75,0.375,0.275,0.1,1.6,10,match,36.05,333,347,361,374,388,9,9,9,9,9,,,,,0,0,0,0,0,47,47,19,,,,,num_5,0.9632864000159316,num_5,0.1,0.8,0.10000000000000002,0.5,3.60429,18.02146,return,3.851262200041674,,,,,,,19,24,female,up_down_width,2023_Oct_18_1454,exp1,2021.2.3,59.98703079597238,
,,,,,,,,,,,,,,,,3,8.6,10,11.4,0,0,1.4,1.15,0.25,3.05,10,match,36.05,310,361,411,0,0,9,9,9,0,0,,,,,0,0,0,0,0,48,48,45,,,,,num_3,1.0289287000196055,num_3,0.3,0.8,0.15000000000000002,1.1,5.40644,39.64722,return,4.299043000035454,,,,,,,19,24,female,up_down_width,2023_Oct_18_1454,exp1,2021.2.3,59.98703079597238,
,,,,,,,,,,,,,,,,3,9.5,10,10.5,0,0,0.5,0.25,0.25,1.25,10,initial,36.05,342,361,379,0,0,9,9,9,0,0,,,,,0,0,0,0,0,49,49,2,,,,,num_3,1.0870660999789834,num_3,0.25,1.3,0.3,0.65,10.81288,23.4279,return,4.944489799963776,,,,,,,19,24,female,up_down_width,2023_Oct_18_1454,exp1,2021.2.3,59.98703079597238,
,,,,,,,,,,,,,,,,4,9.1,9.7,10.3,10.9,0,0.5999999999999999,0.3499999999999999,0.25,2.05,10,match,36.05,328,350,371,393,0,9,9,9,9,0,,,,,0,0,0,0,0,50,50,15,,,,,num_4,0.8350653999950737,num_4,0.35,0.5,0.25,0.7,9.01073,25.23005,return,2.831019399978686,,,,,,,19,24,female,up_down_width,2023_Oct_18_1454,exp1,2021.2.3,59.98703079597238,
,,,,,,,,,,,,,,,,4,8.65,9.55,10.45,11.35,0,0.9,0.65,0.25,2.95,10,initial,36.05,312,344,377,409,0,9,9,9,9,0,,,,,0,0,0,0,0,51,51,32,,,,,num_4,0.9146901000058278,num_4,0.3,0.3,0.35,0.8,12.61502,28.83434,return,5.437895799987018,,,,,,,19,24,female,up_down_width,2023_Oct_18_1454,exp1,2021.2.3,59.98703079597238,
,,,,,,,,,,,,,,,,4,9.1,9.7,10.3,10.9,0,0.6,0.5,0.1,1.9,10,match,36.05,328,350,371,393,0,9,9,9,9,0,,,,,0,0,0,0,0,52,52,13,,,,,num_4,1.0045361999655142,num_4,0.4,0.5,0.15000000000000008,0.6,5.40644,21.62576,return,3.26656489999732,,,,,,,19,24,female,up_down_width,2023_Oct_18_1454,exp1,2021.2.3,59.98703079597238,
,,,,,,,,,,,,,,,,3,9.5,10,10.5,0,0,0.5,0.4,0.1,1.1,10,initial,36.05,342,361,379,0,0,9,9,9,0,0,,,,,0,0,0,0,0,53,53,0,,,,,num_3,0.9513236999628134,num_3,0.4,0.9,0.20000000000000007,0.75,7.20859,27.0322,return,3.1847742999671027,,,,,,,19,24,female,up_down_width,2023_Oct_18_1454,exp1,2021.2.3,59.98703079597238,
,,,,,,,,,,,,,,,,,,,,,,,,,,,,,,,,,,,,,,,,,,,0,0,0,0,,,,,,,,,,,,,,,,,,,,,,1463.196853099973,None,1463.196853099973,None,19,24,female,up_down_width,2023_Oct_18_1454,exp1,2021.2.3,59.98703079597238,
,,,,,,,,,,,,,,,,5,8.65,9.325,10,10.675,11.35,0.6749999999999999,0.575,0.1,2.8,10,match,36.05,312,336,361,385,409,9,9,9,9,9,,,,,1,0,1,0,0,0,0,31,,,,,num_5,0.9478969000047073,num_5,0.35,0.8,0.10000000000000002,0.8,3.60429,28.83434,return,2.3018253999762237,,,,,,,19,24,female,up_down_width,2023_Oct_18_1454,exp1,2021.2.3,59.98703079597238,
,,,,,,,,,,,,,,,,4,9.3,9.766666666666667,10.233333333333333,10.7,0,0.4666666666666667,0.3666666666666667,0.1,1.5,10,match,36.05,335,352,369,386,0,9,9,9,9,0,,,,,1,0,1,0,0,1,1,7,,,,,num_4,0.8459878999856301,num_4,0.45,1.1,0.15000000000000008,0.7,5.40644,25.23005,return,2.7806832999922335,,,,,,,19,24,female,up_down_width,2023_Oct_18_1454,exp1,2021.2.3,59.98703079597238,
,,,,,,,,,,,,,,,,4,8.95,9.65,10.35,11.05,0,0.7,0.6,0.1,2.1999999999999997,10,initial,36.05,323,348,373,398,0,9,9,9,9,0,,,,,1,0,1,0,0,2,2,24,,,,,num_5,1.0765291000134312,num_5,0.45,0.8,0.10000000000000007,0.75,3.60429,27.0322,return,2.7738125000032596,,,,,,,19,24,female,up_down_width,2023_Oct_18_1454,exp1,2021.2.3,59.98703079597238,
,,,,,,,,,,,,,,,,4,9.5,9.833333333333334,10.166666666666666,10.5,0,0.3333333333333333,0.08333333333333333,0.25,1.25,10,match,36.05,342,354,367,379,0,9,9,9,9,0,,,,,1,0,1,0,0,3,3,3,,,,,num_4,1.2340299999923445,num_4,0.15,1.0,0.3,0.5,10.81288,18.02146,return,2.447098599979654,,,,,,,19,24,female,up_down_width,2023_Oct_18_1454,exp1,2021.2.3,59.98703079597238,
,,,,,,,,,,,,,,,,5,8.2,9.1,10,10.9,11.8,0.9,0.65,0.25,3.85,10,initial,36.05,296,328,361,393,425,9,9,9,9,9,,,,,1,0,1,0,0,4,4,50,,,,,num_5,0.9127495000138879,num_5,0.15,1.0,0.3,1.0,10.81288,36.04293,return,1.563044100010302,,,,,,,19,24,female,up_down_width,2023_Oct_18_1454,exp1,2021.2.3,59.98703079597238,
,,,,,,,,,,,,,,,,5,9,9.5,10,10.5,11,0.5,0.4,0.1,2.1,10,initial,36.05,324,342,361,379,397,9,9,9,9,9,,,,,1,0,1,0,0,5,5,36,,,,,num_6,1.2315373999881558,num_6,0.45,1.0,0.10000000000000007,0.6,3.60429,21.62576,return,5.101505400030874,,,,,,,19,24,female,up_down_width,2023_Oct_18_1454,exp1,2021.2.3,59.98703079597238,
,,,,,,,,,,,,,,,,3,9.1,10,10.9,0,0,0.9,0.65,0.25,2.05,10,initial,36.05,328,361,393,0,0,9,9,9,0,0,,,,,1,0,1,0,0,6,6,14,,,,,num_3,0.8996239000116475,num_3,0.3,0.5,0.2,0.5,7.20859,18.02146,return,1.5491744000464678,,,,,,,19,24,female,up_down_width,2023_Oct_18_1454,exp1,2021.2.3,59.98703079597238,
,,,,,,,,,,,,,,,,4,9.5,9.833333333333334,10.166666666666666,10.5,0,0.33333333333333337,0.23333333333333336,0.1,1.1,10,match,36.05,342,354,367,379,0,9,9,9,9,0,,,,,1,0,1,0,0,7,7,1,,,,,num_3,1.4260896999621764,num_3,0.1,1.3,0.2,0.5,7.20859,18.02146,return,5.464643999992404,,,,,,,19,24,female,up_down_width,2023_Oct_18_1454,exp1,2021.2.3,59.98703079597238,
,,,,,,,,,,,,,,,,5,8.2,9.1,10,10.9,11.8,0.9,0.8,0.1,3.7,10,initial,36.05,296,328,361,393,425,9,9,9,9,9,,,,,1,0,1,0,0,8,8,48,,,,,num_6,1.0720033000106923,num_6,0.1,0.5,0.15000000000000002,0.7,5.40644,25.23005,return,2.609149499970954,,,,,,,19,24,female,up_down_width,2023_Oct_18_1454,exp1,2021.2.3,59.98703079597238,
,,,,,,,,,,,,,,,,5,8.6,9.3,10,10.7,11.4,0.7,0.6,0.1,2.9,10,initial,36.05,310,335,361,386,411,9,9,9,9,9,,,,,1,0,1,0,0,9,9,42,,,,,num_5,0.8459126999950968,num_5,0.4,0.8,0.15000000000000008,0.8,5.40644,28.83434,return,2.714950299996417,,,,,,,19,24,female,up_down_width,2023_Oct_18_1454,exp1,2021.2.3,59.98703079597238,
,,,,,,,,,,,,,,,,5,8.65,9.325,10,10.675,11.35,0.675,0.42500000000000004,0.25,2.95,10,match,36.05,312,336,361,385,409,9,9,9,9,9,,,,,1,0,1,0,0,10,10,33,,,,,num_5,0.8530293999938294,num_5,0.45,0.9,0.20000000000000007,0.9,7.20859,32.43864,return,1.7272488999878988,,,,,,,19,24,female,up_down_width,2023_Oct_18_1454,exp1,2021.2.3,59.98703079597238,
,,,,,,,,,,,,,,,,5,8.95,9.475,10,10.525,11.05,0.525,0.125,0.4,2.5,10,match,36.05,323,342,361,379,398,9,9,9,9,9,,,,,1,0,1,0,0,11,11,29,,,,,num_5,0.9112943999934942,num_5,0.15,1.2,0.49999999999999994,0.8,18.02146,28.83434,return,4.279685799963772,,,,,,,19,24,female,up_down_width,2023_Oct_18_1454,exp1,2021.2.3,59.98703079597238,
,,,,,,,,,,,,,,,,3,8.6,10,11.4,0,0,1.4,1.15,0.25,3.05,10,match,36.05,310,361,411,0,0,9,9,9,0,0,,,,,1,0,1,0,0,12,12,45,,,,,num_2,0.9111821000115015,num_2,0.45,1.6,0.25000000000000006,1.8,9.01073,64.87727,return,3.4015270000090823,,,,,,,19,24,female,up_down_width,2023_Oct_18_1454,exp1,2021.2.3,59.98703079597238,
,,,,,,,,,,,,,,,,3,9.5,10,10.5,0,0,0.5,0.4,0.1,1.1,10,initial,36.05,342,361,379,0,0,9,9,9,0,0,,,,,1,0,1,0,0,13,13,0,,,,,num_3,0.8264270000508986,num_3,0.4,1,0.15000000000000008,0.75,5.40644,27.0322,return,3.928517299995292,,,,,,,19,24,female,up_down_width,2023_Oct_18_1454,exp1,2021.2.3,59.98703079597238,
,,,,,,,,,,,,,,,,4,9.3,9.766666666666667,10.233333333333333,10.7,0,0.4666666666666667,0.21666666666666665,0.25,1.65,10,match,36.05,335,352,369,386,0,9,9,9,9,0,,,,,1,0,1,0,0,14,14,9,,,,,num_4,0.9158509999979287,num_4,0.1,1.3,0.35,0.7,12.61502,25.23005,return,3.0198028000304475,,,,,,,19,24,female,up_down_width,2023_Oct_18_1454,exp1,2021.2.3,59.98703079597238,
,,,,,,,,,,,,,,,,4,9.1,9.7,10.3,10.9,0,0.6000000000000001,0.20000000000000004,0.4,2.2,10,match,36.05,328,350,371,393,0,9,9,9,9,0,,,,,1,0,1,0,0,15,15,17,,,,,num_4,0.9620067999931052,num_4,0.2,0.6,0.3,0.6,10.81288,21.62576,return,4.12210049998248,,,,,,,19,24,female,up_down_width,2023_Oct_18_1454,exp1,2021.2.3,59.98703079597238,
,,,,,,,,,,,,,,,,4,9.25,9.75,10.25,10.75,0,0.5,0.09999999999999998,0.4,1.9,10,initial,36.05,333,351,370,388,0,9,9,9,9,0,,,,,1,0,1,0,0,16,16,22,,,,,num_4,0.9099181999918073,num_4,0.4,0.6,0.45,0.6,16.21932,21.62576,return,2.117438699991908,,,,,,,19,24,female,up_down_width,2023_Oct_18_1454,exp1,2021.2.3,59.98703079597238,
,,,,,,,,,,,,,,,,5,9.25,9.625,10,10.375,10.75,0.375,0.125,0.25,1.75,10,match,36.05,333,347,361,374,388,9,9,9,9,9,,,,,1,0,1,0,0,17,17,21,,,,,num_5,1.2424642000114545,num_5,0.15,1.2,0.44999999999999996,0.7,16.21932,25.23005,return,3.8000612999894656,,,,,,,19,24,female,up_down_width,2023_Oct_18_1454,exp1,2021.2.3,59.98703079597238,
,,,,,,,,,,,,,,,,3,9,10,11,0,0,0.9999999999999999,0.5999999999999999,0.4,2.4,10,match,36.05,324,361,397,0,0,9,9,9,0,0,,,,,1,0,1,0,0,18,18,41,,,,,num_2,0.9883581000030972,num_2,0.1,1.6,0.6,1.2,21.62576,43.25151,return,3.3657727999961935,,,,,,,19,24,female,up_down_width,2023_Oct_18_1454,exp1,2021.2.3,59.98703079597238,
,,,,,,,,,,,,,,,,3,9.1,10,10.9,0,0,0.9,0.5,0.4,2.2,10,initial,36.05,328,361,393,0,0,9,9,9,0,0,,,,,1,0,1,0,0,19,19,16,,,,,num_2,0.9739237000467256,num_2,0.4,1.6,0.55,1.0,19.82361,36.04293,return,3.268464600027073,,,,,,,19,24,female,up_down_width,2023_Oct_18_1454,exp1,2021.2.3,59.98703079597238,
,,,,,,,,,,,,,,,,3,8.525,10,11.475,0,0,1.475,1.225,0.25,3.2,10,match,36.05,307,361,414,0,0,9,9,9,0,0,,,,,1,0,1,0,0,20,20,47,,,,,num_3,0.9599116999888793,num_3,0.3,1.2,0.15000000000000002,1.2,5.40644,43.25151,return,2.709920100052841,,,,,,,19,24,female,up_down_width,2023_Oct_18_1454,exp1,2021.2.3,59.98703079597238,
,,,,,,,,,,,,,,,,3,9,10,11,0,0,1,0.75,0.25,2.25,10,match,36.05,324,361,397,0,0,9,9,9,0,0,,,,,1,0,1,0,0,21,21,39,,,,,num_3,0.9727059000288136,num_3,0.4,0.5,0.20000000000000007,1.0,7.20859,36.04293,return,5.619369299965911,,,,,,,19,24,female,up_down_width,2023_Oct_18_1454,exp1,2021.2.3,59.98703079597238,
,,,,,,,,,,,,,,,,3,8.2,10,11.8,0,0,1.8,1.55,0.25,3.85,10,match,36.05,296,361,425,0,0,9,9,9,0,0,,,,,1,0,1,0,0,22,22,51,,,,,num_3,0.9663943000487052,num_3,0.2,1.3,0.2,1.7,7.20859,61.27298,return,1.7085275999852456,,,,,,,19,24,female,up_down_width,2023_Oct_18_1454,exp1,2021.2.3,59.98703079597238,
,,,,,,,,,,,,,,,,5,8.6,9.3,10,10.7,11.4,0.7,0.29999999999999993,0.4,3.1999999999999997,10,initial,36.05,310,335,361,386,411,9,9,9,9,9,,,,,1,0,1,0,0,23,23,46,,,,,num_5,0.8516987999901175,num_5,0.3,1.1,0.44999999999999996,0.9,16.21932,32.43864,return,1.9842779000173323,,,,,,,19,24,female,up_down_width,2023_Oct_18_1454,exp1,2021.2.3,59.98703079597238,
,,,,,,,,,,,,,,,,3,9.3,10,10.7,0,0,0.7,0.6,0.1,1.5,10,initial,36.05,335,361,386,0,0,9,9,9,0,0,,,,,1,0,1,0,0,24,24,6,,,,,num_3,1.2707858000067063,num_3,0.45,0.8,0.25000000000000006,0.7,9.01073,25.23005,return,2.0986249000416137,,,,,,,19,24,female,up_down_width,2023_Oct_18_1454,exp1,2021.2.3,59.98703079597238,
,,,,,,,,,,,,,,,,3,8.2,10,11.8,0,0,1.7999999999999998,1.4,0.4,4,10,match,36.05,296,361,425,0,0,9,9,9,0,0,,,,,1,0,1,0,0,25,25,53,,,,,num_2,0.8799668999854475,num_2,0.2,1.6,0.2,1.6,7.20859,57.66869,return,0.714909499976784,,,,,,,19,24,female,up_down_width,2023_Oct_18_1454,exp1,2021.2.3,59.98703079597238,
,,,,,,,,,,,,,,,,4,9.25,9.75,10.25,10.75,0,0.5,0.25,0.25,1.75,10,initial,36.05,333,351,370,388,0,9,9,9,9,0,,,,,1,0,1,0,0,26,26,20,,,,,num_3,0.8380282999714836,num_3,0.45,0.8,0.20000000000000007,0.8,7.20859,28.83434,return,3.4081340999691747,,,,,,,19,24,female,up_down_width,2023_Oct_18_1454,exp1,2021.2.3,59.98703079597238,
,,,,,,,,,,,,,,,,5,8.95,9.475,10,10.525,11.05,0.525,0.275,0.25,2.35,10,match,36.05,323,342,361,379,398,9,9,9,9,9,,,,,1,0,1,0,0,27,27,27,,,,,num_5,0.8552871000138111,num_5,0.25,1.0,0.25,0.55,9.01073,19.82361,return,2.2597795999608934,,,,,,,19,24,female,up_down_width,2023_Oct_18_1454,exp1,2021.2.3,59.98703079597238,
,,,,,,,,,,,,,,,,5,8.65,9.325,10,10.675,11.35,0.675,0.275,0.4,3.1,10,match,36.05,312,336,361,385,409,9,9,9,9,9,,,,,1,0,1,0,0,28,28,35,,,,,num_5,0.847961200051941,num_5,0.15,1.2,0.25,0.75,9.01073,27.0322,return,5.1139009000035,,,,,,,19,24,female,up_down_width,2023_Oct_18_1454,exp1,2021.2.3,59.98703079597238,
,,,,,,,,,,,,,,,,4,9.1,9.7,10.3,10.9,0,0.6,0.5,0.1,1.9,10,match,36.05,328,350,371,393,0,9,9,9,9,0,,,,,1,0,1,0,0,29,29,13,,,,,num_5,0.9212116000126116,num_5,0.15,1.2,0.15,0.75,5.40644,27.0322,return,2.1319680999731645,,,,,,,19,24,female,up_down_width,2023_Oct_18_1454,exp1,2021.2.3,59.98703079597238,
,,,,,,,,,,,,,,,,5,9.25,9.625,10,10.375,10.75,0.375,0.275,0.1,1.6,10,match,36.05,333,347,361,374,388,9,9,9,9,9,,,,,1,0,1,0,0,30,30,19,,,,,num_5,0.9226654999656603,num_5,0.1,0.5,0.1,0.45,3.60429,16.21932,return,1.252107199979946,,,,,,,19,24,female,up_down_width,2023_Oct_18_1454,exp1,2021.2.3,59.98703079597238,
,,,,,,,,,,,,,,,,5,8.95,9.475,10,10.525,11.05,0.525,0.42500000000000004,0.1,2.2,10,match,36.05,323,342,361,379,398,9,9,9,9,9,,,,,1,0,1,0,0,31,31,25,,,,,num_5,1.179952900041826,num_5,0.2,0.9,0.2,0.55,7.20859,19.82361,return,1.7572328000096604,,,,,,,19,24,female,up_down_width,2023_Oct_18_1454,exp1,2021.2.3,59.98703079597238,
,,,,,,,,,,,,,,,,5,9.175,9.5875,10,10.4125,10.825,0.4125,0.16249999999999998,0.25,1.9,10,match,36.05,331,346,361,375,390,9,9,9,9,9,,,,,1,0,1,0,0,32,32,23,,,,,num_5,0.8919579000212252,num_5,0.4,0.7,0.20000000000000007,0.55,7.20859,19.82361,return,2.838447400019504,,,,,,,19,24,female,up_down_width,2023_Oct_18_1454,exp1,2021.2.3,59.98703079597238,
,,,,,,,,,,,,,,,,3,9.3,10,10.7,0,0,0.7,0.29999999999999993,0.4,1.8,10,initial,36.05,335,361,386,0,0,9,9,9,0,0,,,,,1,0,1,0,0,33,33,10,,,,,num_3,0.7496844999841414,num_3,0.45,1.2,0.4,0.75,14.41717,27.0322,return,3.263158100016881,,,,,,,19,24,female,up_down_width,2023_Oct_18_1454,exp1,2021.2.3,59.98703079597238,
,,,,,,,,,,,,,,,,4,8.95,9.65,10.35,11.05,0,0.7,0.44999999999999996,0.25,2.3499999999999996,10,initial,36.05,323,348,373,398,0,9,9,9,9,0,,,,,1,0,1,0,0,34,34,26,,,,,num_4,0.8690916000050493,num_4,0.4,0.8,0.4,0.7,14.41717,25.23005,return,0.8467758999904618,,,,,,,19,24,female,up_down_width,2023_Oct_18_1454,exp1,2021.2.3,59.98703079597238,
,,,,,,,,,,,,,,,,5,9,9.5,10,10.5,11,0.5,0.25,0.25,2.25,10,initial,36.05,324,342,361,379,397,9,9,9,9,9,,,,,1,0,1,0,0,35,35,38,,,,,num_5,0.848077500006184,num_5,0.35,1.2,0.35,0.65,12.61502,23.4279,return,2.573613699991256,,,,,,,19,24,female,up_down_width,2023_Oct_18_1454,exp1,2021.2.3,59.98703079597238,
,,,,,,,,,,,,,,,,3,8.2,10,11.8,0,0,1.8000000000000003,1.7000000000000002,0.1,3.7,10,match,36.05,296,361,425,0,0,9,9,9,0,0,,,,,1,0,1,0,0,36,36,49,,,,,num_3,0.8184285000315867,num_3,0.4,0.6,0.15000000000000008,1.45,5.40644,52.26225,return,5.216890000039712,,,,,,,19,24,female,up_down_width,2023_Oct_18_1454,exp1,2021.2.3,59.98703079597238,
,,,,,,,,,,,,,,,,4,9.3,9.766666666666667,10.233333333333333,10.7,0,0.4666666666666667,0.06666666666666665,0.4,1.8,10,match,36.05,335,352,369,386,0,9,9,9,9,0,,,,,1,0,1,0,0,37,37,11,,,,,num_3,1.1847424000152387,num_3,0.45,0.7,0.45,0.65,16.21932,23.4279,return,1.550461600010749,,,,,,,19,24,female,up_down_width,2023_Oct_18_1454,exp1,2021.2.3,59.98703079597238,
,,,,,,,,,,,,,,,,5,8.2,9.1,10,10.9,11.8,0.9,0.5,0.4,4,10,initial,36.05,296,328,361,393,425,9,9,9,9,9,,,,,1,0,1,0,0,38,38,52,,,,,num_4,0.8405172999482602,num_4,0.2,0.8,0.5499999999999999,1.0,19.82361,36.04293,return,4.326134799979627,,,,,,,19,24,female,up_down_width,2023_Oct_18_1454,exp1,2021.2.3,59.98703079597238,
,,,,,,,,,,,,,,,,4,8.95,9.65,10.35,11.05,0,0.7,0.29999999999999993,0.4,2.5,10,initial,36.05,323,348,373,398,0,9,9,9,9,0,,,,,1,0,1,0,0,39,39,28,,,,,num_4,1.6147950000013225,num_4,0.3,1.2,0.8000000000000002,1.2,28.83434,43.25151,return,2.1415289000142366,,,,,,,19,24,female,up_down_width,2023_Oct_18_1454,exp1,2021.2.3,59.98703079597238,
,,,,,,,,,,,,,,,,3,9,10,11,0,0,1,0.9,0.1,2.1,10,match,36.05,324,361,397,0,0,9,9,9,0,0,,,,,1,0,1,0,0,40,40,37,,,,,num_2,0.8789671999984421,num_2,0.2,1.6,0.15000000000000002,1.5,5.40644,54.06439,return,1.7064941999851726,,,,,,,19,24,female,up_down_width,2023_Oct_18_1454,exp1,2021.2.3,59.98703079597238,
,,,,,,,,,,,,,,,,4,9.1,9.7,10.3,10.9,0,0.5999999999999999,0.3499999999999999,0.25,2.05,10,match,36.05,328,350,371,393,0,9,9,9,9,0,,,,,1,0,1,0,0,41,41,15,,,,,num_4,0.7826077999779955,num_4,0.35,1.2,0.2,1.1,7.20859,39.64722,return,3.342743400018662,,,,,,,19,24,female,up_down_width,2023_Oct_18_1454,exp1,2021.2.3,59.98703079597238,
,,,,,,,,,,,,,,,,4,9.25,9.75,10.25,10.75,0,0.5,0.4,0.1,1.6,10,initial,36.05,333,351,370,388,0,9,9,9,9,0,,,,,1,0,1,0,0,42,42,18,,,,,num_5,1.0105982999666594,num_5,0.4,1.1,0.15000000000000008,0.8,5.40644,28.83434,return,2.793570500041824,,,,,,,19,24,female,up_down_width,2023_Oct_18_1454,exp1,2021.2.3,59.98703079597238,
,,,,,,,,,,,,,,,,4,8.65,9.55,10.45,11.35,0,0.9,0.8,0.1,2.8000000000000003,10,initial,36.05,312,344,377,409,0,9,9,9,9,0,,,,,1,0,1,0,0,43,43,30,,,,,num_4,0.7935780999832787,num_4,0.4,1.3,0.20000000000000007,1.0,7.20859,36.04293,return,1.762871199985966,,,,,,,19,24,female,up_down_width,2023_Oct_18_1454,exp1,2021.2.3,59.98703079597238,
,,,,,,,,,,,,,,,,5,9,9.5,10,10.5,11,0.5,0.09999999999999998,0.4,2.4,10,initial,36.05,324,342,361,379,397,9,9,9,9,9,,,,,1,0,1,0,0,44,44,40,,,,,num_5,0.9377748999977484,num_5,0.2,0.3,0.2,0.35,7.20859,12.61502,return,1.1681771000148728,,,,,,,19,24,female,up_down_width,2023_Oct_18_1454,exp1,2021.2.3,59.98703079597238,
,,,,,,,,,,,,,,,,3,9.3,10,10.7,0,0,0.7,0.44999999999999996,0.25,1.65,10,initial,36.05,335,361,386,0,0,9,9,9,0,0,,,,,1,0,1,0,0,45,45,8,,,,,num_3,0.8234851000015624,num_3,0.2,0.3,0.25,0.55,9.01073,19.82361,return,1.9894138000090607,,,,,,,19,24,female,up_down_width,2023_Oct_18_1454,exp1,2021.2.3,59.98703079597238,
,,,,,,,,,,,,,,,,3,9.1,10,10.9,0,0,0.9,0.8,0.1,1.9000000000000001,10,initial,36.05,328,361,393,0,0,9,9,9,0,0,,,,,1,0,1,0,0,46,46,12,,,,,num_3,0.8280173999955878,num_3,0.25,1.1,0.15000000000000002,0.85,5.40644,30.63649,return,2.457411499985028,,,,,,,19,24,female,up_down_width,2023_Oct_18_1454,exp1,2021.2.3,59.98703079597238,
,,,,,,,,,,,,,,,,3,9.5,10,10.5,0,0,0.5,0.25,0.25,1.25,10,initial,36.05,342,361,379,0,0,9,9,9,0,0,,,,,1,0,1,0,0,47,47,2,,,,,num_3,0.7758788999635726,num_3,0.1,0.4,0.1,0.35,3.60429,12.61502,return,0.8082107999944128,,,,,,,19,24,female,up_down_width,2023_Oct_18_1454,exp1,2021.2.3,59.98703079597238,
,,,,,,,,,,,,,,,,4,8.65,9.55,10.45,11.35,0,0.9,0.5,0.4,3.1,10,initial,36.05,312,344,377,409,0,9,9,9,9,0,,,,,1,0,1,0,0,48,48,34,,,,,num_4,0.794047299947124,num_4,0.2,0.4,0.2,0.6,7.20859,21.62576,return,1.1776675999863073,,,,,,,19,24,female,up_down_width,2023_Oct_18_1454,exp1,2021.2.3,59.98703079597238,
,,,,,,,,,,,,,,,,4,8.65,9.55,10.45,11.35,0,0.9,0.65,0.25,2.95,10,initial,36.05,312,344,377,409,0,9,9,9,9,0,,,,,1,0,1,0,0,49,49,32,,,,,num_5,0.8007816999452189,num_5,0.1,1.2,0.3,0.8,10.81288,28.83434,return,3.775749900029041,,,,,,,19,24,female,up_down_width,2023_Oct_18_1454,exp1,2021.2.3,59.98703079597238,
,,,,,,,,,,,,,,,,3,9.5,10,10.5,0,0,0.5,0.09999999999999998,0.4,1.4000000000000001,10,initial,36.05,342,361,379,0,0,9,9,9,0,0,,,,,1,0,1,0,0,50,50,4,,,,,num_2,0.9453546999720857,num_2,0.2,1.6,0.6,1.0,21.62576,36.04293,return,3.450416999985464,,,,,,,19,24,female,up_down_width,2023_Oct_18_1454,exp1,2021.2.3,59.98703079597238,
,,,,,,,,,,,,,,,,3,8.6,10,11.4,0,0,1.4,1.2999999999999998,0.1,2.9,10,match,36.05,310,361,411,0,0,9,9,9,0,0,,,,,1,0,1,0,0,51,51,43,,,,,num_3,0.7530287000117823,num_3,0.1,1.1,0.1,1.1,3.60429,39.64722,return,0.5924558999831788,,,,,,,19,24,female,up_down_width,2023_Oct_18_1454,exp1,2021.2.3,59.98703079597238,
,,,,,,,,,,,,,,,,4,9.425,9.808333333333334,10.191666666666666,10.575,0,0.3833333333333333,0.1333333333333333,0.25,1.4,10,match,36.05,340,354,367,381,0,9,9,9,9,0,,,,,1,0,1,0,0,52,52,5,,,,,num_4,0.8584913999657147,num_4,0.45,0.6,0.30000000000000004,0.5,10.81288,18.02146,return,3.3518093999591656,,,,,,,19,24,female,up_down_width,2023_Oct_18_1454,exp1,2021.2.3,59.98703079597238,
,,,,,,,,,,,,,,,,5,8.6,9.3,10,10.7,11.4,0.7,0.44999999999999996,0.25,3.05,10,initial,36.05,310,335,361,386,411,9,9,9,9,9,,,,,1,0,1,0,0,53,53,44,,,,,num_5,0.8681716000428423,num_5,0.4,0.9,0.30000000000000004,0.7,10.81288,25.23005,return,2.238868199987337,,,,,,,19,24,female,up_down_width,2023_Oct_18_1454,exp1,2021.2.3,59.98703079597238,
,,,,,,,,,,,,,,,,,,,,,,,,,,,,,,,,,,,,,,,,,,,1,0,1,0,,,,,,,,,,,,,,,,,,,,,,1755.4702743000234,None,1755.4702743000234,None,19,24,female,up_down_width,2023_Oct_18_1454,exp1,2021.2.3,59.98703079597238,
,,,,,,,,,,,,,,,,3,9,10,11,0,0,1,0.75,0.25,2.25,10,match,36.05,324,361,397,0,0,9,9,9,0,0,,,,,2,0,2,0,0,0,0,39,,,,,num_3,2.2533043999574147,num_3,0.3,1.1,0.35,0.95,12.61502,34.24078,return,1.7112593000056222,,,,,,,19,24,female,up_down_width,2023_Oct_18_1454,exp1,2021.2.3,59.98703079597238,
,,,,,,,,,,,,,,,,4,8.95,9.65,10.35,11.05,0,0.7,0.6,0.1,2.1999999999999997,10,initial,36.05,323,348,373,398,0,9,9,9,9,0,,,,,2,0,2,0,0,1,1,24,,,,,num_3,0.8639450999908149,num_3,0.2,0.4,0.10000000000000002,1.35,3.60429,48.65795,return,4.9582540999981575,,,,,,,19,24,female,up_down_width,2023_Oct_18_1454,exp1,2021.2.3,59.98703079597238,
,,,,,,,,,,,,,,,,4,9.25,9.75,10.25,10.75,0,0.5,0.25,0.25,1.75,10,initial,36.05,333,351,370,388,0,9,9,9,9,0,,,,,2,0,2,0,0,2,2,20,,,,,num_4,0.7926705999998376,num_4,0.3,1.3,0.3,0.7,10.81288,25.23005,return,1.7681340999552049,,,,,,,19,24,female,up_down_width,2023_Oct_18_1454,exp1,2021.2.3,59.98703079597238,
,,,,,,,,,,,,,,,,3,9.5,10,10.5,0,0,0.5,0.09999999999999998,0.4,1.4000000000000001,10,initial,36.05,342,361,379,0,0,9,9,9,0,0,,,,,2,0,2,0,0,3,3,4,,,,,num_3,0.7979394999565557,num_3,0.15,1.2,0.39999999999999997,0.7,14.41717,25.23005,return,3.42137629998615,,,,,,,19,24,female,up_down_width,2023_Oct_18_1454,exp1,2021.2.3,59.98703079597238,
,,,,,,,,,,,,,,,,5,8.65,9.325,10,10.675,11.35,0.6749999999999999,0.575,0.1,2.8,10,match,36.05,312,336,361,385,409,9,9,9,9,9,,,,,2,0,2,0,0,4,4,31,,,,,num_5,0.9892270999844186,num_5,0.4,0.8,0.15000000000000008,0.85,5.40644,30.63649,return,2.022279599972535,,,,,,,19,24,female,up_down_width,2023_Oct_18_1454,exp1,2021.2.3,59.98703079597238,
,,,,,,,,,,,,,,,,5,9,9.5,10,10.5,11,0.5,0.09999999999999998,0.4,2.4,10,initial,36.05,324,342,361,379,397,9,9,9,9,9,,,,,2,0,2,0,0,5,5,40,,,,,num_5,0.8285357999848202,num_5,0.2,0.9,0.39999999999999997,0.7,14.41717,25.23005,return,2.3615630000131205,,,,,,,19,24,female,up_down_width,2023_Oct_18_1454,exp1,2021.2.3,59.98703079597238,
,,,,,,,,,,,,,,,,5,8.2,9.1,10,10.9,11.8,0.9,0.8,0.1,3.7,10,initial,36.05,296,328,361,393,425,9,9,9,9,9,,,,,2,0,2,0,0,6,6,48,,,,,num_6,3.196458899998106,num_6,0.35,0.5,0.35,0.5,12.61502,18.02146,return,0.7315868000150658,,,,,,,19,24,female,up_down_width,2023_Oct_18_1454,exp1,2021.2.3,59.98703079597238,
,,,,,,,,,,,,,,,,5,9.25,9.625,10,10.375,10.75,0.375,0.125,0.25,1.75,10,match,36.05,333,347,361,374,388,9,9,9,9,9,,,,,2,0,2,0,0,7,7,21,,,,,num_5,1.1113974999752827,num_5,0.4,1.3,0.4,0.6,14.41717,21.62576,return,4.121568400005344,,,,,,,19,24,female,up_down_width,2023_Oct_18_1454,exp1,2021.2.3,59.98703079597238,
,,,,,,,,,,,,,,,,3,9.3,10,10.7,0,0,0.7,0.44999999999999996,0.25,1.65,10,initial,36.05,335,361,386,0,0,9,9,9,0,0,,,,,2,0,2,0,0,8,8,8,,,,,num_3,0.7691713999956846,num_3,0.2,0.3,0.2,0.75,7.20859,27.0322,return,1.9836705000489019,,,,,,,19,24,female,up_down_width,2023_Oct_18_1454,exp1,2021.2.3,59.98703079597238,
,,,,,,,,,,,,,,,,4,8.65,9.55,10.45,11.35,0,0.9,0.65,0.25,2.95,10,initial,36.05,312,344,377,409,0,9,9,9,9,0,,,,,2,0,2,0,0,9,9,32,,,,,num_4,0.7659439000417478,num_4,0.15,0.4,0.15,1.0,5.40644,36.04293,return,2.3019449999555945,,,,,,,19,24,female,up_down_width,2023_Oct_18_1454,exp1,2021.2.3,59.98703079597238,
,,,,,,,,,,,,,,,,3,8.6,10,11.4,0,0,1.4,1.15,0.25,3.05,10,match,36.05,310,361,411,0,0,9,9,9,0,0,,,,,2,0,2,0,0,10,10,45,,,,,num_3,0.8434784000273794,num_3,0.45,0.9,0.20000000000000007,0.95,7.20859,34.24078,return,2.393528500047978,,,,,,,19,24,female,up_down_width,2023_Oct_18_1454,exp1,2021.2.3,59.98703079597238,
,,,,,,,,,,,,,,,,3,8.6,10,11.4,0,0,1.4,1.2999999999999998,0.1,2.9,10,match,36.05,310,361,411,0,0,9,9,9,0,0,,,,,2,0,2,0,0,11,11,43,,,,,num_2,0.8951385999680497,num_2,0.45,1.6,0.15000000000000008,1.8,5.40644,64.87727,return,2.153759600012563,,,,,,,19,24,female,up_down_width,2023_Oct_18_1454,exp1,2021.2.3,59.98703079597238,
,,,,,,,,,,,,,,,,5,8.95,9.475,10,10.525,11.05,0.525,0.125,0.4,2.5,10,match,36.05,323,342,361,379,398,9,9,9,9,9,,,,,2,0,2,0,0,12,12,29,,,,,num_4,1.7812535000266507,num_4,0.2,1.1,0.49999999999999994,0.9,18.02146,32.43864,return,2.253779000020586,,,,,,,19,24,female,up_down_width,2023_Oct_18_1454,exp1,2021.2.3,59.98703079597238,
,,,,,,,,,,,,,,,,3,9.1,10,10.9,0,0,0.9,0.5,0.4,2.2,10,initial,36.05,328,361,393,0,0,9,9,9,0,0,,,,,2,0,2,0,0,13,13,16,,,,,num_3,0.6918850999791175,num_3,0.25,1.3,0.49999999999999994,1.3,18.02146,46.85581,return,1.7992455000057817,,,,,,,19,24,female,up_down_width,2023_Oct_18_1454,exp1,2021.2.3,59.98703079597238,
,,,,,,,,,,,,,,,,4,9.3,9.766666666666667,10.233333333333333,10.7,0,0.4666666666666667,0.21666666666666665,0.25,1.65,10,match,36.05,335,352,369,386,0,9,9,9,9,0,,,,,2,0,2,0,0,14,14,9,,,,,num_4,0.8720549999852665,num_4,0.35,1.2,0.39999999999999997,0.8,14.41717,28.83434,return,1.7636312999529764,,,,,,,19,24,female,up_down_width,2023_Oct_18_1454,exp1,2021.2.3,59.98703079597238,
,,,,,,,,,,,,,,,,4,9.1,9.7,10.3,10.9,0,0.6000000000000001,0.20000000000000004,0.4,2.2,10,match,36.05,328,350,371,393,0,9,9,9,9,0,,,,,2,0,2,0,0,15,15,17,,,,,num_4,0.8866447000182234,num_4,0.2,0.8,0.35,0.6,12.61502,21.62576,return,1.6312949999701232,,,,,,,19,24,female,up_down_width,2023_Oct_18_1454,exp1,2021.2.3,59.98703079597238,
,,,,,,,,,,,,,,,,5,8.2,9.1,10,10.9,11.8,0.9,0.65,0.25,3.85,10,initial,36.05,296,328,361,393,425,9,9,9,9,9,,,,,2,0,2,0,0,16,16,50,,,,,num_4,0.8511274999473244,num_4,0.1,0.9,0.25,0.8,9.01073,28.83434,return,1.4890148999984376,,,,,,,19,24,female,up_down_width,2023_Oct_18_1454,exp1,2021.2.3,59.98703079597238,
,,,,,,,,,,,,,,,,3,9,10,11,0,0,1,0.9,0.1,2.1,10,match,36.05,324,361,397,0,0,9,9,9,0,0,,,,,2,0,2,0,0,17,17,37,,,,,num_3,0.7430648000445217,num_3,0.45,0.6,0.15000000000000008,0.75,5.40644,27.0322,return,5.458140200003982,,,,,,,19,24,female,up_down_width,2023_Oct_18_1454,exp1,2021.2.3,59.98703079597238,
,,,,,,,,,,,,,,,,3,9.5,10,10.5,0,0,0.5,0.4,0.1,1.1,10,initial,36.05,342,361,379,0,0,9,9,9,0,0,,,,,2,0,2,0,0,18,18,0,,,,,num_3,0.7511267000227235,num_3,0.2,0.5,0.15000000000000002,0.55,5.40644,19.82361,return,2.223913000023458,,,,,,,19,24,female,up_down_width,2023_Oct_18_1454,exp1,2021.2.3,59.98703079597238,
,,,,,,,,,,,,,,,,5,9,9.5,10,10.5,11,0.5,0.4,0.1,2.1,10,initial,36.05,324,342,361,379,397,9,9,9,9,9,,,,,2,0,2,0,0,19,19,36,,,,,num_5,0.8901674000080675,num_5,0.25,0.3,0.10000000000000002,0.4,3.60429,14.41717,return,2.3261168000171892,,,,,,,19,24,female,up_down_width,2023_Oct_18_1454,exp1,2021.2.3,59.98703079597238,
,,,,,,,,,,,,,,,,4,8.95,9.65,10.35,11.05,0,0.7,0.29999999999999993,0.4,2.5,10,initial,36.05,323,348,373,398,0,9,9,9,9,0,,,,,2,0,2,0,0,20,20,28,,,,,num_5,1.150659299979452,num_5,0.45,0.5,0.45,0.65,16.21932,23.4279,return,2.0958293000003323,,,,,,,19,24,female,up_down_width,2023_Oct_18_1454,exp1,2021.2.3,59.98703079597238,
,,,,,,,,,,,,,,,,4,9.5,9.833333333333334,10.166666666666666,10.5,0,0.3333333333333333,0.08333333333333333,0.25,1.25,10,match,36.05,342,354,367,379,0,9,9,9,9,0,,,,,2,0,2,0,0,21,21,3,,,,,num_4,0.9789297999814153,num_4,0.15,1.3,0.3,0.4,10.81288,14.41717,return,3.850224800000433,,,,,,,19,24,female,up_down_width,2023_Oct_18_1454,exp1,2021.2.3,59.98703079597238,
,,,,,,,,,,,,,,,,4,9.3,9.766666666666667,10.233333333333333,10.7,0,0.4666666666666667,0.06666666666666665,0.4,1.8,10,match,36.05,335,352,369,386,0,9,9,9,9,0,,,,,2,0,2,0,0,22,22,11,,,,,num_4,0.9861059000249952,num_4,0.25,1.3,0.35,0.5,12.61502,18.02146,return,3.0100499000400305,,,,,,,19,24,female,up_down_width,2023_Oct_18_1454,exp1,2021.2.3,59.98703079597238,
,,,,,,,,,,,,,,,,3,8.525,10,11.475,0,0,1.475,1.225,0.25,3.2,10,match,36.05,307,361,414,0,0,9,9,9,0,0,,,,,2,0,2,0,0,23,23,47,,,,,num_3,0.897175399994012,num_3,0.25,0.9,0.25,1.1,9.01073,39.64722,return,1.5012628000113182,,,,,,,19,24,female,up_down_width,2023_Oct_18_1454,exp1,2021.2.3,59.98703079597238,
,,,,,,,,,,,,,,,,4,9.5,9.833333333333334,10.166666666666666,10.5,0,0.33333333333333337,0.23333333333333336,0.1,1.1,10,match,36.05,342,354,367,379,0,9,9,9,9,0,,,,,2,0,2,0,0,24,24,1,,,,,num_4,0.867298299970571,num_4,0.4,0.6,0.15000000000000008,0.4,5.40644,14.41717,return,2.4161650999449193,,,,,,,19,24,female,up_down_width,2023_Oct_18_1454,exp1,2021.2.3,59.98703079597238,
,,,,,,,,,,,,,,,,3,9.5,10,10.5,0,0,0.5,0.25,0.25,1.25,10,initial,36.05,342,361,379,0,0,9,9,9,0,0,,,,,2,0,2,0,0,25,25,2,,,,,num_3,0.8239021000335924,num_3,0.45,0.6,0.25000000000000006,0.55,9.01073,19.82361,return,1.8619933999725617,,,,,,,19,24,female,up_down_width,2023_Oct_18_1454,exp1,2021.2.3,59.98703079597238,
,,,,,,,,,,,,,,,,5,8.6,9.3,10,10.7,11.4,0.7,0.29999999999999993,0.4,3.1999999999999997,10,initial,36.05,310,335,361,386,411,9,9,9,9,9,,,,,2,0,2,0,0,26,26,46,,,,,num_5,0.8080400000326335,num_5,0.4,1.2,0.4,0.65,14.41717,23.4279,return,3.509743700036779,,,,,,,19,24,female,up_down_width,2023_Oct_18_1454,exp1,2021.2.3,59.98703079597238,
,,,,,,,,,,,,,,,,5,8.65,9.325,10,10.675,11.35,0.675,0.42500000000000004,0.25,2.95,10,match,36.05,312,336,361,385,409,9,9,9,9,9,,,,,2,0,2,0,0,27,27,33,,,,,num_5,0.8743677000165917,num_5,0.3,0.6,0.3,0.95,10.81288,34.24078,return,1.6042919000028633,,,,,,,19,24,female,up_down_width,2023_Oct_18_1454,exp1,2021.2.3,59.98703079597238,
,,,,,,,,,,,,,,,,3,8.2,10,11.8,0,0,1.8,1.55,0.25,3.85,10,match,36.05,296,361,425,0,0,9,9,9,0,0,,,,,2,0,2,0,0,28,28,51,,,,,num_3,0.7669821999734268,num_3,0.2,0.6,0.2,1.5,7.20859,54.06439,return,4.175211499969009,,,,,,,19,24,female,up_down_width,2023_Oct_18_1454,exp1,2021.2.3,59.98703079597238,
,,,,,,,,,,,,,,,,3,8.2,10,11.8,0,0,1.7999999999999998,1.4,0.4,4,10,match,36.05,296,361,425,0,0,9,9,9,0,0,,,,,2,0,2,0,0,29,29,53,,,,,num_3,0.6925184999709018,num_3,0.45,0.9,0.30000000000000004,1.45,10.81288,52.26225,return,4.560993699997198,,,,,,,19,24,female,up_down_width,2023_Oct_18_1454,exp1,2021.2.3,59.98703079597238,
,,,,,,,,,,,,,,,,5,8.95,9.475,10,10.525,11.05,0.525,0.42500000000000004,0.1,2.2,10,match,36.05,323,342,361,379,398,9,9,9,9,9,,,,,2,0,2,0,0,30,30,25,,,,,num_5,0.9047612999565899,num_5,0.25,1.1,0.10000000000000002,0.75,3.60429,27.0322,return,2.899004500010051,,,,,,,19,24,female,up_down_width,2023_Oct_18_1454,exp1,2021.2.3,59.98703079597238,
,,,,,,,,,,,,,,,,4,9.25,9.75,10.25,10.75,0,0.5,0.09999999999999998,0.4,1.9,10,initial,36.05,333,351,370,388,0,9,9,9,9,0,,,,,2,0,2,0,0,31,31,22,,,,,num_5,0.763784900016617,num_5,0.4,1.1,0.30000000000000004,0.65,10.81288,23.4279,return,3.4850363000296056,,,,,,,19,24,female,up_down_width,2023_Oct_18_1454,exp1,2021.2.3,59.98703079597238,
,,,,,,,,,,,,,,,,5,8.6,9.3,10,10.7,11.4,0.7,0.44999999999999996,0.25,3.05,10,initial,36.05,310,335,361,386,411,9,9,9,9,9,,,,,2,0,2,0,0,32,32,44,,,,,num_5,0.8876793999806978,num_5,0.3,1.2,0.2,0.65,7.20859,23.4279,return,3.6667770000058226,,,,,,,19,24,female,up_down_width,2023_Oct_18_1454,exp1,2021.2.3,59.98703079597238,
,,,,,,,,,,,,,,,,5,8.2,9.1,10,10.9,11.8,0.9,0.5,0.4,4,10,initial,36.05,296,328,361,393,425,9,9,9,9,9,,,,,2,0,2,0,0,33,33,52,,,,,num_5,0.7173393999692053,num_5,0.45,0.7,0.45,0.9,16.21932,32.43864,return,1.1502602999680676,,,,,,,19,24,female,up_down_width,2023_Oct_18_1454,exp1,2021.2.3,59.98703079597238,
,,,,,,,,,,,,,,,,5,9.25,9.625,10,10.375,10.75,0.375,0.275,0.1,1.6,10,match,36.05,333,347,361,374,388,9,9,9,9,9,,,,,2,0,2,0,0,34,34,19,,,,,num_6,1.007789600000251,num_6,0.15,0.6,0.15,0.4,5.40644,14.41717,return,1.205723199993372,,,,,,,19,24,female,up_down_width,2023_Oct_18_1454,exp1,2021.2.3,59.98703079597238,
,,,,,,,,,,,,,,,,4,9.425,9.808333333333334,10.191666666666666,10.575,0,0.3833333333333333,0.1333333333333333,0.25,1.4,10,match,36.05,340,354,367,381,0,9,9,9,9,0,,,,,2,0,2,0,0,35,35,5,,,,,num_5,0.8498943999875337,num_5,0.15,0.9,0.2,0.45,7.20859,16.21932,return,2.5932599999941885,,,,,,,19,24,female,up_down_width,2023_Oct_18_1454,exp1,2021.2.3,59.98703079597238,
,,,,,,,,,,,,,,,,4,8.65,9.55,10.45,11.35,0,0.9,0.5,0.4,3.1,10,initial,36.05,312,344,377,409,0,9,9,9,9,0,,,,,2,0,2,0,0,36,36,34,,,,,num_5,0.7359677000204101,num_5,0.15,1.2,0.35,0.65,12.61502,23.4279,return,3.5702427999931388,,,,,,,19,24,female,up_down_width,2023_Oct_18_1454,exp1,2021.2.3,59.98703079597238,
,,,,,,,,,,,,,,,,4,9.25,9.75,10.25,10.75,0,0.5,0.4,0.1,1.6,10,initial,36.05,333,351,370,388,0,9,9,9,9,0,,,,,2,0,2,0,0,37,37,18,,,,,num_5,0.8052492000279017,num_5,0.4,0.7,0.15000000000000008,0.6,5.40644,21.62576,return,2.258165600011125,,,,,,,19,24,female,up_down_width,2023_Oct_18_1454,exp1,2021.2.3,59.98703079597238,
,,,,,,,,,,,,,,,,3,9.1,10,10.9,0,0,0.9,0.65,0.25,2.05,10,initial,36.05,328,361,393,0,0,9,9,9,0,0,,,,,2,0,2,0,0,38,38,14,,,,,num_3,0.818345199979376,num_3,0.25,0.6,0.15000000000000002,0.75,5.40644,27.0322,return,2.9599607000127435,,,,,,,19,24,female,up_down_width,2023_Oct_18_1454,exp1,2021.2.3,59.98703079597238,
,,,,,,,,,,,,,,,,3,8.2,10,11.8,0,0,1.8000000000000003,1.7000000000000002,0.1,3.7,10,match,36.05,296,361,425,0,0,9,9,9,0,0,,,,,2,0,2,0,0,39,39,49,,,,,num_3,0.6579122000257485,num_3,0.3,0.7,0.15000000000000002,1.4,5.40644,50.4601,return,3.720560099987779,,,,,,,19,24,female,up_down_width,2023_Oct_18_1454,exp1,2021.2.3,59.98703079597238,
,,,,,,,,,,,,,,,,5,9.175,9.5875,10,10.4125,10.825,0.4125,0.16249999999999998,0.25,1.9,10,match,36.05,331,346,361,375,390,9,9,9,9,9,,,,,2,0,2,0,0,40,40,23,,,,,num_4,1.2465892999898642,num_4,0.35,1.2,0.35,0.6,12.61502,21.62576,return,3.020564700011164,,,,,,,19,24,female,up_down_width,2023_Oct_18_1454,exp1,2021.2.3,59.98703079597238,
,,,,,,,,,,,,,,,,5,8.95,9.475,10,10.525,11.05,0.525,0.275,0.25,2.35,10,match,36.05,323,342,361,379,398,9,9,9,9,9,,,,,2,0,2,0,0,41,41,27,,,,,num_5,1.0018780999816954,num_5,0.2,0.4,0.2,0.6,7.20859,21.62576,return,1.7129933999967761,,,,,,,19,24,female,up_down_width,2023_Oct_18_1454,exp1,2021.2.3,59.98703079597238,
,,,,,,,,,,,,,,,,3,9.3,10,10.7,0,0,0.7,0.29999999999999993,0.4,1.8,10,initial,36.05,335,361,386,0,0,9,9,9,0,0,,,,,2,0,2,0,0,42,42,10,,,,,num_3,0.74535320000723,num_3,0.2,0.4,0.3,0.55,10.81288,19.82361,return,1.8019447000115179,,,,,,,19,24,female,up_down_width,2023_Oct_18_1454,exp1,2021.2.3,59.98703079597238,
,,,,,,,,,,,,,,,,5,8.65,9.325,10,10.675,11.35,0.675,0.275,0.4,3.1,10,match,36.05,312,336,361,385,409,9,9,9,9,9,,,,,2,0,2,0,0,43,43,35,,,,,num_5,0.7991739999852143,num_5,0.45,1.1,0.45,0.7,16.21932,25.23005,return,2.750498199951835,,,,,,,19,24,female,up_down_width,2023_Oct_18_1454,exp1,2021.2.3,59.98703079597238,
,,,,,,,,,,,,,,,,3,9.3,10,10.7,0,0,0.7,0.6,0.1,1.5,10,initial,36.05,335,361,386,0,0,9,9,9,0,0,,,,,2,0,2,0,0,44,44,6,,,,,num_3,0.7552016000263393,num_3,0.45,0.6,0.15000000000000008,0.7,5.40644,25.23005,return,2.917923900007736,,,,,,,19,24,female,up_down_width,2023_Oct_18_1454,exp1,2021.2.3,59.98703079597238,
,,,,,,,,,,,,,,,,4,9.1,9.7,10.3,10.9,0,0.6,0.5,0.1,1.9,10,match,36.05,328,350,371,393,0,9,9,9,9,0,,,,,2,0,2,0,0,45,45,13,,,,,num_4,0.8119703000411391,num_4,0.1,0.3,0.05,0.8,1.80215,28.83434,return,2.0763790999772027,,,,,,,19,24,female,up_down_width,2023_Oct_18_1454,exp1,2021.2.3,59.98703079597238,
,,,,,,,,,,,,,,,,5,9,9.5,10,10.5,11,0.5,0.25,0.25,2.25,10,initial,36.05,324,342,361,379,397,9,9,9,9,9,,,,,2,0,2,0,0,46,46,38,,,,,num_5,0.7719408000120893,num_5,0.4,0.9,0.25000000000000006,0.6,9.01073,21.62576,return,2.5182232999941334,,,,,,,19,24,female,up_down_width,2023_Oct_18_1454,exp1,2021.2.3,59.98703079597238,
,,,,,,,,,,,,,,,,3,9.1,10,10.9,0,0,0.9,0.8,0.1,1.9000000000000001,10,initial,36.05,328,361,393,0,0,9,9,9,0,0,,,,,2,0,2,0,0,47,47,12,,,,,num_3,0.7641535999719054,num_3,0.15,0.4,0.15,0.85,5.40644,30.63649,return,2.621153299987782,,,,,,,19,24,female,up_down_width,2023_Oct_18_1454,exp1,2021.2.3,59.98703079597238,
,,,,,,,,,,,,,,,,4,9.1,9.7,10.3,10.9,0,0.5999999999999999,0.3499999999999999,0.25,2.05,10,match,36.05,328,350,371,393,0,9,9,9,9,0,,,,,2,0,2,0,0,48,48,15,,,,,num_4,1.9727037000120617,num_4,0.4,1.1,0.25000000000000006,0.8,9.01073,28.83434,return,2.8681738000013866,,,,,,,19,24,female,up_down_width,2023_Oct_18_1454,exp1,2021.2.3,59.98703079597238,
,,,,,,,,,,,,,,,,4,9.3,9.766666666666667,10.233333333333333,10.7,0,0.4666666666666667,0.3666666666666667,0.1,1.5,10,match,36.05,335,352,369,386,0,9,9,9,9,0,,,,,2,0,2,0,0,49,49,7,,,,,num_4,0.8946222999948077,num_4,0.2,0.8,0.25,0.6,9.01073,21.62576,return,2.0904058000305668,,,,,,,19,24,female,up_down_width,2023_Oct_18_1454,exp1,2021.2.3,59.98703079597238,
,,,,,,,,,,,,,,,,3,9,10,11,0,0,0.9999999999999999,0.5999999999999999,0.4,2.4,10,match,36.05,324,361,397,0,0,9,9,9,0,0,,,,,2,0,2,0,0,50,50,41,,,,,num_3,0.790668600006029,num_3,0.35,1.2,0.35,1.3,12.61502,46.85581,return,1.0616185999824665,,,,,,,19,24,female,up_down_width,2023_Oct_18_1454,exp1,2021.2.3,59.98703079597238,
,,,,,,,,,,,,,,,,4,8.65,9.55,10.45,11.35,0,0.9,0.8,0.1,2.8000000000000003,10,initial,36.05,312,344,377,409,0,9,9,9,9,0,,,,,2,0,2,0,0,51,51,30,,,,,num_4,0.9088218999677338,num_4,0.1,0.8,0.1,1.0,3.60429,36.04293,return,0.9348309999913909,,,,,,,19,24,female,up_down_width,2023_Oct_18_1454,exp1,2021.2.3,59.98703079597238,
,,,,,,,,,,,,,,,,5,8.6,9.3,10,10.7,11.4,0.7,0.6,0.1,2.9,10,initial,36.05,310,335,361,386,411,9,9,9,9,9,,,,,2,0,2,0,0,52,52,42,,,,,num_5,0.8826539000147022,num_5,0.3,1.3,0.10000000000000002,1.35,3.60429,48.65795,return,1.5992503000306897,,,,,,,19,24,female,up_down_width,2023_Oct_18_1454,exp1,2021.2.3,59.98703079597238,
,,,,,,,,,,,,,,,,4,8.95,9.65,10.35,11.05,0,0.7,0.44999999999999996,0.25,2.3499999999999996,10,initial,36.05,323,348,373,398,0,9,9,9,9,0,,,,,2,0,2,0,0,53,53,26,,,,,num_4,0.8372575999819674,num_4,0.25,0.6,0.2,0.8,7.20859,28.83434,return,2.048720200022217,,,,,,,19,24,female,up_down_width,2023_Oct_18_1454,exp1,2021.2.3,59.98703079597238,
,,,,,,,,,,,,,,,,,,,,,,,,,,,,,,,,,,,,,,,,,,,2,0,2,0,,,,,,,,,,,,,,,,,,,,,,2039.2033598999842,None,2039.2033598999842,None,19,24,female,up_down_width,2023_Oct_18_1454,exp1,2021.2.3,59.98703079597238,
,,,,,,,,,,,,,,,,5,8.6,9.3,10,10.7,11.4,0.7,0.6,0.1,2.9,10,initial,36.05,310,335,361,386,411,9,9,9,9,9,,,,,3,0,3,0,0,0,0,42,,,,,num_5,0.7813865000498481,num_5,0.35,1.1,0.15000000000000002,0.9,5.40644,32.43864,return,3.005221100000199,,,,,,,19,24,female,up_down_width,2023_Oct_18_1454,exp1,2021.2.3,59.98703079597238,
,,,,,,,,,,,,,,,,4,9.425,9.808333333333334,10.191666666666666,10.575,0,0.3833333333333333,0.1333333333333333,0.25,1.4,10,match,36.05,340,354,367,381,0,9,9,9,9,0,,,,,3,0,3,0,0,1,1,5,,,,,num_4,0.7593314999830909,num_4,0.45,0.6,0.30000000000000004,0.5,10.81288,18.02146,return,3.7524089999496937,,,,,,,19,24,female,up_down_width,2023_Oct_18_1454,exp1,2021.2.3,59.98703079597238,
,,,,,,,,,,,,,,,,3,8.2,10,11.8,0,0,1.8,1.55,0.25,3.85,10,match,36.05,296,361,425,0,0,9,9,9,0,0,,,,,3,0,3,0,0,2,2,51,,,,,num_3,0.7185944999800995,num_3,0.25,1.1,0.25,1.5,9.01073,54.06439,return,1.8068540000240318,,,,,,,19,24,female,up_down_width,2023_Oct_18_1454,exp1,2021.2.3,59.98703079597238,
,,,,,,,,,,,,,,,,5,8.6,9.3,10,10.7,11.4,0.7,0.44999999999999996,0.25,3.05,10,initial,36.05,310,335,361,386,411,9,9,9,9,9,,,,,3,0,3,0,0,3,3,44,,,,,num_5,0.9446173000033014,num_5,0.35,0.5,0.25,0.7,9.01073,25.23005,return,1.9452406999771483,,,,,,,19,24,female,up_down_width,2023_Oct_18_1454,exp1,2021.2.3,59.98703079597238,
,,,,,,,,,,,,,,,,5,8.6,9.3,10,10.7,11.4,0.7,0.29999999999999993,0.4,3.1999999999999997,10,initial,36.05,310,335,361,386,411,9,9,9,9,9,,,,,3,0,3,0,0,4,4,46,,,,,num_5,0.850272000010591,num_5,0.4,0.6,0.30000000000000004,0.65,10.81288,23.4279,return,2.4638337999931537,,,,,,,19,24,female,up_down_width,2023_Oct_18_1454,exp1,2021.2.3,59.98703079597238,
,,,,,,,,,,,,,,,,3,8.2,10,11.8,0,0,1.8000000000000003,1.7000000000000002,0.1,3.7,10,match,36.05,296,361,425,0,0,9,9,9,0,0,,,,,3,0,3,0,0,5,5,49,,,,,num_3,0.704549300018698,num_3,0.25,1,0.15000000000000002,1.35,5.40644,48.65795,return,2.9786525999661535,,,,,,,19,24,female,up_down_width,2023_Oct_18_1454,exp1,2021.2.3,59.98703079597238,
,,,,,,,,,,,,,,,,3,8.6,10,11.4,0,0,1.4,1.2999999999999998,0.1,2.9,10,match,36.05,310,361,411,0,0,9,9,9,0,0,,,,,3,0,3,0,0,6,6,43,,,,,num_3,0.6809408999979496,num_3,0.35,0.6,0.15000000000000002,1.5,5.40644,54.06439,return,4.141340799978934,,,,,,,19,24,female,up_down_width,2023_Oct_18_1454,exp1,2021.2.3,59.98703079597238,
,,,,,,,,,,,,,,,,4,9.3,9.766666666666667,10.233333333333333,10.7,0,0.4666666666666667,0.21666666666666665,0.25,1.65,10,match,36.05,335,352,369,386,0,9,9,9,9,0,,,,,3,0,3,0,0,7,7,9,,,,,num_4,0.8553204999770969,num_4,0.15,0.6,0.25,0.5,9.01073,18.02146,return,2.6253436999977566,,,,,,,19,24,female,up_down_width,2023_Oct_18_1454,exp1,2021.2.3,59.98703079597238,
,,,,,,,,,,,,,,,,4,9.25,9.75,10.25,10.75,0,0.5,0.25,0.25,1.75,10,initial,36.05,333,351,370,388,0,9,9,9,9,0,,,,,3,0,3,0,0,8,8,20,,,,,num_4,0.8290658000041731,num_4,0.3,0.8,0.3,0.5,10.81288,18.02146,return,1.4827056000358425,,,,,,,19,24,female,up_down_width,2023_Oct_18_1454,exp1,2021.2.3,59.98703079597238,
,,,,,,,,,,,,,,,,3,8.6,10,11.4,0,0,1.4,1.15,0.25,3.05,10,match,36.05,310,361,411,0,0,9,9,9,0,0,,,,,3,0,3,0,0,9,9,45,,,,,num_3,0.6966902999556623,num_3,0.2,0.4,0.2,1.35,7.20859,48.65795,return,4.107003999990411,,,,,,,19,24,female,up_down_width,2023_Oct_18_1454,exp1,2021.2.3,59.98703079597238,
,,,,,,,,,,,,,,,,4,8.95,9.65,10.35,11.05,0,0.7,0.44999999999999996,0.25,2.3499999999999996,10,initial,36.05,323,348,373,398,0,9,9,9,9,0,,,,,3,0,3,0,0,10,10,26,,,,,num_4,0.8081565000466071,num_4,0.2,0.5,0.2,0.8,7.20859,28.83434,return,1.267845100024715,,,,,,,19,24,female,up_down_width,2023_Oct_18_1454,exp1,2021.2.3,59.98703079597238,
,,,,,,,,,,,,,,,,3,9.1,10,10.9,0,0,0.9,0.5,0.4,2.2,10,initial,36.05,328,361,393,0,0,9,9,9,0,0,,,,,3,0,3,0,0,11,11,16,,,,,num_4,0.76471809996292,num_4,0.4,1.0,0.4,0.7,14.41717,25.23005,return,2.285965099988971,,,,,,,19,24,female,up_down_width,2023_Oct_18_1454,exp1,2021.2.3,59.98703079597238,
,,,,,,,,,,,,,,,,5,8.95,9.475,10,10.525,11.05,0.525,0.125,0.4,2.5,10,match,36.05,323,342,361,379,398,9,9,9,9,9,,,,,3,0,3,0,0,12,12,29,,,,,num_5,0.8685824000276625,num_5,0.2,0.6,0.35,0.6,12.61502,21.62576,return,3.089591099997051,,,,,,,19,24,female,up_down_width,2023_Oct_18_1454,exp1,2021.2.3,59.98703079597238,
,,,,,,,,,,,,,,,,3,9.5,10,10.5,0,0,0.5,0.25,0.25,1.25,10,initial,36.05,342,361,379,0,0,9,9,9,0,0,,,,,3,0,3,0,0,13,13,2,,,,,num_3,0.9780109999701381,num_3,0.3,0.4,0.3,0.45,10.81288,16.21932,return,1.0829843999817967,,,,,,,19,24,female,up_down_width,2023_Oct_18_1454,exp1,2021.2.3,59.98703079597238,
,,,,,,,,,,,,,,,,4,9.1,9.7,10.3,10.9,0,0.6,0.5,0.1,1.9,10,match,36.05,328,350,371,393,0,9,9,9,9,0,,,,,3,0,3,0,0,14,14,13,,,,,num_4,0.763197600026615,num_4,0.2,0.3,0.05000000000000002,0.5,1.80215,18.02146,return,1.8823022000142373,,,,,,,19,24,female,up_down_width,2023_Oct_18_1454,exp1,2021.2.3,59.98703079597238,
,,,,,,,,,,,,,,,,4,9.25,9.75,10.25,10.75,0,0.5,0.4,0.1,1.6,10,initial,36.05,333,351,370,388,0,9,9,9,9,0,,,,,3,0,3,0,0,15,15,18,,,,,num_5,0.979264100024011,num_5,0.4,1.0,0.15000000000000008,0.6,5.40644,21.62576,return,4.202743300003931,,,,,,,19,24,female,up_down_width,2023_Oct_18_1454,exp1,2021.2.3,59.98703079597238,
,,,,,,,,,,,,,,,,4,8.65,9.55,10.45,11.35,0,0.9,0.5,0.4,3.1,10,initial,36.05,312,344,377,409,0,9,9,9,9,0,,,,,3,0,3,0,0,16,16,34,,,,,num_4,0.7560113999643363,num_4,0.45,0.8,0.45,0.8,16.21932,28.83434,return,0.8050559000112116,,,,,,,19,24,female,up_down_width,2023_Oct_18_1454,exp1,2021.2.3,59.98703079597238,
,,,,,,,,,,,,,,,,5,8.65,9.325,10,10.675,11.35,0.675,0.42500000000000004,0.25,2.95,10,match,36.05,312,336,361,385,409,9,9,9,9,9,,,,,3,0,3,0,0,17,17,33,,,,,num_5,0.8593177999719046,num_5,0.15,0.6,0.25,0.6,9.01073,21.62576,return,2.248288400005549,,,,,,,19,24,female,up_down_width,2023_Oct_18_1454,exp1,2021.2.3,59.98703079597238,
,,,,,,,,,,,,,,,,3,9.5,10,10.5,0,0,0.5,0.4,0.1,1.1,10,initial,36.05,342,361,379,0,0,9,9,9,0,0,,,,,3,0,3,0,0,18,18,0,,,,,num_3,0.7904720999649726,num_3,0.35,0.4,0.10000000000000002,0.6,3.60429,21.62576,return,3.5740583000006154,,,,,,,19,24,female,up_down_width,2023_Oct_18_1454,exp1,2021.2.3,59.98703079597238,
,,,,,,,,,,,,,,,,4,9.25,9.75,10.25,10.75,0,0.5,0.09999999999999998,0.4,1.9,10,initial,36.05,333,351,370,388,0,9,9,9,9,0,,,,,3,0,3,0,0,19,19,22,,,,,num_3,1.1031389000127092,num_3,0.3,0.6,0.39999999999999997,0.6,14.41717,21.62576,return,1.4572318000136875,,,,,,,19,24,female,up_down_width,2023_Oct_18_1454,exp1,2021.2.3,59.98703079597238,
,,,,,,,,,,,,,,,,3,8.2,10,11.8,0,0,1.7999999999999998,1.4,0.4,4,10,match,36.05,296,361,425,0,0,9,9,9,0,0,,,,,3,0,3,0,0,20,20,53,,,,,num_3,0.71778229996562,num_3,0.3,1.1,0.3,1.7,10.81288,61.27298,return,3.2170249999617226,,,,,,,19,24,female,up_down_width,2023_Oct_18_1454,exp1,2021.2.3,59.98703079597238,
,,,,,,,,,,,,,,,,4,9.3,9.766666666666667,10.233333333333333,10.7,0,0.4666666666666667,0.3666666666666667,0.1,1.5,10,match,36.05,335,352,369,386,0,9,9,9,9,0,,,,,3,0,3,0,0,21,21,7,,,,,num_4,0.8025849000550807,num_4,0.35,0.8,0.15000000000000002,0.6,5.40644,21.62576,return,2.495563599979505,,,,,,,19,24,female,up_down_width,2023_Oct_18_1454,exp1,2021.2.3,59.98703079597238,
,,,,,,,,,,,,,,,,4,8.65,9.55,10.45,11.35,0,0.9,0.8,0.1,2.8000000000000003,10,initial,36.05,312,344,377,409,0,9,9,9,9,0,,,,,3,0,3,0,0,22,22,30,,,,,num_4,0.9900911999866366,num_4,0.1,0.6,0.1,0.9,3.60429,32.43864,return,1.4618948000133969,,,,,,,19,24,female,up_down_width,2023_Oct_18_1454,exp1,2021.2.3,59.98703079597238,
,,,,,,,,,,,,,,,,3,9.5,10,10.5,0,0,0.5,0.09999999999999998,0.4,1.4000000000000001,10,initial,36.05,342,361,379,0,0,9,9,9,0,0,,,,,3,0,3,0,0,23,23,4,,,,,num_3,0.7315684999921359,num_3,0.15,1,0.44999999999999996,0.75,16.21932,27.0322,return,3.4376648999750614,,,,,,,19,24,female,up_down_width,2023_Oct_18_1454,exp1,2021.2.3,59.98703079597238,
,,,,,,,,,,,,,,,,3,9.3,10,10.7,0,0,0.7,0.44999999999999996,0.25,1.65,10,initial,36.05,335,361,386,0,0,9,9,9,0,0,,,,,3,0,3,0,0,24,24,8,,,,,num_3,0.8105560000403784,num_3,0.15,0.5,0.35,0.6,12.61502,21.62576,return,2.27879460004624,,,,,,,19,24,female,up_down_width,2023_Oct_18_1454,exp1,2021.2.3,59.98703079597238,
,,,,,,,,,,,,,,,,5,9,9.5,10,10.5,11,0.5,0.09999999999999998,0.4,2.4,10,initial,36.05,324,342,361,379,397,9,9,9,9,9,,,,,3,0,3,0,0,25,25,40,,,,,num_5,1.670716899971012,num_5,0.15,0.3,0.35,0.65,12.61502,23.4279,return,3.3626524999854155,,,,,,,19,24,female,up_down_width,2023_Oct_18_1454,exp1,2021.2.3,59.98703079597238,
,,,,,,,,,,,,,,,,5,8.95,9.475,10,10.525,11.05,0.525,0.275,0.25,2.35,10,match,36.05,323,342,361,379,398,9,9,9,9,9,,,,,3,0,3,0,0,26,26,27,,,,,num_5,0.8185325000085868,num_5,0.45,0.8,0.30000000000000004,0.5,10.81288,18.02146,return,2.862892600009218,,,,,,,19,24,female,up_down_width,2023_Oct_18_1454,exp1,2021.2.3,59.98703079597238,
,,,,,,,,,,,,,,,,5,8.65,9.325,10,10.675,11.35,0.675,0.275,0.4,3.1,10,match,36.05,312,336,361,385,409,9,9,9,9,9,,,,,3,0,3,0,0,27,27,35,,,,,num_5,0.8806874000001699,num_5,0.15,0.9,0.44999999999999996,0.95,16.21932,34.24078,return,3.0850945000420325,,,,,,,19,24,female,up_down_width,2023_Oct_18_1454,exp1,2021.2.3,59.98703079597238,
,,,,,,,,,,,,,,,,5,8.65,9.325,10,10.675,11.35,0.6749999999999999,0.575,0.1,2.8,10,match,36.05,312,336,361,385,409,9,9,9,9,9,,,,,3,0,3,0,0,28,28,31,,,,,num_5,0.8839866999769583,num_5,0.15,1.1,0.15,1.1,5.40644,39.64722,return,0.8488460999797098,,,,,,,19,24,female,up_down_width,2023_Oct_18_1454,exp1,2021.2.3,59.98703079597238,
,,,,,,,,,,,,,,,,3,9,10,11,0,0,1,0.75,0.25,2.25,10,match,36.05,324,361,397,0,0,9,9,9,0,0,,,,,3,0,3,0,0,29,29,39,,,,,num_3,0.7568357000127435,num_3,0.45,1.2,0.45,1.2,16.21932,43.25151,return,0.34105429996270686,,,,,,,19,24,female,up_down_width,2023_Oct_18_1454,exp1,2021.2.3,59.98703079597238,
,,,,,,,,,,,,,,,,5,8.95,9.475,10,10.525,11.05,0.525,0.42500000000000004,0.1,2.2,10,match,36.05,323,342,361,379,398,9,9,9,9,9,,,,,3,0,3,0,0,30,30,25,,,,,num_5,0.73574329999974,num_5,0.15,0.7,0.15,0.7,5.40644,25.23005,return,0.594650300045032,,,,,,,19,24,female,up_down_width,2023_Oct_18_1454,exp1,2021.2.3,59.98703079597238,
,,,,,,,,,,,,,,,,3,8.525,10,11.475,0,0,1.475,1.225,0.25,3.2,10,match,36.05,307,361,414,0,0,9,9,9,0,0,,,,,3,0,3,0,0,31,31,47,,,,,num_3,0.6939935000264086,num_3,0.45,1.3,0.30000000000000004,1.35,10.81288,48.65795,return,1.6573045999975875,,,,,,,19,24,female,up_down_width,2023_Oct_18_1454,exp1,2021.2.3,59.98703079597238,
,,,,,,,,,,,,,,,,4,9.1,9.7,10.3,10.9,0,0.6000000000000001,0.20000000000000004,0.4,2.2,10,match,36.05,328,350,371,393,0,9,9,9,9,0,,,,,3,0,3,0,0,32,32,17,,,,,num_5,0.7273551999824122,num_5,0.45,0.5,0.35000000000000003,0.6,12.61502,21.62576,return,2.264949699980207,,,,,,,19,24,female,up_down_width,2023_Oct_18_1454,exp1,2021.2.3,59.98703079597238,
,,,,,,,,,,,,,,,,5,9.25,9.625,10,10.375,10.75,0.375,0.275,0.1,1.6,10,match,36.05,333,347,361,374,388,9,9,9,9,9,,,,,3,0,3,0,0,33,33,19,,,,,num_5,0.8476373000303283,num_5,0.15,1.1,0.15,0.55,5.40644,19.82361,return,3.3410532000125386,,,,,,,19,24,female,up_down_width,2023_Oct_18_1454,exp1,2021.2.3,59.98703079597238,
,,,,,,,,,,,,,,,,3,9,10,11,0,0,0.9999999999999999,0.5999999999999999,0.4,2.4,10,match,36.05,324,361,397,0,0,9,9,9,0,0,,,,,3,0,3,0,0,34,34,41,,,,,num_3,0.6812802000204101,num_3,0.45,1.1,0.45,1.25,16.21932,45.05366,return,1.0058300999808125,,,,,,,19,24,female,up_down_width,2023_Oct_18_1454,exp1,2021.2.3,59.98703079597238,
,,,,,,,,,,,,,,,,5,9,9.5,10,10.5,11,0.5,0.25,0.25,2.25,10,initial,36.05,324,342,361,379,397,9,9,9,9,9,,,,,3,0,3,0,0,35,35,38,,,,,num_5,0.791285399987828,num_5,0.15,0.5,0.2,0.4,7.20859,14.41717,return,1.5416972999810241,,,,,,,19,24,female,up_down_width,2023_Oct_18_1454,exp1,2021.2.3,59.98703079597238,
,,,,,,,,,,,,,,,,4,8.65,9.55,10.45,11.35,0,0.9,0.65,0.25,2.95,10,initial,36.05,312,344,377,409,0,9,9,9,9,0,,,,,3,0,3,0,0,36,36,32,,,,,num_4,0.7773096999735571,num_4,0.25,0.8,0.25,0.7,9.01073,25.23005,return,1.1451322000357322,,,,,,,19,24,female,up_down_width,2023_Oct_18_1454,exp1,2021.2.3,59.98703079597238,
,,,,,,,,,,,,,,,,4,8.95,9.65,10.35,11.05,0,0.7,0.29999999999999993,0.4,2.5,10,initial,36.05,323,348,373,398,0,9,9,9,9,0,,,,,3,0,3,0,0,37,37,28,,,,,num_4,0.7959359000087716,num_4,0.4,1.1,0.4,0.6,14.41717,21.62576,return,1.3860426000319421,,,,,,,19,24,female,up_down_width,2023_Oct_18_1454,exp1,2021.2.3,59.98703079597238,
,,,,,,,,,,,,,,,,3,9.3,10,10.7,0,0,0.7,0.29999999999999993,0.4,1.8,10,initial,36.05,335,361,386,0,0,9,9,9,0,0,,,,,3,0,3,0,0,38,38,10,,,,,num_3,0.7086223000078462,num_3,0.25,0.5,0.35,0.75,12.61502,27.0322,return,2.5837321000290103,,,,,,,19,24,female,up_down_width,2023_Oct_18_1454,exp1,2021.2.3,59.98703079597238,
,,,,,,,,,,,,,,,,4,9.1,9.7,10.3,10.9,0,0.5999999999999999,0.3499999999999999,0.25,2.05,10,match,36.05,328,350,371,393,0,9,9,9,9,0,,,,,3,0,3,0,0,39,39,15,,,,,num_4,0.7166189000126906,num_4,0.35,0.8,0.3,0.6,10.81288,21.62576,return,2.159724500030279,,,,,,,19,24,female,up_down_width,2023_Oct_18_1454,exp1,2021.2.3,59.98703079597238,
,,,,,,,,,,,,,,,,3,9,10,11,0,0,1,0.9,0.1,2.1,10,match,36.05,324,361,397,0,0,9,9,9,0,0,,,,,3,0,3,0,0,40,40,37,,,,,num_3,0.6892226000200026,num_3,0.15,1.3,0.15,1.15,5.40644,41.44937,return,1.457692500029225,,,,,,,19,24,female,up_down_width,2023_Oct_18_1454,exp1,2021.2.3,59.98703079597238,
,,,,,,,,,,,,,,,,5,9.175,9.5875,10,10.4125,10.825,0.4125,0.16249999999999998,0.25,1.9,10,match,36.05,331,346,361,375,390,9,9,9,9,9,,,,,3,0,3,0,0,41,41,23,,,,,num_5,0.7545458999811672,num_5,0.35,1.0,0.3,0.6,10.81288,21.62576,return,2.5789988999604248,,,,,,,19,24,female,up_down_width,2023_Oct_18_1454,exp1,2021.2.3,59.98703079597238,
,,,,,,,,,,,,,,,,5,8.2,9.1,10,10.9,11.8,0.9,0.8,0.1,3.7,10,initial,36.05,296,328,361,393,425,9,9,9,9,9,,,,,3,0,3,0,0,42,42,48,,,,,num_5,0.7446124000125565,num_5,0.35,0.9,0.10000000000000002,1.0,3.60429,36.04293,return,1.6580927000031807,,,,,,,19,24,female,up_down_width,2023_Oct_18_1454,exp1,2021.2.3,59.98703079597238,
,,,,,,,,,,,,,,,,3,9.3,10,10.7,0,0,0.7,0.6,0.1,1.5,10,initial,36.05,335,361,386,0,0,9,9,9,0,0,,,,,3,0,3,0,0,43,43,6,,,,,num_3,0.6719100000336766,num_3,0.35,0.9,0.10000000000000002,0.85,3.60429,30.63649,return,1.9254362999927253,,,,,,,19,24,female,up_down_width,2023_Oct_18_1454,exp1,2021.2.3,59.98703079597238,
,,,,,,,,,,,,,,,,5,8.2,9.1,10,10.9,11.8,0.9,0.65,0.25,3.85,10,initial,36.05,296,328,361,393,425,9,9,9,9,9,,,,,3,0,3,0,0,44,44,50,,,,,num_5,0.719311699969694,num_5,0.3,0.6,0.15000000000000002,0.85,5.40644,30.63649,return,2.721264199994039,,,,,,,19,24,female,up_down_width,2023_Oct_18_1454,exp1,2021.2.3,59.98703079597238,
,,,,,,,,,,,,,,,,5,8.2,9.1,10,10.9,11.8,0.9,0.5,0.4,4,10,initial,36.05,296,328,361,393,425,9,9,9,9,9,,,,,3,0,3,0,0,45,45,52,,,,,num_5,0.7953367000445724,num_5,0.1,1.2,0.44999999999999996,1.2,16.21932,43.25151,return,2.7360408999957144,,,,,,,19,24,female,up_down_width,2023_Oct_18_1454,exp1,2021.2.3,59.98703079597238,
,,,,,,,,,,,,,,,,4,9.5,9.833333333333334,10.166666666666666,10.5,0,0.3333333333333333,0.08333333333333333,0.25,1.25,10,match,36.05,342,354,367,379,0,9,9,9,9,0,,,,,3,0,3,0,0,46,46,3,,,,,num_4,0.8480261999648064,num_4,0.3,1.3,0.35,0.5,12.61502,18.02146,return,3.213120899978094,,,,,,,19,24,female,up_down_width,2023_Oct_18_1454,exp1,2021.2.3,59.98703079597238,
,,,,,,,,,,,,,,,,4,9.3,9.766666666666667,10.233333333333333,10.7,0,0.4666666666666667,0.06666666666666665,0.4,1.8,10,match,36.05,335,352,369,386,0,9,9,9,9,0,,,,,3,0,3,0,0,47,47,11,,,,,num_4,0.9153042999678291,num_4,0.45,1.2,0.45,0.6,16.21932,21.62576,return,2.9094555000192486,,,,,,,19,24,female,up_down_width,2023_Oct_18_1454,exp1,2021.2.3,59.98703079597238,
,,,,,,,,,,,,,,,,5,9.25,9.625,10,10.375,10.75,0.375,0.125,0.25,1.75,10,match,36.05,333,347,361,374,388,9,9,9,9,9,,,,,3,0,3,0,0,48,48,21,,,,,num_5,1.0039899999974295,num_5,0.3,0.9,0.3,0.4,10.81288,14.41717,return,3.3930113000096753,,,,,,,19,24,female,up_down_width,2023_Oct_18_1454,exp1,2021.2.3,59.98703079597238,
,,,,,,,,,,,,,,,,3,9.1,10,10.9,0,0,0.9,0.8,0.1,1.9000000000000001,10,initial,36.05,328,361,393,0,0,9,9,9,0,0,,,,,3,0,3,0,0,49,49,12,,,,,num_3,0.6796324999886565,num_3,0.2,1.2,0.10000000000000002,0.95,3.60429,34.24078,return,2.2348098999937065,,,,,,,19,24,female,up_down_width,2023_Oct_18_1454,exp1,2021.2.3,59.98703079597238,
,,,,,,,,,,,,,,,,4,9.5,9.833333333333334,10.166666666666666,10.5,0,0.33333333333333337,0.23333333333333336,0.1,1.1,10,match,36.05,342,354,367,379,0,9,9,9,9,0,,,,,3,0,3,0,0,50,50,1,,,,,num_3,0.7946923999697901,num_3,0.35,0.4,0.10000000000000002,0.35,3.60429,12.61502,return,2.1238196999765933,,,,,,,19,24,female,up_down_width,2023_Oct_18_1454,exp1,2021.2.3,59.98703079597238,
,,,,,,,,,,,,,,,,5,9,9.5,10,10.5,11,0.5,0.4,0.1,2.1,10,initial,36.05,324,342,361,379,397,9,9,9,9,9,,,,,3,0,3,0,0,51,51,36,,,,,num_5,0.8492940000141971,num_5,0.45,0.6,0.10000000000000007,0.4,3.60429,14.41717,return,2.686155100003816,,,,,,,19,24,female,up_down_width,2023_Oct_18_1454,exp1,2021.2.3,59.98703079597238,
,,,,,,,,,,,,,,,,3,9.1,10,10.9,0,0,0.9,0.65,0.25,2.05,10,initial,36.05,328,361,393,0,0,9,9,9,0,0,,,,,3,0,3,0,0,52,52,14,,,,,num_3,0.7323008999810554,num_3,0.3,0.5,0.15000000000000002,0.85,5.40644,30.63649,return,2.589891700015869,,,,,,,19,24,female,up_down_width,2023_Oct_18_1454,exp1,2021.2.3,59.98703079597238,
,,,,,,,,,,,,,,,,4,8.95,9.65,10.35,11.05,0,0.7,0.6,0.1,2.1999999999999997,10,initial,36.05,323,348,373,398,0,9,9,9,9,0,,,,,3,0,3,0,0,53,53,24,,,,,num_4,0.7810037999879569,num_4,0.1,1.2,0.1,0.8,3.60429,28.83434,return,1.3399500999948941,,,,,,,19,24,female,up_down_width,2023_Oct_18_1454,exp1,2021.2.3,59.98703079597238,
,,,,,,,,,,,,,,,,,,,,,,,,,,,,,,,,,,,,,,,,,,,3,0,3,0,,,,,,,,,,,,,,,,,,,,,,2304.6529879000154,None,2304.6529879000154,None,19,24,female,up_down_width,2023_Oct_18_1454,exp1,2021.2.3,59.98703079597238,
,,,,,,,,,,,,,,,,4,9.25,9.75,10.25,10.75,0,0.5,0.25,0.25,1.75,10,initial,36.05,333,351,370,388,0,9,9,9,9,0,,,,,4,0,4,0,0,0,0,20,,,,,num_4,0.7546112999552861,num_4,0.35,1.0,0.35,0.5,12.61502,18.02146,return,1.4585713999695145,,,,,,,19,24,female,up_down_width,2023_Oct_18_1454,exp1,2021.2.3,59.98703079597238,
,,,,,,,,,,,,,,,,4,9.5,9.833333333333334,10.166666666666666,10.5,0,0.33333333333333337,0.23333333333333336,0.1,1.1,10,match,36.05,342,354,367,379,0,9,9,9,9,0,,,,,4,0,4,0,0,1,1,1,,,,,num_4,0.8412199000013061,num_4,0.45,1.1,0.10000000000000007,0.3,3.60429,10.81288,return,3.5591301000094973,,,,,,,19,24,female,up_down_width,2023_Oct_18_1454,exp1,2021.2.3,59.98703079597238,
,,,,,,,,,,,,,,,,4,9.425,9.808333333333334,10.191666666666666,10.575,0,0.3833333333333333,0.1333333333333333,0.25,1.4,10,match,36.05,340,354,367,381,0,9,9,9,9,0,,,,,4,0,4,0,0,2,2,5,,,,,num_4,0.8105381000204943,num_4,0.45,1.3,0.20000000000000007,0.4,7.20859,14.41717,return,3.368919500033371,,,,,,,19,24,female,up_down_width,2023_Oct_18_1454,exp1,2021.2.3,59.98703079597238,
,,,,,,,,,,,,,,,,4,9.3,9.766666666666667,10.233333333333333,10.7,0,0.4666666666666667,0.06666666666666665,0.4,1.8,10,match,36.05,335,352,369,386,0,9,9,9,9,0,,,,,4,0,4,0,0,3,3,11,,,,,num_4,0.7872624999727122,num_4,0.15,0.3,0.35,0.5,12.61502,18.02146,return,3.651826999965124,,,,,,,19,24,female,up_down_width,2023_Oct_18_1454,exp1,2021.2.3,59.98703079597238,
,,,,,,,,,,,,,,,,4,9.3,9.766666666666667,10.233333333333333,10.7,0,0.4666666666666667,0.21666666666666665,0.25,1.65,10,match,36.05,335,352,369,386,0,9,9,9,9,0,,,,,4,0,4,0,0,4,4,9,,,,,num_4,3.633344500034582,num_4,0.2,0.3,0.2,0.4,7.20859,14.41717,return,1.196933600003831,,,,,,,19,24,female,up_down_width,2023_Oct_18_1454,exp1,2021.2.3,59.98703079597238,
,,,,,,,,,,,,,,,,5,8.65,9.325,10,10.675,11.35,0.6749999999999999,0.575,0.1,2.8,10,match,36.05,312,336,361,385,409,9,9,9,9,9,,,,,4,0,4,0,0,5,5,31,,,,,num_5,0.8760390999959782,num_5,0.2,1.3,0.2,0.8,7.20859,28.83434,return,2.5675669999909587,,,,,,,19,24,female,up_down_width,2023_Oct_18_1454,exp1,2021.2.3,59.98703079597238,
,,,,,,,,,,,,,,,,3,8.6,10,11.4,0,0,1.4,1.15,0.25,3.05,10,match,36.05,310,361,411,0,0,9,9,9,0,0,,,,,4,0,4,0,0,6,6,45,,,,,num_3,0.7559630000032485,num_3,0.25,0.8,0.25,1.15,9.01073,41.44937,return,1.9570786000113003,,,,,,,19,24,female,up_down_width,2023_Oct_18_1454,exp1,2021.2.3,59.98703079597238,
,,,,,,,,,,,,,,,,3,9.1,10,10.9,0,0,0.9,0.5,0.4,2.2,10,initial,36.05,328,361,393,0,0,9,9,9,0,0,,,,,4,0,4,0,0,7,7,16,,,,,num_3,0.7424077000468969,num_3,0.2,1.2,0.35,1.2,12.61502,43.25151,return,1.3361583999940194,,,,,,,19,24,female,up_down_width,2023_Oct_18_1454,exp1,2021.2.3,59.98703079597238,
,,,,,,,,,,,,,,,,3,9.5,10,10.5,0,0,0.5,0.09999999999999998,0.4,1.4000000000000001,10,initial,36.05,342,361,379,0,0,9,9,9,0,0,,,,,4,0,4,0,0,8,8,4,,,,,num_3,0.6656600999995135,num_3,0.2,1.3,0.44999999999999996,0.85,16.21932,30.63649,return,3.4540986999636516,,,,,,,19,24,female,up_down_width,2023_Oct_18_1454,exp1,2021.2.3,59.98703079597238,
,,,,,,,,,,,,,,,,4,9.25,9.75,10.25,10.75,0,0.5,0.4,0.1,1.6,10,initial,36.05,333,351,370,388,0,9,9,9,9,0,,,,,4,0,4,0,0,9,9,18,,,,,num_4,1.0047674999805167,num_4,0.45,0.6,0.15000000000000008,0.4,5.40644,14.41717,return,3.0426254000049084,,,,,,,19,24,female,up_down_width,2023_Oct_18_1454,exp1,2021.2.3,59.98703079597238,
,,,,,,,,,,,,,,,,3,8.525,10,11.475,0,0,1.475,1.225,0.25,3.2,10,match,36.05,307,361,414,0,0,9,9,9,0,0,,,,,4,0,4,0,0,10,10,47,,,,,num_3,0.8576123000239022,num_3,0.1,0.9,0.1,1.35,3.60429,48.65795,return,2.4517979999654926,,,,,,,19,24,female,up_down_width,2023_Oct_18_1454,exp1,2021.2.3,59.98703079597238,
,,,,,,,,,,,,,,,,3,9,10,11,0,0,1,0.75,0.25,2.25,10,match,36.05,324,361,397,0,0,9,9,9,0,0,,,,,4,0,4,0,0,11,11,39,,,,,num_3,0.8531410000286996,num_3,0.2,0.8,0.2,1.0,7.20859,36.04293,return,1.552531799999997,,,,,,,19,24,female,up_down_width,2023_Oct_18_1454,exp1,2021.2.3,59.98703079597238,
,,,,,,,,,,,,,,,,3,9,10,11,0,0,0.9999999999999999,0.5999999999999999,0.4,2.4,10,match,36.05,324,361,397,0,0,9,9,9,0,0,,,,,4,0,4,0,0,12,12,41,,,,,num_3,0.8107668999582529,num_3,0.15,1.3,0.39999999999999997,1.4,14.41717,50.4601,return,1.9614681999664754,,,,,,,19,24,female,up_down_width,2023_Oct_18_1454,exp1,2021.2.3,59.98703079597238,
,,,,,,,,,,,,,,,,5,8.6,9.3,10,10.7,11.4,0.7,0.44999999999999996,0.25,3.05,10,initial,36.05,310,335,361,386,411,9,9,9,9,9,,,,,4,0,4,0,0,13,13,44,,,,,num_5,0.9313700000056997,num_5,0.25,0.8,0.25,0.95,9.01073,34.24078,return,1.2765584000153467,,,,,,,19,24,female,up_down_width,2023_Oct_18_1454,exp1,2021.2.3,59.98703079597238,
,,,,,,,,,,,,,,,,5,9,9.5,10,10.5,11,0.5,0.25,0.25,2.25,10,initial,36.05,324,342,361,379,397,9,9,9,9,9,,,,,4,0,4,0,0,14,14,38,,,,,num_5,0.8973293000017293,num_5,0.3,0.9,0.3,0.65,10.81288,23.4279,return,1.2607482000021264,,,,,,,19,24,female,up_down_width,2023_Oct_18_1454,exp1,2021.2.3,59.98703079597238,
,,,,,,,,,,,,,,,,5,9,9.5,10,10.5,11,0.5,0.09999999999999998,0.4,2.4,10,initial,36.05,324,342,361,379,397,9,9,9,9,9,,,,,4,0,4,0,0,15,15,40,,,,,num_5,0.8648456000373699,num_5,0.1,0.5,0.35,0.65,12.61502,23.4279,return,4.189438299974427,,,,,,,19,24,female,up_down_width,2023_Oct_18_1454,exp1,2021.2.3,59.98703079597238,
,,,,,,,,,,,,,,,,3,9.5,10,10.5,0,0,0.5,0.25,0.25,1.25,10,initial,36.05,342,361,379,0,0,9,9,9,0,0,,,,,4,0,4,0,0,16,16,2,,,,,num_3,0.8719911000225693,num_3,0.1,1.2,0.39999999999999997,0.8,14.41717,28.83434,return,3.2838582000113092,,,,,,,19,24,female,up_down_width,2023_Oct_18_1454,exp1,2021.2.3,59.98703079597238,
,,,,,,,,,,,,,,,,4,9.3,9.766666666666667,10.233333333333333,10.7,0,0.4666666666666667,0.3666666666666667,0.1,1.5,10,match,36.05,335,352,369,386,0,9,9,9,9,0,,,,,4,0,4,0,0,17,17,7,,,,,num_4,0.8414488999987952,num_4,0.2,0.9,0.10000000000000002,0.4,3.60429,14.41717,return,2.8696936999913305,,,,,,,19,24,female,up_down_width,2023_Oct_18_1454,exp1,2021.2.3,59.98703079597238,
,,,,,,,,,,,,,,,,5,9.25,9.625,10,10.375,10.75,0.375,0.275,0.1,1.6,10,match,36.05,333,347,361,374,388,9,9,9,9,9,,,,,4,0,4,0,0,18,18,19,,,,,num_5,0.820604500011541,num_5,0.2,0.5,0.10000000000000002,0.5,3.60429,18.02146,return,1.3789608999504708,,,,,,,19,24,female,up_down_width,2023_Oct_18_1454,exp1,2021.2.3,59.98703079597238,
,,,,,,,,,,,,,,,,4,8.95,9.65,10.35,11.05,0,0.7,0.44999999999999996,0.25,2.3499999999999996,10,initial,36.05,323,348,373,398,0,9,9,9,9,0,,,,,4,0,4,0,0,19,19,26,,,,,num_5,0.9399909999920055,num_5,0.2,0.9,0.2,0.6,7.20859,21.62576,return,1.8749766999972053,,,,,,,19,24,female,up_down_width,2023_Oct_18_1454,exp1,2021.2.3,59.98703079597238,
,,,,,,,,,,,,,,,,4,9.1,9.7,10.3,10.9,0,0.6000000000000001,0.20000000000000004,0.4,2.2,10,match,36.05,328,350,371,393,0,9,9,9,9,0,,,,,4,0,4,0,0,20,20,17,,,,,num_5,0.7967417000327259,num_5,0.15,1.3,0.39999999999999997,0.8,14.41717,28.83434,return,4.6210533999837935,,,,,,,19,24,female,up_down_width,2023_Oct_18_1454,exp1,2021.2.3,59.98703079597238,
,,,,,,,,,,,,,,,,5,9,9.5,10,10.5,11,0.5,0.4,0.1,2.1,10,initial,36.05,324,342,361,379,397,9,9,9,9,9,,,,,4,0,4,0,0,21,21,36,,,,,num_5,0.7260772999725305,num_5,0.4,0.9,0.15000000000000008,0.55,5.40644,19.82361,return,3.6399843000108376,,,,,,,19,24,female,up_down_width,2023_Oct_18_1454,exp1,2021.2.3,59.98703079597238,
,,,,,,,,,,,,,,,,4,9.1,9.7,10.3,10.9,0,0.6,0.5,0.1,1.9,10,match,36.05,328,350,371,393,0,9,9,9,9,0,,,,,4,0,4,0,0,22,22,13,,,,,num_5,0.9727979000308551,num_5,0.25,0.7,0.10000000000000002,0.6,3.60429,21.62576,return,2.050835800007917,,,,,,,19,24,female,up_down_width,2023_Oct_18_1454,exp1,2021.2.3,59.98703079597238,
,,,,,,,,,,,,,,,,5,9.25,9.625,10,10.375,10.75,0.375,0.125,0.25,1.75,10,match,36.05,333,347,361,374,388,9,9,9,9,9,,,,,4,0,4,0,0,23,23,21,,,,,num_5,0.8305199000169523,num_5,0.45,1.2,0.20000000000000007,0.85,7.20859,30.63649,return,2.5232533999951556,,,,,,,19,24,female,up_down_width,2023_Oct_18_1454,exp1,2021.2.3,59.98703079597238,
,,,,,,,,,,,,,,,,3,8.2,10,11.8,0,0,1.7999999999999998,1.4,0.4,4,10,match,36.05,296,361,425,0,0,9,9,9,0,0,,,,,4,0,4,0,0,24,24,53,,,,,num_3,0.8420536000048742,num_3,0.1,0.6,0.35,1.05,12.61502,37.84507,return,3.6071518000098877,,,,,,,19,24,female,up_down_width,2023_Oct_18_1454,exp1,2021.2.3,59.98703079597238,
,,,,,,,,,,,,,,,,5,8.2,9.1,10,10.9,11.8,0.9,0.8,0.1,3.7,10,initial,36.05,296,328,361,393,425,9,9,9,9,9,,,,,4,0,4,0,0,25,25,48,,,,,num_4,0.8476816000184044,num_4,0.25,1.0,0.15000000000000002,1.0,5.40644,36.04293,return,1.373187399993185,,,,,,,19,24,female,up_down_width,2023_Oct_18_1454,exp1,2021.2.3,59.98703079597238,
,,,,,,,,,,,,,,,,5,8.65,9.325,10,10.675,11.35,0.675,0.275,0.4,3.1,10,match,36.05,312,336,361,385,409,9,9,9,9,9,,,,,4,0,4,0,0,26,26,35,,,,,num_5,0.8119799999985844,num_5,0.15,0.6,0.3,0.65,10.81288,23.4279,return,2.139018499990925,,,,,,,19,24,female,up_down_width,2023_Oct_18_1454,exp1,2021.2.3,59.98703079597238,
,,,,,,,,,,,,,,,,4,9.1,9.7,10.3,10.9,0,0.5999999999999999,0.3499999999999999,0.25,2.05,10,match,36.05,328,350,371,393,0,9,9,9,9,0,,,,,4,0,4,0,0,27,27,15,,,,,num_5,0.8814124999917112,num_5,0.35,1.0,0.3,0.75,10.81288,27.0322,return,2.2702015999821015,,,,,,,19,24,female,up_down_width,2023_Oct_18_1454,exp1,2021.2.3,59.98703079597238,
,,,,,,,,,,,,,,,,3,8.2,10,11.8,0,0,1.8,1.55,0.25,3.85,10,match,36.05,296,361,425,0,0,9,9,9,0,0,,,,,4,0,4,0,0,28,28,51,,,,,num_3,0.7992106000310741,num_3,0.45,0.7,0.25000000000000006,1.75,9.01073,63.07512,return,6.607604699966032,,,,,,,19,24,female,up_down_width,2023_Oct_18_1454,exp1,2021.2.3,59.98703079597238,
,,,,,,,,,,,,,,,,3,9,10,11,0,0,1,0.9,0.1,2.1,10,match,36.05,324,361,397,0,0,9,9,9,0,0,,,,,4,0,4,0,0,29,29,37,,,,,num_3,0.6850715999607928,num_3,0.4,1.2,0.15000000000000008,1.2,5.40644,43.25151,return,1.2960964000085369,,,,,,,19,24,female,up_down_width,2023_Oct_18_1454,exp1,2021.2.3,59.98703079597238,
,,,,,,,,,,,,,,,,4,8.95,9.65,10.35,11.05,0,0.7,0.29999999999999993,0.4,2.5,10,initial,36.05,323,348,373,398,0,9,9,9,9,0,,,,,4,0,4,0,0,30,30,28,,,,,num_3,0.8946855000103824,num_3,0.15,0.8,0.39999999999999997,0.85,14.41717,30.63649,return,2.6190896999905817,,,,,,,19,24,female,up_down_width,2023_Oct_18_1454,exp1,2021.2.3,59.98703079597238,
,,,,,,,,,,,,,,,,4,8.95,9.65,10.35,11.05,0,0.7,0.6,0.1,2.1999999999999997,10,initial,36.05,323,348,373,398,0,9,9,9,9,0,,,,,4,0,4,0,0,31,31,24,,,,,num_4,0.791998100001365,num_4,0.35,0.5,0.2,0.8,7.20859,28.83434,return,2.4657630000147037,,,,,,,19,24,female,up_down_width,2023_Oct_18_1454,exp1,2021.2.3,59.98703079597238,
,,,,,,,,,,,,,,,,3,9.1,10,10.9,0,0,0.9,0.65,0.25,2.05,10,initial,36.05,328,361,393,0,0,9,9,9,0,0,,,,,4,0,4,0,0,32,32,14,,,,,num_3,0.8052485000225715,num_3,0.2,0.5,0.25,0.7,9.01073,25.23005,return,1.955698299978394,,,,,,,19,24,female,up_down_width,2023_Oct_18_1454,exp1,2021.2.3,59.98703079597238,
,,,,,,,,,,,,,,,,5,9.175,9.5875,10,10.4125,10.825,0.4125,0.16249999999999998,0.25,1.9,10,match,36.05,331,346,361,375,390,9,9,9,9,9,,,,,4,0,4,0,0,33,33,23,,,,,num_5,0.9100719999987632,num_5,0.25,0.7,0.3,0.55,10.81288,19.82361,return,1.4309453000314534,,,,,,,19,24,female,up_down_width,2023_Oct_18_1454,exp1,2021.2.3,59.98703079597238,
,,,,,,,,,,,,,,,,5,8.2,9.1,10,10.9,11.8,0.9,0.65,0.25,3.85,10,initial,36.05,296,328,361,393,425,9,9,9,9,9,,,,,4,0,4,0,0,34,34,50,,,,,num_5,0.7962569000083022,num_5,0.25,0.7,0.25,0.95,9.01073,34.24078,return,2.5388099999981932,,,,,,,19,24,female,up_down_width,2023_Oct_18_1454,exp1,2021.2.3,59.98703079597238,
,,,,,,,,,,,,,,,,3,8.6,10,11.4,0,0,1.4,1.2999999999999998,0.1,2.9,10,match,36.05,310,361,411,0,0,9,9,9,0,0,,,,,4,0,4,0,0,35,35,43,,,,,num_3,0.8403757999767549,num_3,0.15,1,0.15,1.5,5.40644,54.06439,return,1.9733700000215322,,,,,,,19,24,female,up_down_width,2023_Oct_18_1454,exp1,2021.2.3,59.98703079597238,
,,,,,,,,,,,,,,,,3,9.1,10,10.9,0,0,0.9,0.8,0.1,1.9000000000000001,10,initial,36.05,328,361,393,0,0,9,9,9,0,0,,,,,4,0,4,0,0,36,36,12,,,,,num_3,0.7008359000319615,num_3,0.1,0.6,0.1,1.15,3.60429,41.44937,return,3.611075700027868,,,,,,,19,24,female,up_down_width,2023_Oct_18_1454,exp1,2021.2.3,59.98703079597238,
,,,,,,,,,,,,,,,,3,9.3,10,10.7,0,0,0.7,0.29999999999999993,0.4,1.8,10,initial,36.05,335,361,386,0,0,9,9,9,0,0,,,,,4,0,4,0,0,37,37,10,,,,,num_3,0.7386384000419639,num_3,0.1,0.5,0.39999999999999997,0.75,14.41717,27.0322,return,3.620806699967943,,,,,,,19,24,female,up_down_width,2023_Oct_18_1454,exp1,2021.2.3,59.98703079597238,
,,,,,,,,,,,,,,,,4,9.5,9.833333333333334,10.166666666666666,10.5,0,0.3333333333333333,0.08333333333333333,0.25,1.25,10,match,36.05,342,354,367,379,0,9,9,9,9,0,,,,,4,0,4,0,0,38,38,3,,,,,num_4,0.8218286000192165,num_4,0.1,0.3,0.1,0.3,3.60429,10.81288,return,0.8186378999962471,,,,,,,19,24,female,up_down_width,2023_Oct_18_1454,exp1,2021.2.3,59.98703079597238,
,,,,,,,,,,,,,,,,5,8.6,9.3,10,10.7,11.4,0.7,0.29999999999999993,0.4,3.1999999999999997,10,initial,36.05,310,335,361,386,411,9,9,9,9,9,,,,,4,0,4,0,0,39,39,46,,,,,num_5,0.8738035999704152,num_5,0.15,1.1,0.44999999999999996,0.8,16.21932,28.83434,return,2.838176499994006,,,,,,,19,24,female,up_down_width,2023_Oct_18_1454,exp1,2021.2.3,59.98703079597238,
,,,,,,,,,,,,,,,,4,8.65,9.55,10.45,11.35,0,0.9,0.65,0.25,2.95,10,initial,36.05,312,344,377,409,0,9,9,9,9,0,,,,,4,0,4,0,0,40,40,32,,,,,num_4,0.7975312999915332,num_4,0.35,1.2,0.35,1.1,12.61502,39.64722,return,0.9534333000192419,,,,,,,19,24,female,up_down_width,2023_Oct_18_1454,exp1,2021.2.3,59.98703079597238,
,,,,,,,,,,,,,,,,5,8.95,9.475,10,10.525,11.05,0.525,0.275,0.25,2.35,10,match,36.05,323,342,361,379,398,9,9,9,9,9,,,,,4,0,4,0,0,41,41,27,,,,,num_5,0.7287751999683678,num_5,0.35,0.5,0.25,0.5,9.01073,18.02146,return,1.4030239000567235,,,,,,,19,24,female,up_down_width,2023_Oct_18_1454,exp1,2021.2.3,59.98703079597238,
,,,,,,,,,,,,,,,,4,8.65,9.55,10.45,11.35,0,0.9,0.5,0.4,3.1,10,initial,36.05,312,344,377,409,0,9,9,9,9,0,,,,,4,0,4,0,0,42,42,34,,,,,num_5,0.8253153000259772,num_5,0.4,1.3,0.4,0.65,14.41717,23.4279,return,2.678566000016872,,,,,,,19,24,female,up_down_width,2023_Oct_18_1454,exp1,2021.2.3,59.98703079597238,
,,,,,,,,,,,,,,,,5,8.95,9.475,10,10.525,11.05,0.525,0.42500000000000004,0.1,2.2,10,match,36.05,323,342,361,379,398,9,9,9,9,9,,,,,4,0,4,0,0,43,43,25,,,,,num_5,0.8770483999978751,num_5,0.2,0.9,0.2,0.6,7.20859,21.62576,return,1.8004847000120208,,,,,,,19,24,female,up_down_width,2023_Oct_18_1454,exp1,2021.2.3,59.98703079597238,
,,,,,,,,,,,,,,,,4,8.65,9.55,10.45,11.35,0,0.9,0.8,0.1,2.8000000000000003,10,initial,36.05,312,344,377,409,0,9,9,9,9,0,,,,,4,0,4,0,0,44,44,30,,,,,num_5,0.8253460000269115,num_5,0.2,1.1,0.10000000000000002,0.8,3.60429,28.83434,return,2.2336460999795236,,,,,,,19,24,female,up_down_width,2023_Oct_18_1454,exp1,2021.2.3,59.98703079597238,
,,,,,,,,,,,,,,,,3,9.3,10,10.7,0,0,0.7,0.6,0.1,1.5,10,initial,36.05,335,361,386,0,0,9,9,9,0,0,,,,,4,0,4,0,0,45,45,6,,,,,num_3,0.8007443000096828,num_3,0.1,1.1,0.05,0.95,1.80215,34.24078,return,1.5369073000038043,,,,,,,19,24,female,up_down_width,2023_Oct_18_1454,exp1,2021.2.3,59.98703079597238,
,,,,,,,,,,,,,,,,3,9.3,10,10.7,0,0,0.7,0.44999999999999996,0.25,1.65,10,initial,36.05,335,361,386,0,0,9,9,9,0,0,,,,,4,0,4,0,0,46,46,8,,,,,num_3,0.8412785999826156,num_3,0.25,1.1,0.35,0.9,12.61502,32.43864,return,4.341895100020338,,,,,,,19,24,female,up_down_width,2023_Oct_18_1454,exp1,2021.2.3,59.98703079597238,
,,,,,,,,,,,,,,,,5,8.2,9.1,10,10.9,11.8,0.9,0.5,0.4,4,10,initial,36.05,296,328,361,393,425,9,9,9,9,9,,,,,4,0,4,0,0,47,47,52,,,,,num_5,2.6175211999798194,num_5,0.35,1.3,0.49999999999999994,1.2,18.02146,43.25151,return,1.2309889000025578,,,,,,,19,24,female,up_down_width,2023_Oct_18_1454,exp1,2021.2.3,59.98703079597238,
,,,,,,,,,,,,,,,,5,8.65,9.325,10,10.675,11.35,0.675,0.42500000000000004,0.25,2.95,10,match,36.05,312,336,361,385,409,9,9,9,9,9,,,,,4,0,4,0,0,48,48,33,,,,,num_5,0.747475599986501,num_5,0.3,1.3,0.3,0.9,10.81288,32.43864,return,1.8819438999635167,,,,,,,19,24,female,up_down_width,2023_Oct_18_1454,exp1,2021.2.3,59.98703079597238,
,,,,,,,,,,,,,,,,4,9.25,9.75,10.25,10.75,0,0.5,0.09999999999999998,0.4,1.9,10,initial,36.05,333,351,370,388,0,9,9,9,9,0,,,,,4,0,4,0,0,49,49,22,,,,,num_4,0.8341347000095993,num_4,0.25,0.9,0.35,0.6,12.61502,21.62576,return,1.3109166999929585,,,,,,,19,24,female,up_down_width,2023_Oct_18_1454,exp1,2021.2.3,59.98703079597238,
,,,,,,,,,,,,,,,,3,9.5,10,10.5,0,0,0.5,0.4,0.1,1.1,10,initial,36.05,342,361,379,0,0,9,9,9,0,0,,,,,4,0,4,0,0,50,50,0,,,,,num_3,0.8049099000054412,num_3,0.1,0.6,0.15000000000000002,0.55,5.40644,19.82361,return,1.5069071000325494,,,,,,,19,24,female,up_down_width,2023_Oct_18_1454,exp1,2021.2.3,59.98703079597238,
,,,,,,,,,,,,,,,,5,8.6,9.3,10,10.7,11.4,0.7,0.6,0.1,2.9,10,initial,36.05,310,335,361,386,411,9,9,9,9,9,,,,,4,0,4,0,0,51,51,42,,,,,num_5,0.8158266000100411,num_5,0.45,0.7,0.10000000000000007,0.55,3.60429,19.82361,return,3.6311048999777995,,,,,,,19,24,female,up_down_width,2023_Oct_18_1454,exp1,2021.2.3,59.98703079597238,
,,,,,,,,,,,,,,,,5,8.95,9.475,10,10.525,11.05,0.525,0.125,0.4,2.5,10,match,36.05,323,342,361,379,398,9,9,9,9,9,,,,,4,0,4,0,0,52,52,29,,,,,num_5,0.798261099960655,num_5,0.15,0.6,0.35,0.6,12.61502,21.62576,return,1.9501604000106454,,,,,,,19,24,female,up_down_width,2023_Oct_18_1454,exp1,2021.2.3,59.98703079597238,
,,,,,,,,,,,,,,,,3,8.2,10,11.8,0,0,1.8000000000000003,1.7000000000000002,0.1,3.7,10,match,36.05,296,361,425,0,0,9,9,9,0,0,,,,,4,0,4,0,0,53,53,49,,,,,num_3,0.7440500999800861,num_3,0.45,0.6,0.15000000000000008,1.1,5.40644,39.64722,return,3.8334117000340484,,,,,,,19,24,female,up_down_width,2023_Oct_18_1454,exp1,2021.2.3,59.98703079597238,
,,,,,,,,,,,,,,,,,,,,,,,,,,,,,,,,,,,,,,,,,,,4,0,4,0,,,,,,,,,,,,,,,,,,,,,,2578.019327900023,None,2578.019327900023,None,19,24,female,up_down_width,2023_Oct_18_1454,exp1,2021.2.3,59.98703079597238,
,,,,,,,,,,,,,,,,5,8.95,9.475,10,10.525,11.05,0.525,0.275,0.25,2.35,10,match,36.05,323,342,361,379,398,9,9,9,9,9,,,,,5,0,5,0,0,0,0,27,,,,,num_3,2.1738240999984555,num_3,0.25,0.3,0.25,0.3,9.01073,10.81288,return,0.7590506999986246,,,,,,,19,24,female,up_down_width,2023_Oct_18_1454,exp1,2021.2.3,59.98703079597238,
,,,,,,,,,,,,,,,,5,8.95,9.475,10,10.525,11.05,0.525,0.125,0.4,2.5,10,match,36.05,323,342,361,379,398,9,9,9,9,9,,,,,5,0,5,0,0,1,1,29,,,,,num_4,0.8301523000118323,num_4,0.45,0.8,0.45,0.5,16.21932,18.02146,return,1.5614501999807544,,,,,,,19,24,female,up_down_width,2023_Oct_18_1454,exp1,2021.2.3,59.98703079597238,
,,,,,,,,,,,,,,,,4,8.95,9.65,10.35,11.05,0,0.7,0.44999999999999996,0.25,2.3499999999999996,10,initial,36.05,323,348,373,398,0,9,9,9,9,0,,,,,5,0,5,0,0,2,2,26,,,,,num_4,0.7342095000203699,num_4,0.2,0.6,0.3,0.6,10.81288,21.62576,return,1.6780370000051335,,,,,,,19,24,female,up_down_width,2023_Oct_18_1454,exp1,2021.2.3,59.98703079597238,
,,,,,,,,,,,,,,,,4,8.95,9.65,10.35,11.05,0,0.7,0.6,0.1,2.1999999999999997,10,initial,36.05,323,348,373,398,0,9,9,9,9,0,,,,,5,0,5,0,0,3,3,24,,,,,num_4,0.7325243999948725,num_4,0.35,0.5,0.15000000000000002,0.5,5.40644,18.02146,return,2.510080599982757,,,,,,,19,24,female,up_down_width,2023_Oct_18_1454,exp1,2021.2.3,59.98703079597238,
,,,,,,,,,,,,,,,,4,8.65,9.55,10.45,11.35,0,0.9,0.65,0.25,2.95,10,initial,36.05,312,344,377,409,0,9,9,9,9,0,,,,,5,0,5,0,0,4,4,32,,,,,num_4,0.6786802000133321,num_4,0.3,0.6,0.2,0.8,7.20859,28.83434,return,1.2283125999965705,,,,,,,19,24,female,up_down_width,2023_Oct_18_1454,exp1,2021.2.3,59.98703079597238,
,,,,,,,,,,,,,,,,5,9.25,9.625,10,10.375,10.75,0.375,0.275,0.1,1.6,10,match,36.05,333,347,361,374,388,9,9,9,9,9,,,,,5,0,5,0,0,5,5,19,,,,,num_5,0.8540723000187427,num_5,0.2,0.8,0.10000000000000002,0.45,3.60429,16.21932,return,2.0804893000167795,,,,,,,19,24,female,up_down_width,2023_Oct_18_1454,exp1,2021.2.3,59.98703079597238,
,,,,,,,,,,,,,,,,3,9.1,10,10.9,0,0,0.9,0.8,0.1,1.9000000000000001,10,initial,36.05,328,361,393,0,0,9,9,9,0,0,,,,,5,0,5,0,0,6,6,12,,,,,num_3,0.7860037999926135,num_3,0.1,1.2,0.1,0.95,3.60429,34.24078,return,1.9865971999824978,,,,,,,19,24,female,up_down_width,2023_Oct_18_1454,exp1,2021.2.3,59.98703079597238,
,,,,,,,,,,,,,,,,4,9.1,9.7,10.3,10.9,0,0.6,0.5,0.1,1.9,10,match,36.05,328,350,371,393,0,9,9,9,9,0,,,,,5,0,5,0,0,7,7,13,,,,,num_5,0.7508022999973036,num_5,0.2,0.9,0.10000000000000002,0.6,3.60429,21.62576,return,2.448452399985399,,,,,,,19,24,female,up_down_width,2023_Oct_18_1454,exp1,2021.2.3,59.98703079597238,
,,,,,,,,,,,,,,,,5,9.25,9.625,10,10.375,10.75,0.375,0.125,0.25,1.75,10,match,36.05,333,347,361,374,388,9,9,9,9,9,,,,,5,0,5,0,0,8,8,21,,,,,num_5,0.7361923000426032,num_5,0.15,1.3,0.25,0.5,9.01073,18.02146,return,4.574518300010823,,,,,,,19,24,female,up_down_width,2023_Oct_18_1454,exp1,2021.2.3,59.98703079597238,
,,,,,,,,,,,,,,,,3,8.2,10,11.8,0,0,1.8,1.55,0.25,3.85,10,match,36.05,296,361,425,0,0,9,9,9,0,0,,,,,5,0,5,0,0,9,9,51,,,,,num_3,0.7787687999662012,num_3,0.35,0.4,0.2,1.2,7.20859,43.25151,return,4.633500500000082,,,,,,,19,24,female,up_down_width,2023_Oct_18_1454,exp1,2021.2.3,59.98703079597238,
,,,,,,,,,,,,,,,,4,8.65,9.55,10.45,11.35,0,0.9,0.8,0.1,2.8000000000000003,10,initial,36.05,312,344,377,409,0,9,9,9,9,0,,,,,5,0,5,0,0,10,10,30,,,,,num_4,0.802166200010106,num_4,0.2,0.5,0.15000000000000002,1.0,5.40644,36.04293,return,1.5358403999707662,,,,,,,19,24,female,up_down_width,2023_Oct_18_1454,exp1,2021.2.3,59.98703079597238,
,,,,,,,,,,,,,,,,4,9.3,9.766666666666667,10.233333333333333,10.7,0,0.4666666666666667,0.3666666666666667,0.1,1.5,10,match,36.05,335,352,369,386,0,9,9,9,9,0,,,,,5,0,5,0,0,11,11,7,,,,,num_4,0.897669899975881,num_4,0.45,1.0,0.10000000000000007,0.4,3.60429,14.41717,return,3.0687873999704607,,,,,,,19,24,female,up_down_width,2023_Oct_18_1454,exp1,2021.2.3,59.98703079597238,
,,,,,,,,,,,,,,,,5,8.2,9.1,10,10.9,11.8,0.9,0.5,0.4,4,10,initial,36.05,296,328,361,393,425,9,9,9,9,9,,,,,5,0,5,0,0,12,12,52,,,,,num_4,0.8983474000124261,num_4,0.4,0.5,0.30000000000000004,0.7,10.81288,25.23005,return,1.5179982000263408,,,,,,,19,24,female,up_down_width,2023_Oct_18_1454,exp1,2021.2.3,59.98703079597238,
,,,,,,,,,,,,,,,,3,8.2,10,11.8,0,0,1.7999999999999998,1.4,0.4,4,10,match,36.05,296,361,425,0,0,9,9,9,0,0,,,,,5,0,5,0,0,13,13,53,,,,,num_3,0.7530765000265092,num_3,0.45,1.2,0.45,1.55,16.21932,55.86654,return,1.8097791000036523,,,,,,,19,24,female,up_down_width,2023_Oct_18_1454,exp1,2021.2.3,59.98703079597238,
,,,,,,,,,,,,,,,,3,9,10,11,0,0,0.9999999999999999,0.5999999999999999,0.4,2.4,10,match,36.05,324,361,397,0,0,9,9,9,0,0,,,,,5,0,5,0,0,14,14,41,,,,,num_3,0.7738467999733984,num_3,0.1,1.1,0.49999999999999994,1.1,18.02146,39.64722,return,1.8954121999558993,,,,,,,19,24,female,up_down_width,2023_Oct_18_1454,exp1,2021.2.3,59.98703079597238,
,,,,,,,,,,,,,,,,4,9.3,9.766666666666667,10.233333333333333,10.7,0,0.4666666666666667,0.06666666666666665,0.4,1.8,10,match,36.05,335,352,369,386,0,9,9,9,9,0,,,,,5,0,5,0,0,15,15,11,,,,,num_3,1.2107954999664798,num_3,0.3,0.8,0.5499999999999999,0.75,19.82361,27.0322,return,1.7193408999592066,,,,,,,19,24,female,up_down_width,2023_Oct_18_1454,exp1,2021.2.3,59.98703079597238,
,,,,,,,,,,,,,,,,4,9.3,9.766666666666667,10.233333333333333,10.7,0,0.4666666666666667,0.21666666666666665,0.25,1.65,10,match,36.05,335,352,369,386,0,9,9,9,9,0,,,,,5,0,5,0,0,16,16,9,,,,,num_4,0.695415599970147,num_4,0.1,1.3,0.44999999999999996,0.7,16.21932,25.23005,return,3.4365213999990374,,,,,,,19,24,female,up_down_width,2023_Oct_18_1454,exp1,2021.2.3,59.98703079597238,
,,,,,,,,,,,,,,,,5,8.2,9.1,10,10.9,11.8,0.9,0.65,0.25,3.85,10,initial,36.05,296,328,361,393,425,9,9,9,9,9,,,,,5,0,5,0,0,17,17,50,,,,,num_5,0.964286100002937,num_5,0.15,0.6,0.35,0.7,12.61502,25.23005,return,2.093162900011521,,,,,,,19,24,female,up_down_width,2023_Oct_18_1454,exp1,2021.2.3,59.98703079597238,
,,,,,,,,,,,,,,,,3,9.1,10,10.9,0,0,0.9,0.5,0.4,2.2,10,initial,36.05,328,361,393,0,0,9,9,9,0,0,,,,,5,0,5,0,0,18,18,16,,,,,num_3,0.7991342000314035,num_3,0.3,1.3,0.49999999999999994,1.05,18.02146,37.84507,return,1.983118399977684,,,,,,,19,24,female,up_down_width,2023_Oct_18_1454,exp1,2021.2.3,59.98703079597238,
,,,,,,,,,,,,,,,,5,8.6,9.3,10,10.7,11.4,0.7,0.44999999999999996,0.25,3.05,10,initial,36.05,310,335,361,386,411,9,9,9,9,9,,,,,5,0,5,0,0,19,19,44,,,,,num_6,0.8920061999815516,num_6,0.25,1.1,0.39999999999999997,0.8,14.41717,28.83434,return,1.8160299999872223,,,,,,,19,24,female,up_down_width,2023_Oct_18_1454,exp1,2021.2.3,59.98703079597238,
,,,,,,,,,,,,,,,,4,8.95,9.65,10.35,11.05,0,0.7,0.29999999999999993,0.4,2.5,10,initial,36.05,323,348,373,398,0,9,9,9,9,0,,,,,5,0,5,0,0,20,20,28,,,,,num_5,0.7474076999933459,num_5,0.15,1.3,0.44999999999999996,0.85,16.21932,30.63649,return,2.8605809999862686,,,,,,,19,24,female,up_down_width,2023_Oct_18_1454,exp1,2021.2.3,59.98703079597238,
,,,,,,,,,,,,,,,,5,9,9.5,10,10.5,11,0.5,0.4,0.1,2.1,10,initial,36.05,324,342,361,379,397,9,9,9,9,9,,,,,5,0,5,0,0,21,21,36,,,,,num_6,0.8649504000204615,num_6,0.15,0.9,0.10000000000000002,0.6,3.60429,21.62576,return,1.981975800008513,,,,,,,19,24,female,up_down_width,2023_Oct_18_1454,exp1,2021.2.3,59.98703079597238,
,,,,,,,,,,,,,,,,3,9,10,11,0,0,1,0.9,0.1,2.1,10,match,36.05,324,361,397,0,0,9,9,9,0,0,,,,,5,0,5,0,0,22,22,37,,,,,num_3,0.693024999985937,num_3,0.3,1.1,0.15000000000000002,1.1,5.40644,39.64722,return,1.7047676999936812,,,,,,,19,24,female,up_down_width,2023_Oct_18_1454,exp1,2021.2.3,59.98703079597238,
,,,,,,,,,,,,,,,,4,9.1,9.7,10.3,10.9,0,0.6000000000000001,0.20000000000000004,0.4,2.2,10,match,36.05,328,350,371,393,0,9,9,9,9,0,,,,,5,0,5,0,0,23,23,17,,,,,num_5,0.7467807999928482,num_5,0.45,0.8,0.45,0.75,16.21932,27.0322,return,0.7451001000008546,,,,,,,19,24,female,up_down_width,2023_Oct_18_1454,exp1,2021.2.3,59.98703079597238,
,,,,,,,,,,,,,,,,5,8.6,9.3,10,10.7,11.4,0.7,0.6,0.1,2.9,10,initial,36.05,310,335,361,386,411,9,9,9,9,9,,,,,5,0,5,0,0,24,24,42,,,,,num_5,0.7628178999875672,num_5,0.35,1.0,0.15000000000000002,1.05,5.40644,37.84507,return,1.2913546999916434,,,,,,,19,24,female,up_down_width,2023_Oct_18_1454,exp1,2021.2.3,59.98703079597238,
