amount_p,posx1_p,posx2_p,posx3_p,posx4_p,posx5_p,center_to_center_p,edge_to_edge_p,w_p,stim_lengt_p,eccentricity_p,line1_p,line2_p,line3_p,line4_p,line5_p,amount,posx1,posx2,posx3,posx4,posx5,center_to_center,edge_to_edge,w,stim_length,eccentricity,trial_type,deg_to_pix_index,posx1_in_pix,posx2_in_pix,posx3_in_pix,posx4_in_pix,posx5_in_pix,line1,line2,line3,line4,line5,trials.thisRepN,trials.thisTrialN,trials.thisN,trials.thisIndex,blocks.thisRepN,blocks.thisTrialN,blocks.thisN,blocks.thisIndex,loop.thisRepN,loop.thisTrialN,loop.thisN,loop.thisIndex,key_resp_3.keys,key_resp_3.rt,key_resp_3.started,key_resp_3.stopped,key_resp.keys,key_resp.rt,response,starting_width_deg,starting_space_deg,response_width_degree,response_spacing_degree,response_width_pixel,response_spacing_pixel,next_5.keys,next_5.rt,key_resp_4.keys,key_resp_4.rt,text_3.started,text_3.stopped,text_4.started,text_4.stopped,participant,age,gender,resp_group,date,expName,psychopyVersion,frameRate,
,,,,,,,,,,,,,,,,,,,,,,,,,,,,,,,,,,,,,,,,,,,,,,,,,,,c,54.304848599946126,158.9089007000439,None,,,,,,,,,,,,,,,,,,1,21,male,left_right_width,2023_Aug_13_1746,exp1,2021.2.3,59.9721728953744,
3,8.2,10,11.8,0,0,1.7999999999999998,1.4,0.4,4,10,9,9,9,0,0,,,,,,,,,,,,,,,,,,,,,,,,0,0,0,2,,,,,,,,,,,,,num_2,2.1920265001244843,num_2,0.15,1.6,0.25,1.4,9.21624,51.61094,return,17.952255599899217,,,,,,,1,21,male,left_right_width,2023_Aug_13_1746,exp1,2021.2.3,59.9721728953744,
4,8.65,9.55,10.45,11.35,0,0.9,0.5,0.4,3.1,10,9,9,9,9,0,,,,,,,,,,,,,,,,,,,,,,,,0,1,1,5,,,,,,,,,,,,,num_3,2.7692567999474704,num_3,0.1,0.6,0.3,1.0,11.05949,36.86496,return,13.071377199841663,,,,,,,1,21,male,left_right_width,2023_Aug_13_1746,exp1,2021.2.3,59.9721728953744,
3,9.5,10,10.5,0,0,0.5,0.4,0.1,1.1,10,9,9,9,0,0,,,,,,,,,,,,,,,,,,,,,,,,0,2,2,0,,,,,,,,,,,,,num_2,25.99857009993866,num_2,0.35,1.6,0.35,1.4,12.90274,51.61094,return,22.235111400019377,,,,,,,1,21,male,left_right_width,2023_Aug_13_1746,exp1,2021.2.3,59.9721728953744,
4,9.5,9.833333333333334,10.166666666666666,10.5,0,0.33333333333333337,0.23333333333333336,0.1,1.1,10,9,9,9,9,0,,,,,,,,,,,,,,,,,,,,,,,,0,3,3,3,,,,,,,,,,,,,num_3,1.8526868999470025,num_3,0.2,1.2,0.10000000000000002,0.55,3.6865,20.27573,return,16.609089700039476,,,,,,,1,21,male,left_right_width,2023_Aug_13_1746,exp1,2021.2.3,59.9721728953744,
5,9,9.5,10,10.5,11,0.5,0.09999999999999998,0.4,2.4,10,9,9,9,9,9,,,,,,,,,,,,,,,,,,,,,,,,0,4,4,8,,,,,,,,,,,,,num_4,2.4752360000275075,num_4,0.3,1.3,0.35,0.5,12.90274,18.43248,return,11.845236700028181,,,,,,,1,21,male,left_right_width,2023_Aug_13_1746,exp1,2021.2.3,59.9721728953744,
5,8.6,9.3,10,10.7,11.4,0.7,0.29999999999999993,0.4,3.1999999999999997,10,9,9,9,9,9,,,,,,,,,,,,,,,,,,,,,,,,0,5,5,7,,,,,,,,,,,,,num_1,1.945969199994579,num_1,0.45,9999,0.45,9999,16.58923,368612.73504,return,6.634461499983445,,,,,,,1,21,male,left_right_width,2023_Aug_13_1746,exp1,2021.2.3,59.9721728953744,
3,9,10,11,0,0,1,0.9,0.1,2.1,10,9,9,9,0,0,,,,,,,,,,,,,,,,,,,,,,,,0,6,6,1,,,,,,,,,,,,,num_3,1.6625958001241088,num_3,0.35,0.9,0.05000000000000002,0.75,1.84325,27.64872,return,11.850535799982026,,,,,,,1,21,male,left_right_width,2023_Aug_13_1746,exp1,2021.2.3,59.9721728953744,
4,9.25,9.75,10.25,10.75,0,0.5,0.25,0.25,1.75,10,9,9,9,9,0,,,,,,,,,,,,,,,,,,,,,,,,0,7,7,4,,,,,,,,,,,,,num_4,1.6238716000225395,num_4,0.15,1.2,0.25,0.7,9.21624,25.80547,return,9.507062900112942,,,,,,,1,21,male,left_right_width,2023_Aug_13_1746,exp1,2021.2.3,59.9721728953744,
5,9.25,9.625,10,10.375,10.75,0.375,0.125,0.25,1.75,10,9,9,9,9,9,,,,,,,,,,,,,,,,,,,,,,,,0,8,8,6,,,,,,,,,,,,,num_5,4.426241699839011,num_5,0.15,0.4,0.25,0.45,9.21624,16.58923,return,7.381244300166145,,,,,,,1,21,male,left_right_width,2023_Aug_13_1746,exp1,2021.2.3,59.9721728953744,
,,,,,,,,,,,,,,,,,,,,,,,,,,,,,,,,,,,,,,,,,,,,,,,,,,,,,,,,,,,,,,,,,,c,23.150801500072703,,,,,1,21,male,left_right_width,2023_Aug_13_1746,exp1,2021.2.3,59.9721728953744,
,,,,,,,,,,,,,,,,4,9.3,9.766666666666667,10.233333333333333,10.7,0,0.4666666666666667,0.21666666666666665,0.25,1.65,10,match,36.05,335,352,369,386,0,9,9,9,9,0,,,,,0,0,0,0,0,0,0,9,,,,,num_3,2.9267546001356095,num_3,0.1,1.3,0.25,0.75,9.21624,27.64872,return,7.27211120002903,,,,,,,1,21,male,left_right_width,2023_Aug_13_1746,exp1,2021.2.3,59.9721728953744,
,,,,,,,,,,,,,,,,3,9,10,11,0,0,1,0.9,0.1,2.1,10,match,36.05,324,361,397,0,0,9,9,9,0,0,,,,,0,0,0,0,0,1,1,37,,,,,num_3,2.4982959998305887,num_3,0.15,0.5,0.10000000000000002,1.0,3.6865,36.86496,return,9.116449699969962,,,,,,,1,21,male,left_right_width,2023_Aug_13_1746,exp1,2021.2.3,59.9721728953744,
,,,,,,,,,,,,,,,,4,9.1,9.7,10.3,10.9,0,0.6000000000000001,0.20000000000000004,0.4,2.2,10,match,36.05,328,350,371,393,0,9,9,9,9,0,,,,,0,0,0,0,0,2,2,17,,,,,num_3,4.42918620002456,num_3,0.15,1.3,0.35,0.65,12.90274,23.96222,return,6.938049900112674,,,,,,,1,21,male,left_right_width,2023_Aug_13_1746,exp1,2021.2.3,59.9721728953744,
,,,,,,,,,,,,,,,,5,9,9.5,10,10.5,11,0.5,0.25,0.25,2.25,10,initial,36.05,324,342,361,379,397,9,9,9,9,9,,,,,0,0,0,0,0,3,3,38,,,,,num_4,1.3040175999049097,num_4,0.3,0.3,0.39999999999999997,0.6,14.74598,22.11898,return,23.475285399938002,,,,,,,1,21,male,left_right_width,2023_Aug_13_1746,exp1,2021.2.3,59.9721728953744,
,,,,,,,,,,,,,,,,5,8.65,9.325,10,10.675,11.35,0.675,0.275,0.4,3.1,10,match,36.05,312,336,361,385,409,9,9,9,9,9,,,,,0,0,0,0,0,4,4,35,,,,,num_4,1.5840584998950362,num_4,0.4,1.2,0.4,0.6,14.74598,22.11898,return,3.984329800121486,,,,,,,1,21,male,left_right_width,2023_Aug_13_1746,exp1,2021.2.3,59.9721728953744,
,,,,,,,,,,,,,,,,3,9.5,10,10.5,0,0,0.5,0.09999999999999998,0.4,1.4000000000000001,10,initial,36.05,342,361,379,0,0,9,9,9,0,0,,,,,0,0,0,0,0,5,5,4,,,,,num_3,1.1331092999316752,num_3,0.15,1.2,0.39999999999999997,0.65,14.74598,23.96222,return,6.5908978001680225,,,,,,,1,21,male,left_right_width,2023_Aug_13_1746,exp1,2021.2.3,59.9721728953744,
,,,,,,,,,,,,,,,,5,8.65,9.325,10,10.675,11.35,0.675,0.42500000000000004,0.25,2.95,10,match,36.05,312,336,361,385,409,9,9,9,9,9,,,,,0,0,0,0,0,6,6,33,,,,,num_4,1.082138900179416,num_4,0.25,1.3,0.25,0.9,9.21624,33.17846,return,4.459102599881589,,,,,,,1,21,male,left_right_width,2023_Aug_13_1746,exp1,2021.2.3,59.9721728953744,
,,,,,,,,,,,,,,,,4,8.95,9.65,10.35,11.05,0,0.7,0.6,0.1,2.1999999999999997,10,initial,36.05,323,348,373,398,0,9,9,9,9,0,,,,,0,0,0,0,0,7,7,24,,,,,num_4,1.1697707001585513,num_4,0.45,1.2,0.10000000000000007,0.7,3.6865,25.80547,return,12.2902154000476,,,,,,,1,21,male,left_right_width,2023_Aug_13_1746,exp1,2021.2.3,59.9721728953744,
,,,,,,,,,,,,,,,,3,8.6,10,11.4,0,0,1.4,1.2999999999999998,0.1,2.9,10,match,36.05,310,361,411,0,0,9,9,9,0,0,,,,,0,0,0,0,0,8,8,43,,,,,num_2,1.0627456000074744,num_2,0.45,1.6,0.10000000000000007,1.4,3.6865,51.61094,return,5.8470966999884695,,,,,,,1,21,male,left_right_width,2023_Aug_13_1746,exp1,2021.2.3,59.9721728953744,
,,,,,,,,,,,,,,,,3,9.5,10,10.5,0,0,0.5,0.25,0.25,1.25,10,initial,36.05,342,361,379,0,0,9,9,9,0,0,,,,,0,0,0,0,0,9,9,2,,,,,num_3,1.0967367000412196,num_3,0.4,0.8,0.25000000000000006,0.7,9.21624,25.80547,return,5.819851400097832,,,,,,,1,21,male,left_right_width,2023_Aug_13_1746,exp1,2021.2.3,59.9721728953744,
,,,,,,,,,,,,,,,,5,8.95,9.475,10,10.525,11.05,0.525,0.125,0.4,2.5,10,match,36.05,323,342,361,379,398,9,9,9,9,9,,,,,0,0,0,0,0,10,10,29,,,,,num_5,1.5939875999465585,num_5,0.1,0.5,0.35,0.5,12.90274,18.43248,return,5.481446500169113,,,,,,,1,21,male,left_right_width,2023_Aug_13_1746,exp1,2021.2.3,59.9721728953744,
,,,,,,,,,,,,,,,,3,9,10,11,0,0,1,0.75,0.25,2.25,10,match,36.05,324,361,397,0,0,9,9,9,0,0,,,,,0,0,0,0,0,11,11,39,,,,,num_2,1.1902366001158953,num_2,0.1,1.6,0.39999999999999997,1.3,14.74598,47.92445,return,7.219953499967232,,,,,,,1,21,male,left_right_width,2023_Aug_13_1746,exp1,2021.2.3,59.9721728953744,
,,,,,,,,,,,,,,,,3,9.5,10,10.5,0,0,0.5,0.4,0.1,1.1,10,initial,36.05,342,361,379,0,0,9,9,9,0,0,,,,,0,0,0,0,0,12,12,0,,,,,num_2,1.917261199792847,num_2,0.4,1.6,0.10000000000000007,1.1,3.6865,40.55146,return,4.976613699924201,,,,,,,1,21,male,left_right_width,2023_Aug_13_1746,exp1,2021.2.3,59.9721728953744,
,,,,,,,,,,,,,,,,3,9.3,10,10.7,0,0,0.7,0.44999999999999996,0.25,1.65,10,initial,36.05,335,361,386,0,0,9,9,9,0,0,,,,,0,0,0,0,0,13,13,8,,,,,num_3,1.1253659999929368,num_3,0.2,1,0.25,0.8,9.21624,29.49197,return,4.326524999924004,,,,,,,1,21,male,left_right_width,2023_Aug_13_1746,exp1,2021.2.3,59.9721728953744,
,,,,,,,,,,,,,,,,4,8.95,9.65,10.35,11.05,0,0.7,0.29999999999999993,0.4,2.5,10,initial,36.05,323,348,373,398,0,9,9,9,9,0,,,,,0,0,0,0,0,14,14,28,,,,,num_3,1.5044342000037432,num_3,0.1,0.8,0.39999999999999997,0.8,14.74598,29.49197,return,2.624658999964595,,,,,,,1,21,male,left_right_width,2023_Aug_13_1746,exp1,2021.2.3,59.9721728953744,
,,,,,,,,,,,,,,,,5,8.2,9.1,10,10.9,11.8,0.9,0.8,0.1,3.7,10,initial,36.05,296,328,361,393,425,9,9,9,9,9,,,,,0,0,0,0,0,15,15,48,,,,,num_4,0.9466186000499874,num_4,0.35,1.0,0.10000000000000002,1.0,3.6865,36.86496,return,5.323552200105041,,,,,,,1,21,male,left_right_width,2023_Aug_13_1746,exp1,2021.2.3,59.9721728953744,
,,,,,,,,,,,,,,,,5,8.65,9.325,10,10.675,11.35,0.6749999999999999,0.575,0.1,2.8,10,match,36.05,312,336,361,385,409,9,9,9,9,9,,,,,0,0,0,0,0,16,16,31,,,,,num_5,1.1274779001250863,num_5,0.15,1.3,0.09999999999999999,0.85,3.6865,31.33522,return,6.3611332001164556,,,,,,,1,21,male,left_right_width,2023_Aug_13_1746,exp1,2021.2.3,59.9721728953744,
,,,,,,,,,,,,,,,,5,8.6,9.3,10,10.7,11.4,0.7,0.6,0.1,2.9,10,initial,36.05,310,335,361,386,411,9,9,9,9,9,,,,,0,0,0,0,0,17,17,42,,,,,num_5,1.1693406000267714,num_5,0.4,0.9,0.05000000000000007,0.9,1.84325,33.17846,return,4.688284199917689,,,,,,,1,21,male,left_right_width,2023_Aug_13_1746,exp1,2021.2.3,59.9721728953744,
,,,,,,,,,,,,,,,,5,9.25,9.625,10,10.375,10.75,0.375,0.275,0.1,1.6,10,match,36.05,333,347,361,374,388,9,9,9,9,9,,,,,0,0,0,0,0,18,18,19,,,,,num_4,1.5819075999315828,num_4,0.35,1.3,0.10000000000000002,0.7,3.6865,25.80547,return,9.01927680009976,,,,,,,1,21,male,left_right_width,2023_Aug_13_1746,exp1,2021.2.3,59.9721728953744,
,,,,,,,,,,,,,,,,4,9.25,9.75,10.25,10.75,0,0.5,0.4,0.1,1.6,10,initial,36.05,333,351,370,388,0,9,9,9,9,0,,,,,0,0,0,0,0,19,19,18,,,,,num_3,1.7571672999765724,num_3,0.1,0.7,0.1,0.8,3.6865,29.49197,return,2.4533442999236286,,,,,,,1,21,male,left_right_width,2023_Aug_13_1746,exp1,2021.2.3,59.9721728953744,
,,,,,,,,,,,,,,,,3,9.3,10,10.7,0,0,0.7,0.6,0.1,1.5,10,initial,36.05,335,361,386,0,0,9,9,9,0,0,,,,,0,0,0,0,0,20,20,6,,,,,num_2,2.304529800079763,num_2,0.3,1.6,0.2,1.1,7.37299,40.55146,return,6.496052700094879,,,,,,,1,21,male,left_right_width,2023_Aug_13_1746,exp1,2021.2.3,59.9721728953744,
,,,,,,,,,,,,,,,,3,8.2,10,11.8,0,0,1.8000000000000003,1.7000000000000002,0.1,3.7,10,match,36.05,296,361,425,0,0,9,9,9,0,0,,,,,0,0,0,0,0,21,21,49,,,,,num_3,1.9580912999808788,num_3,0.35,0.5,0.10000000000000002,1.6,3.6865,58.98394,return,12.118095400044695,,,,,,,1,21,male,left_right_width,2023_Aug_13_1746,exp1,2021.2.3,59.9721728953744,
,,,,,,,,,,,,,,,,5,9,9.5,10,10.5,11,0.5,0.09999999999999998,0.4,2.4,10,initial,36.05,324,342,361,379,397,9,9,9,9,9,,,,,0,0,0,0,0,22,22,40,,,,,num_4,1.8762733000330627,num_4,0.15,0.8,0.35,0.5,12.90274,18.43248,return,4.567113999975845,,,,,,,1,21,male,left_right_width,2023_Aug_13_1746,exp1,2021.2.3,59.9721728953744,
,,,,,,,,,,,,,,,,5,9,9.5,10,10.5,11,0.5,0.4,0.1,2.1,10,initial,36.05,324,342,361,379,397,9,9,9,9,9,,,,,0,0,0,0,0,23,23,36,,,,,num_4,0.9472513999789953,num_4,0.3,1.0,0.10000000000000002,0.5,3.6865,18.43248,return,4.461651399964467,,,,,,,1,21,male,left_right_width,2023_Aug_13_1746,exp1,2021.2.3,59.9721728953744,
,,,,,,,,,,,,,,,,5,9.175,9.5875,10,10.4125,10.825,0.4125,0.16249999999999998,0.25,1.9,10,match,36.05,331,346,361,375,390,9,9,9,9,9,,,,,0,0,0,0,0,24,24,23,,,,,num_4,0.9926799000240862,num_4,0.35,1.1,0.25,0.5,9.21624,18.43248,return,3.829568399814889,,,,,,,1,21,male,left_right_width,2023_Aug_13_1746,exp1,2021.2.3,59.9721728953744,
,,,,,,,,,,,,,,,,5,8.95,9.475,10,10.525,11.05,0.525,0.275,0.25,2.35,10,match,36.05,323,342,361,379,398,9,9,9,9,9,,,,,0,0,0,0,0,25,25,27,,,,,num_4,0.9990836000069976,num_4,0.2,0.4,0.35,0.8,12.90274,29.49197,return,5.167067399946973,,,,,,,1,21,male,left_right_width,2023_Aug_13_1746,exp1,2021.2.3,59.9721728953744,
,,,,,,,,,,,,,,,,4,9.5,9.833333333333334,10.166666666666666,10.5,0,0.3333333333333333,0.08333333333333333,0.25,1.25,10,match,36.05,342,354,367,379,0,9,9,9,9,0,,,,,0,0,0,0,0,26,26,3,,,,,num_3,1.142862900160253,num_3,0.3,0.6,0.3,0.5,11.05949,18.43248,return,7.016567699844018,,,,,,,1,21,male,left_right_width,2023_Aug_13_1746,exp1,2021.2.3,59.9721728953744,
,,,,,,,,,,,,,,,,4,9.25,9.75,10.25,10.75,0,0.5,0.09999999999999998,0.4,1.9,10,initial,36.05,333,351,370,388,0,9,9,9,9,0,,,,,0,0,0,0,0,27,27,22,,,,,num_3,1.5222676999401301,num_3,0.3,0.6,0.39999999999999997,0.65,14.74598,23.96222,return,4.339208299992606,,,,,,,1,21,male,left_right_width,2023_Aug_13_1746,exp1,2021.2.3,59.9721728953744,
,,,,,,,,,,,,,,,,3,8.6,10,11.4,0,0,1.4,1.15,0.25,3.05,10,match,36.05,310,361,411,0,0,9,9,9,0,0,,,,,0,0,0,0,0,28,28,45,,,,,num_2,0.7166311999317259,num_2,0.35,1.6,0.25,2.2,9.21624,81.10291,return,3.5333364999387413,,,,,,,1,21,male,left_right_width,2023_Aug_13_1746,exp1,2021.2.3,59.9721728953744,
,,,,,,,,,,,,,,,,3,8.525,10,11.475,0,0,1.475,1.225,0.25,3.2,10,match,36.05,307,361,414,0,0,9,9,9,0,0,,,,,0,0,0,0,0,29,29,47,,,,,num_2,1.0767812000121921,num_2,0.15,1.6,0.09999999999999999,3.3,3.6865,121.65437,return,5.049442899879068,,,,,,,1,21,male,left_right_width,2023_Aug_13_1746,exp1,2021.2.3,59.9721728953744,
,,,,,,,,,,,,,,,,3,9.1,10,10.9,0,0,0.9,0.5,0.4,2.2,10,initial,36.05,328,361,393,0,0,9,9,9,0,0,,,,,0,0,0,0,0,30,30,16,,,,,num_2,3.0251394000370055,num_2,0.45,1.6,0.45,1.6,16.58923,58.98394,return,1.3358378000557423,,,,,,,1,21,male,left_right_width,2023_Aug_13_1746,exp1,2021.2.3,59.9721728953744,
,,,,,,,,,,,,,,,,4,9.3,9.766666666666667,10.233333333333333,10.7,0,0.4666666666666667,0.06666666666666665,0.4,1.8,10,match,36.05,335,352,369,386,0,9,9,9,9,0,,,,,0,0,0,0,0,31,31,11,,,,,num_3,1.0484832001384348,num_3,0.45,0.5,0.45,0.65,16.58923,23.96222,return,2.685730699915439,,,,,,,1,21,male,left_right_width,2023_Aug_13_1746,exp1,2021.2.3,59.9721728953744,
,,,,,,,,,,,,,,,,4,9.25,9.75,10.25,10.75,0,0.5,0.25,0.25,1.75,10,initial,36.05,333,351,370,388,0,9,9,9,9,0,,,,,0,0,0,0,0,32,32,20,,,,,num_4,1.387032700004056,num_4,0.15,0.7,0.3,0.5,11.05949,18.43248,return,3.6961030999664217,,,,,,,1,21,male,left_right_width,2023_Aug_13_1746,exp1,2021.2.3,59.9721728953744,
,,,,,,,,,,,,,,,,3,8.2,10,11.8,0,0,1.7999999999999998,1.4,0.4,4,10,match,36.05,296,361,425,0,0,9,9,9,0,0,,,,,0,0,0,0,0,33,33,53,,,,,num_3,0.8497593000065535,num_3,0.25,0.8,0.25,1.65,9.21624,60.82718,return,6.396475600078702,,,,,,,1,21,male,left_right_width,2023_Aug_13_1746,exp1,2021.2.3,59.9721728953744,
,,,,,,,,,,,,,,,,4,9.1,9.7,10.3,10.9,0,0.5999999999999999,0.3499999999999999,0.25,2.05,10,match,36.05,328,350,371,393,0,9,9,9,9,0,,,,,0,0,0,0,0,34,34,15,,,,,num_4,1.5200139000080526,num_4,0.3,0.3,0.15000000000000002,0.5,5.52974,18.43248,return,5.328216499881819,,,,,,,1,21,male,left_right_width,2023_Aug_13_1746,exp1,2021.2.3,59.9721728953744,
,,,,,,,,,,,,,,,,5,8.2,9.1,10,10.9,11.8,0.9,0.5,0.4,4,10,initial,36.05,296,328,361,393,425,9,9,9,9,9,,,,,0,0,0,0,0,35,35,52,,,,,num_4,1.0693741000723094,num_4,0.4,0.9,0.4,0.9,14.74598,33.17846,return,1.4397054000291973,,,,,,,1,21,male,left_right_width,2023_Aug_13_1746,exp1,2021.2.3,59.9721728953744,
,,,,,,,,,,,,,,,,4,8.95,9.65,10.35,11.05,0,0.7,0.44999999999999996,0.25,2.3499999999999996,10,initial,36.05,323,348,373,398,0,9,9,9,9,0,,,,,0,0,0,0,0,36,36,26,,,,,num_3,1.0801323999185115,num_3,0.35,1.2,0.2,0.95,7.37299,35.02171,return,3.2442655998747796,,,,,,,1,21,male,left_right_width,2023_Aug_13_1746,exp1,2021.2.3,59.9721728953744,
,,,,,,,,,,,,,,,,4,9.5,9.833333333333334,10.166666666666666,10.5,0,0.33333333333333337,0.23333333333333336,0.1,1.1,10,match,36.05,342,354,367,379,0,9,9,9,9,0,,,,,0,0,0,0,0,37,37,1,,,,,num_4,1.014691400108859,num_4,0.4,0.7,0.10000000000000007,0.5,3.6865,18.43248,return,5.132785500027239,,,,,,,1,21,male,left_right_width,2023_Aug_13_1746,exp1,2021.2.3,59.9721728953744,
,,,,,,,,,,,,,,,,3,9,10,11,0,0,0.9999999999999999,0.5999999999999999,0.4,2.4,10,match,36.05,324,361,397,0,0,9,9,9,0,0,,,,,0,0,0,0,0,38,38,41,,,,,num_3,1.0585131999105215,num_3,0.45,0.9,0.45,1.0,16.58923,36.86496,return,1.7811445000115782,,,,,,,1,21,male,left_right_width,2023_Aug_13_1746,exp1,2021.2.3,59.9721728953744,
,,,,,,,,,,,,,,,,5,9.25,9.625,10,10.375,10.75,0.375,0.125,0.25,1.75,10,match,36.05,333,347,361,374,388,9,9,9,9,9,,,,,0,0,0,0,0,39,39,21,,,,,num_4,0.9664943001698703,num_4,0.1,0.4,0.35,0.5,12.90274,18.43248,return,4.924612500006333,,,,,,,1,21,male,left_right_width,2023_Aug_13_1746,exp1,2021.2.3,59.9721728953744,
,,,,,,,,,,,,,,,,5,8.6,9.3,10,10.7,11.4,0.7,0.44999999999999996,0.25,3.05,10,initial,36.05,310,335,361,386,411,9,9,9,9,9,,,,,0,0,0,0,0,40,40,44,,,,,num_4,1.0567562999203801,num_4,0.2,0.4,0.25,0.6,9.21624,22.11898,return,4.981172100175172,,,,,,,1,21,male,left_right_width,2023_Aug_13_1746,exp1,2021.2.3,59.9721728953744,
,,,,,,,,,,,,,,,,4,8.65,9.55,10.45,11.35,0,0.9,0.65,0.25,2.95,10,initial,36.05,312,344,377,409,0,9,9,9,9,0,,,,,0,0,0,0,0,41,41,32,,,,,num_3,1.626689299941063,num_3,0.45,0.7,0.15000000000000008,0.9,5.52974,33.17846,return,6.344947499921545,,,,,,,1,21,male,left_right_width,2023_Aug_13_1746,exp1,2021.2.3,59.9721728953744,
,,,,,,,,,,,,,,,,4,9.425,9.808333333333334,10.191666666666666,10.575,0,0.3833333333333333,0.1333333333333333,0.25,1.4,10,match,36.05,340,354,367,381,0,9,9,9,9,0,,,,,0,0,0,0,0,42,42,5,,,,,num_3,0.9072281001135707,num_3,0.3,0.6,0.3,0.5,11.05949,18.43248,return,1.8753118000458926,,,,,,,1,21,male,left_right_width,2023_Aug_13_1746,exp1,2021.2.3,59.9721728953744,
,,,,,,,,,,,,,,,,4,9.1,9.7,10.3,10.9,0,0.6,0.5,0.1,1.9,10,match,36.05,328,350,371,393,0,9,9,9,9,0,,,,,0,0,0,0,0,43,43,13,,,,,num_4,0.9933525000233203,num_4,0.15,1.2,0.09999999999999999,0.6,3.6865,22.11898,return,8.34235499985516,,,,,,,1,21,male,left_right_width,2023_Aug_13_1746,exp1,2021.2.3,59.9721728953744,
,,,,,,,,,,,,,,,,5,8.95,9.475,10,10.525,11.05,0.525,0.42500000000000004,0.1,2.2,10,match,36.05,323,342,361,379,398,9,9,9,9,9,,,,,0,0,0,0,0,44,44,25,,,,,num_5,1.4756364000495523,num_5,0.4,1.0,0.05000000000000007,0.65,1.84325,23.96222,return,9.252864900045097,,,,,,,1,21,male,left_right_width,2023_Aug_13_1746,exp1,2021.2.3,59.9721728953744,
,,,,,,,,,,,,,,,,3,9.1,10,10.9,0,0,0.9,0.65,0.25,2.05,10,initial,36.05,328,361,393,0,0,9,9,9,0,0,,,,,0,0,0,0,0,45,45,14,,,,,num_2,0.9992495998740196,num_2,0.45,1.6,0.35000000000000003,1.3,12.90274,47.92445,return,2.9590646000579,,,,,,,1,21,male,left_right_width,2023_Aug_13_1746,exp1,2021.2.3,59.9721728953744,
,,,,,,,,,,,,,,,,3,8.2,10,11.8,0,0,1.8,1.55,0.25,3.85,10,match,36.05,296,361,425,0,0,9,9,9,0,0,,,,,0,0,0,0,0,46,46,51,,,,,num_2,1.4351324001327157,num_2,0.2,1.6,0.3,1.9,11.05949,70.04342,return,4.8314752001315355,,,,,,,1,21,male,left_right_width,2023_Aug_13_1746,exp1,2021.2.3,59.9721728953744,
,,,,,,,,,,,,,,,,4,8.65,9.55,10.45,11.35,0,0.9,0.5,0.4,3.1,10,initial,36.05,312,344,377,409,0,9,9,9,9,0,,,,,0,0,0,0,0,47,47,34,,,,,num_4,2.4281951999291778,num_4,0.35,1.3,0.3,0.8,11.05949,29.49197,return,3.766111700097099,,,,,,,1,21,male,left_right_width,2023_Aug_13_1746,exp1,2021.2.3,59.9721728953744,
,,,,,,,,,,,,,,,,4,9.3,9.766666666666667,10.233333333333333,10.7,0,0.4666666666666667,0.3666666666666667,0.1,1.5,10,match,36.05,335,352,369,386,0,9,9,9,9,0,,,,,0,0,0,0,0,48,48,7,,,,,num_4,0.99808119982481,num_4,0.4,0.7,0.10000000000000007,0.5,3.6865,18.43248,return,3.2936027999967337,,,,,,,1,21,male,left_right_width,2023_Aug_13_1746,exp1,2021.2.3,59.9721728953744,
,,,,,,,,,,,,,,,,4,8.65,9.55,10.45,11.35,0,0.9,0.8,0.1,2.8000000000000003,10,initial,36.05,312,344,377,409,0,9,9,9,9,0,,,,,0,0,0,0,0,49,49,30,,,,,num_3,1.186100000049919,num_3,0.4,1.3,0.10000000000000007,1.05,3.6865,38.70821,return,5.665225500008091,,,,,,,1,21,male,left_right_width,2023_Aug_13_1746,exp1,2021.2.3,59.9721728953744,
,,,,,,,,,,,,,,,,5,8.2,9.1,10,10.9,11.8,0.9,0.65,0.25,3.85,10,initial,36.05,296,328,361,393,425,9,9,9,9,9,,,,,0,0,0,0,0,50,50,50,,,,,num_5,1.7831050001550466,num_5,0.25,0.8,0.15000000000000002,0.85,5.52974,31.33522,return,3.1968507000710815,,,,,,,1,21,male,left_right_width,2023_Aug_13_1746,exp1,2021.2.3,59.9721728953744,
,,,,,,,,,,,,,,,,3,9.3,10,10.7,0,0,0.7,0.29999999999999993,0.4,1.8,10,initial,36.05,335,361,386,0,0,9,9,9,0,0,,,,,0,0,0,0,0,51,51,10,,,,,num_2,0.9996511000208557,num_2,0.1,1.6,0.49999999999999994,0.8,18.43248,29.49197,return,6.031430100090802,,,,,,,1,21,male,left_right_width,2023_Aug_13_1746,exp1,2021.2.3,59.9721728953744,
,,,,,,,,,,,,,,,,5,8.6,9.3,10,10.7,11.4,0.7,0.29999999999999993,0.4,3.1999999999999997,10,initial,36.05,310,335,361,386,411,9,9,9,9,9,,,,,0,0,0,0,0,52,52,46,,,,,num_4,1.0146772000007331,num_4,0.15,1.1,0.49999999999999994,0.8,18.43248,29.49197,return,8.269611099967733,,,,,,,1,21,male,left_right_width,2023_Aug_13_1746,exp1,2021.2.3,59.9721728953744,
,,,,,,,,,,,,,,,,3,9.1,10,10.9,0,0,0.9,0.8,0.1,1.9000000000000001,10,initial,36.05,328,361,393,0,0,9,9,9,0,0,,,,,0,0,0,0,0,53,53,12,,,,,num_2,1.1194660000037402,num_2,0.1,1.6,0.10000000000000002,1.5,3.6865,55.29744,return,4.832497700117528,,,,,,,1,21,male,left_right_width,2023_Aug_13_1746,exp1,2021.2.3,59.9721728953744,
,,,,,,,,,,,,,,,,,,,,,,,,,,,,,,,,,,,,,,,,,,,0,0,0,0,,,,,,,,,,,,,,,,,,,,,,890.3377233999781,None,890.3377233999781,None,1,21,male,left_right_width,2023_Aug_13_1746,exp1,2021.2.3,59.9721728953744,
,,,,,,,,,,,,,,,,4,9.1,9.7,10.3,10.9,0,0.5999999999999999,0.3499999999999999,0.25,2.05,10,match,36.05,328,350,371,393,0,9,9,9,9,0,,,,,1,0,1,0,0,0,0,15,,,,,num_3,1.095467699924484,num_3,0.25,0.4,0.25,0.6,9.21624,22.11898,return,3.9605445999186486,,,,,,,1,21,male,left_right_width,2023_Aug_13_1746,exp1,2021.2.3,59.9721728953744,
,,,,,,,,,,,,,,,,5,9.175,9.5875,10,10.4125,10.825,0.4125,0.16249999999999998,0.25,1.9,10,match,36.05,331,346,361,375,390,9,9,9,9,9,,,,,1,0,1,0,0,1,1,23,,,,,num_4,0.6969751000870019,num_4,0.1,0.7,0.25,0.6,9.21624,22.11898,return,2.1393186999484897,,,,,,,1,21,male,left_right_width,2023_Aug_13_1746,exp1,2021.2.3,59.9721728953744,
,,,,,,,,,,,,,,,,4,8.65,9.55,10.45,11.35,0,0.9,0.8,0.1,2.8000000000000003,10,initial,36.05,312,344,377,409,0,9,9,9,9,0,,,,,1,0,1,0,0,2,2,30,,,,,num_4,0.735368900001049,num_4,0.3,0.5,0.10000000000000002,0.8,3.6865,29.49197,return,4.576283799950033,,,,,,,1,21,male,left_right_width,2023_Aug_13_1746,exp1,2021.2.3,59.9721728953744,
,,,,,,,,,,,,,,,,3,9.3,10,10.7,0,0,0.7,0.44999999999999996,0.25,1.65,10,initial,36.05,335,361,386,0,0,9,9,9,0,0,,,,,1,0,1,0,0,3,3,8,,,,,num_2,1.1159946001134813,num_2,0.45,1.6,0.30000000000000004,1.1,11.05949,40.55146,return,5.004648400004953,,,,,,,1,21,male,left_right_width,2023_Aug_13_1746,exp1,2021.2.3,59.9721728953744,
,,,,,,,,,,,,,,,,3,9,10,11,0,0,1,0.9,0.1,2.1,10,match,36.05,324,361,397,0,0,9,9,9,0,0,,,,,1,0,1,0,0,4,4,37,,,,,num_3,0.950733499834314,num_3,0.1,0.9,0.1,0.9,3.6865,33.17846,return,0.9273402998223901,,,,,,,1,21,male,left_right_width,2023_Aug_13_1746,exp1,2021.2.3,59.9721728953744,
,,,,,,,,,,,,,,,,3,8.6,10,11.4,0,0,1.4,1.15,0.25,3.05,10,match,36.05,310,361,411,0,0,9,9,9,0,0,,,,,1,0,1,0,0,5,5,45,,,,,num_2,0.9088574999477714,num_2,0.25,1.6,0.15000000000000002,1.9,5.52974,70.04342,return,2.7919928999617696,,,,,,,1,21,male,left_right_width,2023_Aug_13_1746,exp1,2021.2.3,59.9721728953744,
,,,,,,,,,,,,,,,,3,9.5,10,10.5,0,0,0.5,0.09999999999999998,0.4,1.4000000000000001,10,initial,36.05,342,361,379,0,0,9,9,9,0,0,,,,,1,0,1,0,0,6,6,4,,,,,num_2,1.0398385000880808,num_2,0.25,1.6,0.44999999999999996,0.7,16.58923,25.80547,return,7.347263300092891,,,,,,,1,21,male,left_right_width,2023_Aug_13_1746,exp1,2021.2.3,59.9721728953744,
,,,,,,,,,,,,,,,,3,8.2,10,11.8,0,0,1.8000000000000003,1.7000000000000002,0.1,3.7,10,match,36.05,296,361,425,0,0,9,9,9,0,0,,,,,1,0,1,0,0,7,7,49,,,,,num_2,1.112193000037223,num_2,0.45,1.6,0.05000000000000007,2.7,1.84325,99.53539,return,5.561590400058776,,,,,,,1,21,male,left_right_width,2023_Aug_13_1746,exp1,2021.2.3,59.9721728953744,
,,,,,,,,,,,,,,,,4,8.65,9.55,10.45,11.35,0,0.9,0.5,0.4,3.1,10,initial,36.05,312,344,377,409,0,9,9,9,9,0,,,,,1,0,1,0,0,8,8,34,,,,,num_3,2.126752700190991,num_3,0.15,0.8,0.35,1.0,12.90274,36.86496,return,4.3912668998818845,,,,,,,1,21,male,left_right_width,2023_Aug_13_1746,exp1,2021.2.3,59.9721728953744,
,,,,,,,,,,,,,,,,5,8.2,9.1,10,10.9,11.8,0.9,0.8,0.1,3.7,10,initial,36.05,296,328,361,393,425,9,9,9,9,9,,,,,1,0,1,0,0,9,9,48,,,,,num_4,2.6874625999480486,num_4,0.1,0.7,0.1,1.0,3.6865,36.86496,return,1.7455496999900788,,,,,,,1,21,male,left_right_width,2023_Aug_13_1746,exp1,2021.2.3,59.9721728953744,
,,,,,,,,,,,,,,,,4,8.65,9.55,10.45,11.35,0,0.9,0.65,0.25,2.95,10,initial,36.05,312,344,377,409,0,9,9,9,9,0,,,,,1,0,1,0,0,10,10,32,,,,,num_4,0.8893564001191407,num_4,0.1,1.1,0.2,0.7,7.37299,25.80547,return,3.0756022999994457,,,,,,,1,21,male,left_right_width,2023_Aug_13_1746,exp1,2021.2.3,59.9721728953744,
,,,,,,,,,,,,,,,,3,8.525,10,11.475,0,0,1.475,1.225,0.25,3.2,10,match,36.05,307,361,414,0,0,9,9,9,0,0,,,,,1,0,1,0,0,11,11,47,,,,,num_3,1.1319373999722302,num_3,0.2,0.9,0.2,1.05,7.37299,38.70821,return,1.9183214998338372,,,,,,,1,21,male,left_right_width,2023_Aug_13_1746,exp1,2021.2.3,59.9721728953744,
,,,,,,,,,,,,,,,,5,9.25,9.625,10,10.375,10.75,0.375,0.275,0.1,1.6,10,match,36.05,333,347,361,374,388,9,9,9,9,9,,,,,1,0,1,0,0,12,12,19,,,,,num_4,0.7499818000942469,num_4,0.25,0.5,0.10000000000000002,0.4,3.6865,14.74598,return,2.766469100024551,,,,,,,1,21,male,left_right_width,2023_Aug_13_1746,exp1,2021.2.3,59.9721728953744,
,,,,,,,,,,,,,,,,3,9,10,11,0,0,1,0.75,0.25,2.25,10,match,36.05,324,361,397,0,0,9,9,9,0,0,,,,,1,0,1,0,0,13,13,39,,,,,num_3,1.3850561999715865,num_3,0.25,1.2,0.15000000000000002,0.8,5.52974,29.49197,return,3.7920892001129687,,,,,,,1,21,male,left_right_width,2023_Aug_13_1746,exp1,2021.2.3,59.9721728953744,
,,,,,,,,,,,,,,,,5,8.65,9.325,10,10.675,11.35,0.6749999999999999,0.575,0.1,2.8,10,match,36.05,312,336,361,385,409,9,9,9,9,9,,,,,1,0,1,0,0,14,14,31,,,,,num_4,2.2657856999430805,num_4,0.3,0.7,0.10000000000000002,0.7,3.6865,25.80547,return,4.013271800009534,,,,,,,1,21,male,left_right_width,2023_Aug_13_1746,exp1,2021.2.3,59.9721728953744,
,,,,,,,,,,,,,,,,4,9.3,9.766666666666667,10.233333333333333,10.7,0,0.4666666666666667,0.21666666666666665,0.25,1.65,10,match,36.05,335,352,369,386,0,9,9,9,9,0,,,,,1,0,1,0,0,15,15,9,,,,,num_3,1.008818400092423,num_3,0.15,0.5,0.3,0.5,11.05949,18.43248,return,1.6538563999347389,,,,,,,1,21,male,left_right_width,2023_Aug_13_1746,exp1,2021.2.3,59.9721728953744,
,,,,,,,,,,,,,,,,4,9.25,9.75,10.25,10.75,0,0.5,0.25,0.25,1.75,10,initial,36.05,333,351,370,388,0,9,9,9,9,0,,,,,1,0,1,0,0,16,16,20,,,,,num_3,0.933273300062865,num_3,0.15,0.3,0.25,0.45,9.21624,16.58923,return,2.8154328998643905,,,,,,,1,21,male,left_right_width,2023_Aug_13_1746,exp1,2021.2.3,59.9721728953744,
,,,,,,,,,,,,,,,,5,9,9.5,10,10.5,11,0.5,0.4,0.1,2.1,10,initial,36.05,324,342,361,379,397,9,9,9,9,9,,,,,1,0,1,0,0,17,17,36,,,,,num_4,0.8477470998186618,num_4,0.2,1.2,0.10000000000000002,0.5,3.6865,18.43248,return,4.748210899997503,,,,,,,1,21,male,left_right_width,2023_Aug_13_1746,exp1,2021.2.3,59.9721728953744,
,,,,,,,,,,,,,,,,5,9,9.5,10,10.5,11,0.5,0.25,0.25,2.25,10,initial,36.05,324,342,361,379,397,9,9,9,9,9,,,,,1,0,1,0,0,18,18,38,,,,,num_5,3.3492304000537843,num_5,0.2,0.8,0.2,0.45,7.37299,16.58923,return,4.382319000083953,,,,,,,1,21,male,left_right_width,2023_Aug_13_1746,exp1,2021.2.3,59.9721728953744,
,,,,,,,,,,,,,,,,3,8.2,10,11.8,0,0,1.7999999999999998,1.4,0.4,4,10,match,36.05,296,361,425,0,0,9,9,9,0,0,,,,,1,0,1,0,0,19,19,53,,,,,num_2,0.8761843000538647,num_2,0.4,1.6,0.4,4.1,14.74598,151.14634,return,7.70309289987199,,,,,,,1,21,male,left_right_width,2023_Aug_13_1746,exp1,2021.2.3,59.9721728953744,
,,,,,,,,,,,,,,,,3,9.3,10,10.7,0,0,0.7,0.29999999999999993,0.4,1.8,10,initial,36.05,335,361,386,0,0,9,9,9,0,0,,,,,1,0,1,0,0,20,20,10,,,,,num_2,0.8648544999305159,num_2,0.3,1.6,0.39999999999999997,0.8,14.74598,29.49197,return,8.091365600004792,,,,,,,1,21,male,left_right_width,2023_Aug_13_1746,exp1,2021.2.3,59.9721728953744,
,,,,,,,,,,,,,,,,5,8.6,9.3,10,10.7,11.4,0.7,0.44999999999999996,0.25,3.05,10,initial,36.05,310,335,361,386,411,9,9,9,9,9,,,,,1,0,1,0,0,21,21,44,,,,,num_4,1.023933800170198,num_4,0.4,0.7,0.25000000000000006,0.6,9.21624,22.11898,return,13.573447200004011,,,,,,,1,21,male,left_right_width,2023_Aug_13_1746,exp1,2021.2.3,59.9721728953744,
,,,,,,,,,,,,,,,,5,8.95,9.475,10,10.525,11.05,0.525,0.275,0.25,2.35,10,match,36.05,323,342,361,379,398,9,9,9,9,9,,,,,1,0,1,0,0,22,22,27,,,,,num_4,0.7834899998269975,num_4,0.1,0.4,0.35,0.7,12.90274,25.80547,return,9.11866240017116,,,,,,,1,21,male,left_right_width,2023_Aug_13_1746,exp1,2021.2.3,59.9721728953744,
,,,,,,,,,,,,,,,,4,9.5,9.833333333333334,10.166666666666666,10.5,0,0.3333333333333333,0.08333333333333333,0.25,1.25,10,match,36.05,342,354,367,379,0,9,9,9,9,0,,,,,1,0,1,0,0,23,23,3,,,,,num_3,1.075433999998495,num_3,0.25,0.3,0.25,0.35,9.21624,12.90274,return,2.24677970004268,,,,,,,1,21,male,left_right_width,2023_Aug_13_1746,exp1,2021.2.3,59.9721728953744,
,,,,,,,,,,,,,,,,5,8.65,9.325,10,10.675,11.35,0.675,0.275,0.4,3.1,10,match,36.05,312,336,361,385,409,9,9,9,9,9,,,,,1,0,1,0,0,24,24,35,,,,,num_4,0.9700060000177473,num_4,0.4,0.5,0.4,0.7,14.74598,25.80547,return,1.8734518999699503,,,,,,,1,21,male,left_right_width,2023_Aug_13_1746,exp1,2021.2.3,59.9721728953744,
,,,,,,,,,,,,,,,,3,9.5,10,10.5,0,0,0.5,0.4,0.1,1.1,10,initial,36.05,342,361,379,0,0,9,9,9,0,0,,,,,1,0,1,0,0,25,25,0,,,,,num_2,0.6694873999804258,num_2,0.45,1.6,0.05000000000000007,0.5,1.84325,18.43248,return,6.417996299918741,,,,,,,1,21,male,left_right_width,2023_Aug_13_1746,exp1,2021.2.3,59.9721728953744,
,,,,,,,,,,,,,,,,5,8.65,9.325,10,10.675,11.35,0.675,0.42500000000000004,0.25,2.95,10,match,36.05,312,336,361,385,409,9,9,9,9,9,,,,,1,0,1,0,0,26,26,33,,,,,num_4,0.7274189000017941,num_4,0.4,0.9,0.25000000000000006,0.7,9.21624,25.80547,return,2.488666099961847,,,,,,,1,21,male,left_right_width,2023_Aug_13_1746,exp1,2021.2.3,59.9721728953744,
,,,,,,,,,,,,,,,,3,9.1,10,10.9,0,0,0.9,0.65,0.25,2.05,10,initial,36.05,328,361,393,0,0,9,9,9,0,0,,,,,1,0,1,0,0,27,27,14,,,,,num_2,0.7602730998769403,num_2,0.45,1.6,0.20000000000000007,1.6,7.37299,58.98394,return,5.031524300109595,,,,,,,1,21,male,left_right_width,2023_Aug_13_1746,exp1,2021.2.3,59.9721728953744,
,,,,,,,,,,,,,,,,4,9.5,9.833333333333334,10.166666666666666,10.5,0,0.33333333333333337,0.23333333333333336,0.1,1.1,10,match,36.05,342,354,367,379,0,9,9,9,9,0,,,,,1,0,1,0,0,28,28,1,,,,,num_3,1.000189899932593,num_3,0.3,0.7,0.10000000000000002,0.4,3.6865,14.74598,return,3.294693300034851,,,,,,,1,21,male,left_right_width,2023_Aug_13_1746,exp1,2021.2.3,59.9721728953744,
,,,,,,,,,,,,,,,,5,8.2,9.1,10,10.9,11.8,0.9,0.5,0.4,4,10,initial,36.05,296,328,361,393,425,9,9,9,9,9,,,,,1,0,1,0,0,29,29,52,,,,,num_4,0.7279670999851078,num_4,0.15,0.7,0.44999999999999996,1.0,16.58923,36.86496,return,3.3843163999263197,,,,,,,1,21,male,left_right_width,2023_Aug_13_1746,exp1,2021.2.3,59.9721728953744,
,,,,,,,,,,,,,,,,4,8.95,9.65,10.35,11.05,0,0.7,0.29999999999999993,0.4,2.5,10,initial,36.05,323,348,373,398,0,9,9,9,9,0,,,,,1,0,1,0,0,30,30,28,,,,,num_3,0.9553964000660926,num_3,0.25,0.9,0.39999999999999997,0.95,14.74598,35.02171,return,3.634271799819544,,,,,,,1,21,male,left_right_width,2023_Aug_13_1746,exp1,2021.2.3,59.9721728953744,
,,,,,,,,,,,,,,,,3,9.1,10,10.9,0,0,0.9,0.8,0.1,1.9000000000000001,10,initial,36.05,328,361,393,0,0,9,9,9,0,0,,,,,1,0,1,0,0,31,31,12,,,,,num_2,1.3070949998218566,num_2,0.35,1.6,0.15000000000000002,1.3,5.52974,47.92445,return,2.9012629999779165,,,,,,,1,21,male,left_right_width,2023_Aug_13_1746,exp1,2021.2.3,59.9721728953744,
,,,,,,,,,,,,,,,,4,9.425,9.808333333333334,10.191666666666666,10.575,0,0.3833333333333333,0.1333333333333333,0.25,1.4,10,match,36.05,340,354,367,381,0,9,9,9,9,0,,,,,1,0,1,0,0,32,32,5,,,,,num_3,0.7707706999499351,num_3,0.2,0.3,0.3,0.5,11.05949,18.43248,return,3.201468399958685,,,,,,,1,21,male,left_right_width,2023_Aug_13_1746,exp1,2021.2.3,59.9721728953744,
,,,,,,,,,,,,,,,,4,9.1,9.7,10.3,10.9,0,0.6000000000000001,0.20000000000000004,0.4,2.2,10,match,36.05,328,350,371,393,0,9,9,9,9,0,,,,,1,0,1,0,0,33,33,17,,,,,num_3,1.2635067000519484,num_3,0.35,0.6,0.39999999999999997,0.7,14.74598,25.80547,return,1.9964575001504272,,,,,,,1,21,male,left_right_width,2023_Aug_13_1746,exp1,2021.2.3,59.9721728953744,
,,,,,,,,,,,,,,,,5,9,9.5,10,10.5,11,0.5,0.09999999999999998,0.4,2.4,10,initial,36.05,324,342,361,379,397,9,9,9,9,9,,,,,1,0,1,0,0,34,34,40,,,,,num_4,1.0707747999113053,num_4,0.15,0.7,0.35,0.5,12.90274,18.43248,return,9.793935099849477,,,,,,,1,21,male,left_right_width,2023_Aug_13_1746,exp1,2021.2.3,59.9721728953744,
,,,,,,,,,,,,,,,,4,8.95,9.65,10.35,11.05,0,0.7,0.6,0.1,2.1999999999999997,10,initial,36.05,323,348,373,398,0,9,9,9,9,0,,,,,1,0,1,0,0,35,35,24,,,,,num_3,0.9390790001489222,num_3,0.25,0.7,0.10000000000000002,0.75,3.6865,27.64872,return,3.554829200031236,,,,,,,1,21,male,left_right_width,2023_Aug_13_1746,exp1,2021.2.3,59.9721728953744,
,,,,,,,,,,,,,,,,4,9.25,9.75,10.25,10.75,0,0.5,0.09999999999999998,0.4,1.9,10,initial,36.05,333,351,370,388,0,9,9,9,9,0,,,,,1,0,1,0,0,36,36,22,,,,,num_3,0.6387139998842031,num_3,0.25,0.7,0.39999999999999997,0.7,14.74598,25.80547,return,5.22061840002425,,,,,,,1,21,male,left_right_width,2023_Aug_13_1746,exp1,2021.2.3,59.9721728953744,
,,,,,,,,,,,,,,,,5,8.95,9.475,10,10.525,11.05,0.525,0.42500000000000004,0.1,2.2,10,match,36.05,323,342,361,379,398,9,9,9,9,9,,,,,1,0,1,0,0,37,37,25,,,,,num_4,1.13032569992356,num_4,0.3,0.3,0.10000000000000002,0.4,3.6865,14.74598,return,4.107150999829173,,,,,,,1,21,male,left_right_width,2023_Aug_13_1746,exp1,2021.2.3,59.9721728953744,
,,,,,,,,,,,,,,,,4,8.95,9.65,10.35,11.05,0,0.7,0.44999999999999996,0.25,2.3499999999999996,10,initial,36.05,323,348,373,398,0,9,9,9,9,0,,,,,1,0,1,0,0,38,38,26,,,,,num_4,0.8319386001676321,num_4,0.3,0.5,0.2,0.6,7.37299,22.11898,return,2.3669047001749277,,,,,,,1,21,male,left_right_width,2023_Aug_13_1746,exp1,2021.2.3,59.9721728953744,
,,,,,,,,,,,,,,,,3,9.5,10,10.5,0,0,0.5,0.25,0.25,1.25,10,initial,36.05,342,361,379,0,0,9,9,9,0,0,,,,,1,0,1,0,0,39,39,2,,,,,num_2,0.9179873999673873,num_2,0.15,1.6,0.25,0.5,9.21624,18.43248,return,4.815181500045583,,,,,,,1,21,male,left_right_width,2023_Aug_13_1746,exp1,2021.2.3,59.9721728953744,
,,,,,,,,,,,,,,,,5,9.25,9.625,10,10.375,10.75,0.375,0.125,0.25,1.75,10,match,36.05,333,347,361,374,388,9,9,9,9,9,,,,,1,0,1,0,0,40,40,21,,,,,num_4,1.2406399000901729,num_4,0.35,0.9,0.2,0.5,7.37299,18.43248,return,6.405148999998346,,,,,,,1,21,male,left_right_width,2023_Aug_13_1746,exp1,2021.2.3,59.9721728953744,
,,,,,,,,,,,,,,,,4,9.3,9.766666666666667,10.233333333333333,10.7,0,0.4666666666666667,0.3666666666666667,0.1,1.5,10,match,36.05,335,352,369,386,0,9,9,9,9,0,,,,,1,0,1,0,0,41,41,7,,,,,num_4,1.1262085000053048,num_4,0.1,0.7,0.1,0.4,3.6865,14.74598,return,1.911652699811384,,,,,,,1,21,male,left_right_width,2023_Aug_13_1746,exp1,2021.2.3,59.9721728953744,
,,,,,,,,,,,,,,,,3,9.3,10,10.7,0,0,0.7,0.6,0.1,1.5,10,initial,36.05,335,361,386,0,0,9,9,9,0,0,,,,,1,0,1,0,0,42,42,6,,,,,num_2,0.785891099832952,num_2,0.4,1.6,0.10000000000000007,0.8,3.6865,29.49197,return,3.9534333997871727,,,,,,,1,21,male,left_right_width,2023_Aug_13_1746,exp1,2021.2.3,59.9721728953744,
,,,,,,,,,,,,,,,,3,9.1,10,10.9,0,0,0.9,0.5,0.4,2.2,10,initial,36.05,328,361,393,0,0,9,9,9,0,0,,,,,1,0,1,0,0,43,43,16,,,,,num_2,0.889532099943608,num_2,0.1,1.6,0.8000000000000002,1.4,29.49197,51.61094,return,5.5356717999093235,,,,,,,1,21,male,left_right_width,2023_Aug_13_1746,exp1,2021.2.3,59.9721728953744,
,,,,,,,,,,,,,,,,4,9.25,9.75,10.25,10.75,0,0.5,0.4,0.1,1.6,10,initial,36.05,333,351,370,388,0,9,9,9,9,0,,,,,1,0,1,0,0,44,44,18,,,,,num_3,0.9578486001119018,num_3,0.3,0.6,0.05000000000000002,0.6,1.84325,22.11898,return,3.95780980004929,,,,,,,1,21,male,left_right_width,2023_Aug_13_1746,exp1,2021.2.3,59.9721728953744,
,,,,,,,,,,,,,,,,5,8.2,9.1,10,10.9,11.8,0.9,0.65,0.25,3.85,10,initial,36.05,296,328,361,393,425,9,9,9,9,9,,,,,1,0,1,0,0,45,45,50,,,,,num_4,1.0729420999996364,num_4,0.4,0.6,0.10000000000000007,0.8,3.6865,29.49197,return,4.244173899991438,,,,,,,1,21,male,left_right_width,2023_Aug_13_1746,exp1,2021.2.3,59.9721728953744,
,,,,,,,,,,,,,,,,4,9.3,9.766666666666667,10.233333333333333,10.7,0,0.4666666666666667,0.06666666666666665,0.4,1.8,10,match,36.05,335,352,369,386,0,9,9,9,9,0,,,,,1,0,1,0,0,46,46,11,,,,,num_3,0.849978799931705,num_3,0.25,0.9,0.44999999999999996,0.55,16.58923,20.27573,return,5.134476899867877,,,,,,,1,21,male,left_right_width,2023_Aug_13_1746,exp1,2021.2.3,59.9721728953744,
,,,,,,,,,,,,,,,,5,8.95,9.475,10,10.525,11.05,0.525,0.125,0.4,2.5,10,match,36.05,323,342,361,379,398,9,9,9,9,9,,,,,1,0,1,0,0,47,47,29,,,,,num_4,1.0667762998491526,num_4,0.25,1.1,0.44999999999999996,0.6,16.58923,22.11898,return,12.077538300072774,,,,,,,1,21,male,left_right_width,2023_Aug_13_1746,exp1,2021.2.3,59.9721728953744,
,,,,,,,,,,,,,,,,3,9,10,11,0,0,0.9999999999999999,0.5999999999999999,0.4,2.4,10,match,36.05,324,361,397,0,0,9,9,9,0,0,,,,,1,0,1,0,0,48,48,41,,,,,num_3,1.006687100045383,num_3,0.35,1,0.35,1,12.90274,36.86496,return,0.8526607998646796,,,,,,,1,21,male,left_right_width,2023_Aug_13_1746,exp1,2021.2.3,59.9721728953744,
,,,,,,,,,,,,,,,,5,8.6,9.3,10,10.7,11.4,0.7,0.6,0.1,2.9,10,initial,36.05,310,335,361,386,411,9,9,9,9,9,,,,,1,0,1,0,0,49,49,42,,,,,num_4,0.7234452001284808,num_4,0.1,0.5,0.1,0.7,3.6865,25.80547,return,1.4598499999847263,,,,,,,1,21,male,left_right_width,2023_Aug_13_1746,exp1,2021.2.3,59.9721728953744,
,,,,,,,,,,,,,,,,3,8.6,10,11.4,0,0,1.4,1.2999999999999998,0.1,2.9,10,match,36.05,310,361,411,0,0,9,9,9,0,0,,,,,1,0,1,0,0,50,50,43,,,,,num_3,2.4595849998295307,num_3,0.35,1.1,0.10000000000000002,1.1,3.6865,40.55146,return,3.399409299949184,,,,,,,1,21,male,left_right_width,2023_Aug_13_1746,exp1,2021.2.3,59.9721728953744,
,,,,,,,,,,,,,,,,4,9.1,9.7,10.3,10.9,0,0.6,0.5,0.1,1.9,10,match,36.05,328,350,371,393,0,9,9,9,9,0,,,,,1,0,1,0,0,51,51,13,,,,,num_3,0.7127562998794019,num_3,0.15,1.1,0.15,1.1,5.52974,40.55146,return,0.7776627000421286,,,,,,,1,21,male,left_right_width,2023_Aug_13_1746,exp1,2021.2.3,59.9721728953744,
,,,,,,,,,,,,,,,,3,8.2,10,11.8,0,0,1.8,1.55,0.25,3.85,10,match,36.05,296,361,425,0,0,9,9,9,0,0,,,,,1,0,1,0,0,52,52,51,,,,,num_2,0.8246993999928236,num_2,0.35,1.6,0.2,2.3,7.37299,84.78941,return,3.3986428000498563,,,,,,,1,21,male,left_right_width,2023_Aug_13_1746,exp1,2021.2.3,59.9721728953744,
,,,,,,,,,,,,,,,,5,8.6,9.3,10,10.7,11.4,0.7,0.29999999999999993,0.4,3.1999999999999997,10,initial,36.05,310,335,361,386,411,9,9,9,9,9,,,,,1,0,1,0,0,53,53,46,,,,,num_4,0.7992312000133097,num_4,0.1,0.4,0.39999999999999997,0.7,14.74598,25.80547,return,2.4636782000306994,,,,,,,1,21,male,left_right_width,2023_Aug_13_1746,exp1,2021.2.3,59.9721728953744,
,,,,,,,,,,,,,,,,,,,,,,,,,,,,,,,,,,,,,,,,,,,1,0,1,0,,,,,,,,,,,,,,,,,,,,,,1372.8342081001028,None,1372.8342081001028,None,1,21,male,left_right_width,2023_Aug_13_1746,exp1,2021.2.3,59.9721728953744,
,,,,,,,,,,,,,,,,4,9.3,9.766666666666667,10.233333333333333,10.7,0,0.4666666666666667,0.21666666666666665,0.25,1.65,10,match,36.05,335,352,369,386,0,9,9,9,9,0,,,,,2,0,2,0,0,0,0,9,,,,,num_3,0.9450020000804216,num_3,0.35,1.1,0.25,0.65,9.21624,23.96222,return,2.314480199944228,,,,,,,1,21,male,left_right_width,2023_Aug_13_1746,exp1,2021.2.3,59.9721728953744,
,,,,,,,,,,,,,,,,3,9.3,10,10.7,0,0,0.7,0.44999999999999996,0.25,1.65,10,initial,36.05,335,361,386,0,0,9,9,9,0,0,,,,,2,0,2,0,0,1,1,8,,,,,num_2,0.6541364002041519,num_2,0.2,1.6,0.3,0.8,11.05949,29.49197,return,3.7001434999983758,,,,,,,1,21,male,left_right_width,2023_Aug_13_1746,exp1,2021.2.3,59.9721728953744,
,,,,,,,,,,,,,,,,3,9,10,11,0,0,1,0.75,0.25,2.25,10,match,36.05,324,361,397,0,0,9,9,9,0,0,,,,,2,0,2,0,0,2,2,39,,,,,num_3,0.7274466000963002,num_3,0.4,0.5,0.30000000000000004,0.8,11.05949,29.49197,return,4.585427500074729,,,,,,,1,21,male,left_right_width,2023_Aug_13_1746,exp1,2021.2.3,59.9721728953744,
,,,,,,,,,,,,,,,,4,8.65,9.55,10.45,11.35,0,0.9,0.8,0.1,2.8000000000000003,10,initial,36.05,312,344,377,409,0,9,9,9,9,0,,,,,2,0,2,0,0,3,3,30,,,,,num_3,0.7627459999639541,num_3,0.35,1.3,0.15000000000000002,1.2,5.52974,44.23795,return,4.4911984000355005,,,,,,,1,21,male,left_right_width,2023_Aug_13_1746,exp1,2021.2.3,59.9721728953744,
,,,,,,,,,,,,,,,,5,8.95,9.475,10,10.525,11.05,0.525,0.125,0.4,2.5,10,match,36.05,323,342,361,379,398,9,9,9,9,9,,,,,2,0,2,0,0,4,4,29,,,,,num_3,0.9000558000989258,num_3,0.45,0.5,0.5,0.7,18.43248,25.80547,return,3.279698200058192,,,,,,,1,21,male,left_right_width,2023_Aug_13_1746,exp1,2021.2.3,59.9721728953744,
,,,,,,,,,,,,,,,,5,9,9.5,10,10.5,11,0.5,0.09999999999999998,0.4,2.4,10,initial,36.05,324,342,361,379,397,9,9,9,9,9,,,,,2,0,2,0,0,5,5,40,,,,,num_4,0.7287243998143822,num_4,0.1,0.8,0.49999999999999994,0.6,18.43248,22.11898,return,3.498856399906799,,,,,,,1,21,male,left_right_width,2023_Aug_13_1746,exp1,2021.2.3,59.9721728953744,
,,,,,,,,,,,,,,,,5,8.6,9.3,10,10.7,11.4,0.7,0.29999999999999993,0.4,3.1999999999999997,10,initial,36.05,310,335,361,386,411,9,9,9,9,9,,,,,2,0,2,0,0,6,6,46,,,,,num_4,0.8073054000269622,num_4,0.3,1.2,0.35,0.6,12.90274,22.11898,return,6.3582911000121385,,,,,,,1,21,male,left_right_width,2023_Aug_13_1746,exp1,2021.2.3,59.9721728953744,
,,,,,,,,,,,,,,,,3,8.6,10,11.4,0,0,1.4,1.15,0.25,3.05,10,match,36.05,310,361,411,0,0,9,9,9,0,0,,,,,2,0,2,0,0,7,7,45,,,,,num_2,0.7121607000008225,num_2,0.45,1.6,0.35000000000000003,2.0,12.90274,73.72992,return,2.443165299948305,,,,,,,1,21,male,left_right_width,2023_Aug_13_1746,exp1,2021.2.3,59.9721728953744,
,,,,,,,,,,,,,,,,4,9.5,9.833333333333334,10.166666666666666,10.5,0,0.3333333333333333,0.08333333333333333,0.25,1.25,10,match,36.05,342,354,367,379,0,9,9,9,9,0,,,,,2,0,2,0,0,8,8,3,,,,,num_3,1.3135948001872748,num_3,0.4,0.5,0.4,0.5,14.74598,18.43248,return,0.925171900074929,,,,,,,1,21,male,left_right_width,2023_Aug_13_1746,exp1,2021.2.3,59.9721728953744,
,,,,,,,,,,,,,,,,3,9.1,10,10.9,0,0,0.9,0.8,0.1,1.9000000000000001,10,initial,36.05,328,361,393,0,0,9,9,9,0,0,,,,,2,0,2,0,0,9,9,12,,,,,num_2,1.65732860006392,num_2,0.4,1.6,0.20000000000000007,1.1,7.37299,40.55146,return,2.5312695999164134,,,,,,,1,21,male,left_right_width,2023_Aug_13_1746,exp1,2021.2.3,59.9721728953744,
,,,,,,,,,,,,,,,,3,8.2,10,11.8,0,0,1.7999999999999998,1.4,0.4,4,10,match,36.05,296,361,425,0,0,9,9,9,0,0,,,,,2,0,2,0,0,10,10,53,,,,,num_3,1.0433889999985695,num_3,0.3,0.7,0.39999999999999997,1.45,14.74598,53.45419,return,5.449857100145891,,,,,,,1,21,male,left_right_width,2023_Aug_13_1746,exp1,2021.2.3,59.9721728953744,
,,,,,,,,,,,,,,,,3,9.1,10,10.9,0,0,0.9,0.65,0.25,2.05,10,initial,36.05,328,361,393,0,0,9,9,9,0,0,,,,,2,0,2,0,0,11,11,14,,,,,num_3,1.749238200020045,num_3,0.15,0.3,0.3,1.3,11.05949,47.92445,return,6.494445699965581,,,,,,,1,21,male,left_right_width,2023_Aug_13_1746,exp1,2021.2.3,59.9721728953744,
,,,,,,,,,,,,,,,,3,9.3,10,10.7,0,0,0.7,0.6,0.1,1.5,10,initial,36.05,335,361,386,0,0,9,9,9,0,0,,,,,2,0,2,0,0,12,12,6,,,,,num_3,2.7315521999262273,num_3,0.1,0.6,0.1,0.6,3.6865,22.11898,return,0.9097561000380665,,,,,,,1,21,male,left_right_width,2023_Aug_13_1746,exp1,2021.2.3,59.9721728953744,
,,,,,,,,,,,,,,,,5,8.65,9.325,10,10.675,11.35,0.675,0.275,0.4,3.1,10,match,36.05,312,336,361,385,409,9,9,9,9,9,,,,,2,0,2,0,0,13,13,35,,,,,num_4,0.7355663999915123,num_4,0.15,0.6,0.35,0.7,12.90274,25.80547,return,3.2004090000409633,,,,,,,1,21,male,left_right_width,2023_Aug_13_1746,exp1,2021.2.3,59.9721728953744,
,,,,,,,,,,,,,,,,4,8.95,9.65,10.35,11.05,0,0.7,0.44999999999999996,0.25,2.3499999999999996,10,initial,36.05,323,348,373,398,0,9,9,9,9,0,,,,,2,0,2,0,0,14,14,26,,,,,num_3,0.9456416999455541,num_3,0.1,1.1,0.39999999999999997,1.0,14.74598,36.86496,return,5.098961800104007,,,,,,,1,21,male,left_right_width,2023_Aug_13_1746,exp1,2021.2.3,59.9721728953744,
,,,,,,,,,,,,,,,,3,8.2,10,11.8,0,0,1.8,1.55,0.25,3.85,10,match,36.05,296,361,425,0,0,9,9,9,0,0,,,,,2,0,2,0,0,15,15,51,,,,,num_3,1.2554274001158774,num_3,0.3,0.9,0.3,1.35,11.05949,49.7677,return,2.4827133000362664,,,,,,,1,21,male,left_right_width,2023_Aug_13_1746,exp1,2021.2.3,59.9721728953744,
,,,,,,,,,,,,,,,,4,8.65,9.55,10.45,11.35,0,0.9,0.5,0.4,3.1,10,initial,36.05,312,344,377,409,0,9,9,9,9,0,,,,,2,0,2,0,0,16,16,34,,,,,num_4,0.775474299909547,num_4,0.15,0.6,0.3,1.0,11.05949,36.86496,return,2.5660007998812944,,,,,,,1,21,male,left_right_width,2023_Aug_13_1746,exp1,2021.2.3,59.9721728953744,
,,,,,,,,,,,,,,,,5,8.2,9.1,10,10.9,11.8,0.9,0.65,0.25,3.85,10,initial,36.05,296,328,361,393,425,9,9,9,9,9,,,,,2,0,2,0,0,17,17,50,,,,,num_4,1.20341209997423,num_4,0.15,1.0,0.15,1.0,5.52974,36.86496,return,0.803055000025779,,,,,,,1,21,male,left_right_width,2023_Aug_13_1746,exp1,2021.2.3,59.9721728953744,
,,,,,,,,,,,,,,,,4,9.1,9.7,10.3,10.9,0,0.5999999999999999,0.3499999999999999,0.25,2.05,10,match,36.05,328,350,371,393,0,9,9,9,9,0,,,,,2,0,2,0,0,18,18,15,,,,,num_3,0.9467409001663327,num_3,0.15,1,0.15,1,5.52974,36.86496,return,0.7937826002016664,,,,,,,1,21,male,left_right_width,2023_Aug_13_1746,exp1,2021.2.3,59.9721728953744,
,,,,,,,,,,,,,,,,5,9,9.5,10,10.5,11,0.5,0.4,0.1,2.1,10,initial,36.05,324,342,361,379,397,9,9,9,9,9,,,,,2,0,2,0,0,19,19,36,,,,,num_5,1.1887173999566585,num_5,0.15,0.9,0.15,0.75,5.52974,27.64872,return,2.1804678000044078,,,,,,,1,21,male,left_right_width,2023_Aug_13_1746,exp1,2021.2.3,59.9721728953744,
,,,,,,,,,,,,,,,,4,9.1,9.7,10.3,10.9,0,0.6000000000000001,0.20000000000000004,0.4,2.2,10,match,36.05,328,350,371,393,0,9,9,9,9,0,,,,,2,0,2,0,0,20,20,17,,,,,num_4,1.7115545999258757,num_4,0.45,1.1,0.35000000000000003,0.6,12.90274,22.11898,return,5.1305790999904275,,,,,,,1,21,male,left_right_width,2023_Aug_13_1746,exp1,2021.2.3,59.9721728953744,
,,,,,,,,,,,,,,,,3,9,10,11,0,0,1,0.9,0.1,2.1,10,match,36.05,324,361,397,0,0,9,9,9,0,0,,,,,2,0,2,0,0,21,21,37,,,,,num_3,1.119621800025925,num_3,0.3,1.3,0.10000000000000002,0.95,3.6865,35.02171,return,4.7515266998670995,,,,,,,1,21,male,left_right_width,2023_Aug_13_1746,exp1,2021.2.3,59.9721728953744,
,,,,,,,,,,,,,,,,3,9.1,10,10.9,0,0,0.9,0.5,0.4,2.2,10,initial,36.05,328,361,393,0,0,9,9,9,0,0,,,,,2,0,2,0,0,22,22,16,,,,,num_2,0.7842987000476569,num_2,0.2,1.6,0.6,1.6,22.11898,58.98394,return,3.3438661000691354,,,,,,,1,21,male,left_right_width,2023_Aug_13_1746,exp1,2021.2.3,59.9721728953744,
,,,,,,,,,,,,,,,,4,8.65,9.55,10.45,11.35,0,0.9,0.65,0.25,2.95,10,initial,36.05,312,344,377,409,0,9,9,9,9,0,,,,,2,0,2,0,0,23,23,32,,,,,num_3,0.8449005000293255,num_3,0.15,1,0.35,1.05,12.90274,38.70821,return,2.0099806000944227,,,,,,,1,21,male,left_right_width,2023_Aug_13_1746,exp1,2021.2.3,59.9721728953744,
,,,,,,,,,,,,,,,,5,9.25,9.625,10,10.375,10.75,0.375,0.125,0.25,1.75,10,match,36.05,333,347,361,374,388,9,9,9,9,9,,,,,2,0,2,0,0,24,24,21,,,,,num_4,0.9442825000733137,num_4,0.3,1.2,0.15000000000000002,0.3,5.52974,11.05949,return,4.13673650007695,,,,,,,1,21,male,left_right_width,2023_Aug_13_1746,exp1,2021.2.3,59.9721728953744,
,,,,,,,,,,,,,,,,3,9.5,10,10.5,0,0,0.5,0.09999999999999998,0.4,1.4000000000000001,10,initial,36.05,342,361,379,0,0,9,9,9,0,0,,,,,2,0,2,0,0,25,25,4,,,,,num_3,0.922737600049004,num_3,0.4,0.9,0.35000000000000003,0.45,12.90274,16.58923,return,6.290475700050592,,,,,,,1,21,male,left_right_width,2023_Aug_13_1746,exp1,2021.2.3,59.9721728953744,
,,,,,,,,,,,,,,,,4,9.25,9.75,10.25,10.75,0,0.5,0.09999999999999998,0.4,1.9,10,initial,36.05,333,351,370,388,0,9,9,9,9,0,,,,,2,0,2,0,0,26,26,22,,,,,num_4,0.8691110999789089,num_4,0.4,1.0,0.4,0.5,14.74598,18.43248,return,3.8173478001262993,,,,,,,1,21,male,left_right_width,2023_Aug_13_1746,exp1,2021.2.3,59.9721728953744,
,,,,,,,,,,,,,,,,5,9.175,9.5875,10,10.4125,10.825,0.4125,0.16249999999999998,0.25,1.9,10,match,36.05,331,346,361,375,390,9,9,9,9,9,,,,,2,0,2,0,0,27,27,23,,,,,num_4,1.5831529998686165,num_4,0.2,0.3,0.2,0.3,7.37299,11.05949,return,0.8800413999706507,,,,,,,1,21,male,left_right_width,2023_Aug_13_1746,exp1,2021.2.3,59.9721728953744,
,,,,,,,,,,,,,,,,5,8.6,9.3,10,10.7,11.4,0.7,0.44999999999999996,0.25,3.05,10,initial,36.05,310,335,361,386,411,9,9,9,9,9,,,,,2,0,2,0,0,28,28,44,,,,,num_5,1.8429580999072641,num_5,0.3,1.1,0.3,1.1,11.05949,40.55146,return,0.8562614999245852,,,,,,,1,21,male,left_right_width,2023_Aug_13_1746,exp1,2021.2.3,59.9721728953744,
,,,,,,,,,,,,,,,,3,9.5,10,10.5,0,0,0.5,0.4,0.1,1.1,10,initial,36.05,342,361,379,0,0,9,9,9,0,0,,,,,2,0,2,0,0,29,29,0,,,,,num_2,1.5743609999772161,num_2,0.35,1.6,0.2,0.7,7.37299,25.80547,return,4.726020999951288,,,,,,,1,21,male,left_right_width,2023_Aug_13_1746,exp1,2021.2.3,59.9721728953744,
,,,,,,,,,,,,,,,,5,8.65,9.325,10,10.675,11.35,0.675,0.42500000000000004,0.25,2.95,10,match,36.05,312,336,361,385,409,9,9,9,9,9,,,,,2,0,2,0,0,30,30,33,,,,,num_4,14.527798499912024,num_4,0.2,1.2,0.2,1.1,7.37299,40.55146,return,0.8901889999397099,,,,,,,1,21,male,left_right_width,2023_Aug_13_1746,exp1,2021.2.3,59.9721728953744,
,,,,,,,,,,,,,,,,5,8.65,9.325,10,10.675,11.35,0.6749999999999999,0.575,0.1,2.8,10,match,36.05,312,336,361,385,409,9,9,9,9,9,,,,,2,0,2,0,0,31,31,31,,,,,num_4,0.696195799857378,num_4,0.35,0.6,0.05000000000000002,0.6,1.84325,22.11898,return,3.5004511999431998,,,,,,,1,21,male,left_right_width,2023_Aug_13_1746,exp1,2021.2.3,59.9721728953744,
,,,,,,,,,,,,,,,,4,9.5,9.833333333333334,10.166666666666666,10.5,0,0.33333333333333337,0.23333333333333336,0.1,1.1,10,match,36.05,342,354,367,379,0,9,9,9,9,0,,,,,2,0,2,0,0,32,32,1,,,,,num_3,1.265976200113073,num_3,0.1,0.4,0.1,0.4,3.6865,14.74598,return,0.6560186001006514,,,,,,,1,21,male,left_right_width,2023_Aug_13_1746,exp1,2021.2.3,59.9721728953744,
,,,,,,,,,,,,,,,,3,9.3,10,10.7,0,0,0.7,0.29999999999999993,0.4,1.8,10,initial,36.05,335,361,386,0,0,9,9,9,0,0,,,,,2,0,2,0,0,33,33,10,,,,,num_2,1.0367731999140233,num_2,0.2,1.6,0.49999999999999994,1.0,18.43248,36.86496,return,4.499148399801925,,,,,,,1,21,male,left_right_width,2023_Aug_13_1746,exp1,2021.2.3,59.9721728953744,
,,,,,,,,,,,,,,,,3,8.525,10,11.475,0,0,1.475,1.225,0.25,3.2,10,match,36.05,307,361,414,0,0,9,9,9,0,0,,,,,2,0,2,0,0,34,34,47,,,,,num_3,1.1248742998577654,num_3,0.35,0.9,0.2,1.05,7.37299,38.70821,return,2.4235149999149144,,,,,,,1,21,male,left_right_width,2023_Aug_13_1746,exp1,2021.2.3,59.9721728953744,
,,,,,,,,,,,,,,,,4,8.95,9.65,10.35,11.05,0,0.7,0.29999999999999993,0.4,2.5,10,initial,36.05,323,348,373,398,0,9,9,9,9,0,,,,,2,0,2,0,0,35,35,28,,,,,num_3,0.8080180999822915,num_3,0.3,1.2,0.44999999999999996,1.2,16.58923,44.23795,return,3.110981500009075,,,,,,,1,21,male,left_right_width,2023_Aug_13_1746,exp1,2021.2.3,59.9721728953744,
,,,,,,,,,,,,,,,,5,8.2,9.1,10,10.9,11.8,0.9,0.8,0.1,3.7,10,initial,36.05,296,328,361,393,425,9,9,9,9,9,,,,,2,0,2,0,0,36,36,48,,,,,num_4,0.7948502998333424,num_4,0.25,0.3,0.10000000000000002,0.8,3.6865,29.49197,return,2.6179820001125336,,,,,,,1,21,male,left_right_width,2023_Aug_13_1746,exp1,2021.2.3,59.9721728953744,
,,,,,,,,,,,,,,,,5,9,9.5,10,10.5,11,0.5,0.25,0.25,2.25,10,initial,36.05,324,342,361,379,397,9,9,9,9,9,,,,,2,0,2,0,0,37,37,38,,,,,num_4,6.049998400034383,num_4,0.15,0.8,0.15,0.8,5.52974,29.49197,return,1.0868334998376667,,,,,,,1,21,male,left_right_width,2023_Aug_13_1746,exp1,2021.2.3,59.9721728953744,
,,,,,,,,,,,,,,,,4,9.3,9.766666666666667,10.233333333333333,10.7,0,0.4666666666666667,0.3666666666666667,0.1,1.5,10,match,36.05,335,352,369,386,0,9,9,9,9,0,,,,,2,0,2,0,0,38,38,7,,,,,num_4,1.5149904999416322,num_4,0.2,0.3,0.10000000000000002,0.4,3.6865,14.74598,return,2.2378126000985503,,,,,,,1,21,male,left_right_width,2023_Aug_13_1746,exp1,2021.2.3,59.9721728953744,
,,,,,,,,,,,,,,,,3,8.6,10,11.4,0,0,1.4,1.2999999999999998,0.1,2.9,10,match,36.05,310,361,411,0,0,9,9,9,0,0,,,,,2,0,2,0,0,39,39,43,,,,,num_2,1.1907516999635845,num_2,0.4,1.6,0.10000000000000007,1.6,3.6865,58.98394,return,2.083347500069067,,,,,,,1,21,male,left_right_width,2023_Aug_13_1746,exp1,2021.2.3,59.9721728953744,
,,,,,,,,,,,,,,,,3,9,10,11,0,0,0.9999999999999999,0.5999999999999999,0.4,2.4,10,match,36.05,324,361,397,0,0,9,9,9,0,0,,,,,2,0,2,0,0,40,40,41,,,,,num_2,0.6974809998646379,num_2,0.3,1.6,0.44999999999999996,1.6,16.58923,58.98394,return,1.6282252999953926,,,,,,,1,21,male,left_right_width,2023_Aug_13_1746,exp1,2021.2.3,59.9721728953744,
,,,,,,,,,,,,,,,,5,8.95,9.475,10,10.525,11.05,0.525,0.275,0.25,2.35,10,match,36.05,323,342,361,379,398,9,9,9,9,9,,,,,2,0,2,0,0,41,41,27,,,,,num_4,0.8923717001453042,num_4,0.1,1.0,0.25,0.7,9.21624,25.80547,return,2.4873154000379145,,,,,,,1,21,male,left_right_width,2023_Aug_13_1746,exp1,2021.2.3,59.9721728953744,
,,,,,,,,,,,,,,,,4,9.1,9.7,10.3,10.9,0,0.6,0.5,0.1,1.9,10,match,36.05,328,350,371,393,0,9,9,9,9,0,,,,,2,0,2,0,0,42,42,13,,,,,num_3,0.8707239001523703,num_3,0.45,0.5,0.10000000000000007,0.75,3.6865,27.64872,return,5.410551100037992,,,,,,,1,21,male,left_right_width,2023_Aug_13_1746,exp1,2021.2.3,59.9721728953744,
,,,,,,,,,,,,,,,,4,8.95,9.65,10.35,11.05,0,0.7,0.6,0.1,2.1999999999999997,10,initial,36.05,323,348,373,398,0,9,9,9,9,0,,,,,2,0,2,0,0,43,43,24,,,,,num_4,1.8427264001220465,num_4,0.45,0.6,0.15000000000000008,0.8,5.52974,29.49197,return,6.277777600102127,,,,,,,1,21,male,left_right_width,2023_Aug_13_1746,exp1,2021.2.3,59.9721728953744,
,,,,,,,,,,,,,,,,4,9.3,9.766666666666667,10.233333333333333,10.7,0,0.4666666666666667,0.06666666666666665,0.4,1.8,10,match,36.05,335,352,369,386,0,9,9,9,9,0,,,,,2,0,2,0,0,44,44,11,,,,,num_4,1.7092633000575006,num_4,0.1,1.3,0.3,0.4,11.05949,14.74598,return,5.957098300103098,,,,,,,1,21,male,left_right_width,2023_Aug_13_1746,exp1,2021.2.3,59.9721728953744,
,,,,,,,,,,,,,,,,5,8.95,9.475,10,10.525,11.05,0.525,0.42500000000000004,0.1,2.2,10,match,36.05,323,342,361,379,398,9,9,9,9,9,,,,,2,0,2,0,0,45,45,25,,,,,num_4,0.8159457000438124,num_4,0.15,0.4,0.15,0.4,5.52974,14.74598,return,0.7993245001416653,,,,,,,1,21,male,left_right_width,2023_Aug_13_1746,exp1,2021.2.3,59.9721728953744,
,,,,,,,,,,,,,,,,5,9.25,9.625,10,10.375,10.75,0.375,0.275,0.1,1.6,10,match,36.05,333,347,361,374,388,9,9,9,9,9,,,,,2,0,2,0,0,46,46,19,,,,,num_4,0.6992633999325335,num_4,0.2,0.5,0.15000000000000002,0.5,5.52974,18.43248,return,2.7994999999646097,,,,,,,1,21,male,left_right_width,2023_Aug_13_1746,exp1,2021.2.3,59.9721728953744,
,,,,,,,,,,,,,,,,4,9.25,9.75,10.25,10.75,0,0.5,0.25,0.25,1.75,10,initial,36.05,333,351,370,388,0,9,9,9,9,0,,,,,2,0,2,0,0,47,47,20,,,,,num_3,1.3513413001783192,num_3,0.2,0.5,0.2,0.5,7.37299,18.43248,return,0.9259801998268813,,,,,,,1,21,male,left_right_width,2023_Aug_13_1746,exp1,2021.2.3,59.9721728953744,
,,,,,,,,,,,,,,,,5,8.6,9.3,10,10.7,11.4,0.7,0.6,0.1,2.9,10,initial,36.05,310,335,361,386,411,9,9,9,9,9,,,,,2,0,2,0,0,48,48,42,,,,,num_4,0.7862432000692934,num_4,0.1,0.6,0.1,0.8,3.6865,29.49197,return,2.7700904000084847,,,,,,,1,21,male,left_right_width,2023_Aug_13_1746,exp1,2021.2.3,59.9721728953744,
,,,,,,,,,,,,,,,,3,9.5,10,10.5,0,0,0.5,0.25,0.25,1.25,10,initial,36.05,342,361,379,0,0,9,9,9,0,0,,,,,2,0,2,0,0,49,49,2,,,,,num_2,1.045567800058052,num_2,0.45,1.6,0.25000000000000006,0.6,9.21624,22.11898,return,7.002167099853978,,,,,,,1,21,male,left_right_width,2023_Aug_13_1746,exp1,2021.2.3,59.9721728953744,
,,,,,,,,,,,,,,,,4,9.25,9.75,10.25,10.75,0,0.5,0.4,0.1,1.6,10,initial,36.05,333,351,370,388,0,9,9,9,9,0,,,,,2,0,2,0,0,50,50,18,,,,,num_3,1.4196359000634402,num_3,0.35,0.4,0.10000000000000002,0.5,3.6865,18.43248,return,2.4025826000142843,,,,,,,1,21,male,left_right_width,2023_Aug_13_1746,exp1,2021.2.3,59.9721728953744,
,,,,,,,,,,,,,,,,5,8.2,9.1,10,10.9,11.8,0.9,0.5,0.4,4,10,initial,36.05,296,328,361,393,425,9,9,9,9,9,,,,,2,0,2,0,0,51,51,52,,,,,num_4,0.9225003998726606,num_4,0.2,1.0,0.35,1.0,12.90274,36.86496,return,1.746565599925816,,,,,,,1,21,male,left_right_width,2023_Aug_13_1746,exp1,2021.2.3,59.9721728953744,
,,,,,,,,,,,,,,,,4,9.425,9.808333333333334,10.191666666666666,10.575,0,0.3833333333333333,0.1333333333333333,0.25,1.4,10,match,36.05,340,354,367,381,0,9,9,9,9,0,,,,,2,0,2,0,0,52,52,5,,,,,num_3,0.7908707000315189,num_3,0.35,0.5,0.35,0.5,12.90274,18.43248,return,0.5991697998251766,,,,,,,1,21,male,left_right_width,2023_Aug_13_1746,exp1,2021.2.3,59.9721728953744,
,,,,,,,,,,,,,,,,3,8.2,10,11.8,0,0,1.8000000000000003,1.7000000000000002,0.1,3.7,10,match,36.05,296,361,425,0,0,9,9,9,0,0,,,,,2,0,2,0,0,53,53,49,,,,,num_2,1.4728930999990553,num_2,0.1,1.6,0.1,1.6,3.6865,58.98394,return,0.6115115000866354,,,,,,,1,21,male,left_right_width,2023_Aug_13_1746,exp1,2021.2.3,59.9721728953744,
,,,,,,,,,,,,,,,,,,,,,,,,,,,,,,,,,,,,,,,,,,,2,0,2,0,,,,,,,,,,,,,,,,,,,,,,1710.4339716001414,None,1710.4339716001414,None,1,21,male,left_right_width,2023_Aug_13_1746,exp1,2021.2.3,59.9721728953744,
,,,,,,,,,,,,,,,,5,9.25,9.625,10,10.375,10.75,0.375,0.275,0.1,1.6,10,match,36.05,333,347,361,374,388,9,9,9,9,9,,,,,3,0,3,0,0,0,0,19,,,,,num_4,0.9155129999853671,num_4,0.3,1.2,0.10000000000000002,0.5,3.6865,18.43248,return,3.9312358000315726,,,,,,,1,21,male,left_right_width,2023_Aug_13_1746,exp1,2021.2.3,59.9721728953744,
,,,,,,,,,,,,,,,,5,8.95,9.475,10,10.525,11.05,0.525,0.125,0.4,2.5,10,match,36.05,323,342,361,379,398,9,9,9,9,9,,,,,3,0,3,0,0,1,1,29,,,,,num_4,0.8614241001196206,num_4,0.4,0.5,0.4,0.5,14.74598,18.43248,return,0.5388386999256909,,,,,,,1,21,male,left_right_width,2023_Aug_13_1746,exp1,2021.2.3,59.9721728953744,
,,,,,,,,,,,,,,,,4,9.3,9.766666666666667,10.233333333333333,10.7,0,0.4666666666666667,0.3666666666666667,0.1,1.5,10,match,36.05,335,352,369,386,0,9,9,9,9,0,,,,,3,0,3,0,0,2,2,7,,,,,num_3,0.877561500063166,num_3,0.2,0.4,0.2,0.4,7.37299,14.74598,return,1.193797100102529,,,,,,,1,21,male,left_right_width,2023_Aug_13_1746,exp1,2021.2.3,59.9721728953744,
,,,,,,,,,,,,,,,,4,9.3,9.766666666666667,10.233333333333333,10.7,0,0.4666666666666667,0.21666666666666665,0.25,1.65,10,match,36.05,335,352,369,386,0,9,9,9,9,0,,,,,3,0,3,0,0,3,3,9,,,,,num_3,1.072081700200215,num_3,0.3,0.8,0.2,0.5,7.37299,18.43248,return,2.725408700061962,,,,,,,1,21,male,left_right_width,2023_Aug_13_1746,exp1,2021.2.3,59.9721728953744,
,,,,,,,,,,,,,,,,5,8.65,9.325,10,10.675,11.35,0.6749999999999999,0.575,0.1,2.8,10,match,36.05,312,336,361,385,409,9,9,9,9,9,,,,,3,0,3,0,0,4,4,31,,,,,num_4,0.8456337000243366,num_4,0.35,0.7,0.15000000000000002,0.7,5.52974,25.80547,return,4.169870800105855,,,,,,,1,21,male,left_right_width,2023_Aug_13_1746,exp1,2021.2.3,59.9721728953744,
,,,,,,,,,,,,,,,,4,8.95,9.65,10.35,11.05,0,0.7,0.29999999999999993,0.4,2.5,10,initial,36.05,323,348,373,398,0,9,9,9,9,0,,,,,3,0,3,0,0,5,5,28,,,,,num_3,0.8590770999435335,num_3,0.15,0.6,0.35,0.65,12.90274,23.96222,return,2.8880278000142425,,,,,,,1,21,male,left_right_width,2023_Aug_13_1746,exp1,2021.2.3,59.9721728953744,
,,,,,,,,,,,,,,,,4,9.1,9.7,10.3,10.9,0,0.6000000000000001,0.20000000000000004,0.4,2.2,10,match,36.05,328,350,371,393,0,9,9,9,9,0,,,,,3,0,3,0,0,6,6,17,,,,,num_3,1.1788999000564218,num_3,0.25,0.8,0.39999999999999997,0.7,14.74598,25.80547,return,7.770078099798411,,,,,,,1,21,male,left_right_width,2023_Aug_13_1746,exp1,2021.2.3,59.9721728953744,
,,,,,,,,,,,,,,,,5,9.175,9.5875,10,10.4125,10.825,0.4125,0.16249999999999998,0.25,1.9,10,match,36.05,331,346,361,375,390,9,9,9,9,9,,,,,3,0,3,0,0,7,7,23,,,,,num_4,0.7749256000388414,num_4,0.4,0.6,0.30000000000000004,0.5,11.05949,18.43248,return,3.4286275000777096,,,,,,,1,21,male,left_right_width,2023_Aug_13_1746,exp1,2021.2.3,59.9721728953744,
,,,,,,,,,,,,,,,,3,9,10,11,0,0,1,0.75,0.25,2.25,10,match,36.05,324,361,397,0,0,9,9,9,0,0,,,,,3,0,3,0,0,8,8,39,,,,,num_3,0.9018465999979526,num_3,0.4,0.8,0.20000000000000007,0.85,7.37299,31.33522,return,2.1430276001337916,,,,,,,1,21,male,left_right_width,2023_Aug_13_1746,exp1,2021.2.3,59.9721728953744,
,,,,,,,,,,,,,,,,3,9.3,10,10.7,0,0,0.7,0.6,0.1,1.5,10,initial,36.05,335,361,386,0,0,9,9,9,0,0,,,,,3,0,3,0,0,9,9,6,,,,,num_2,1.4956253001000732,num_2,0.3,1.6,0.15000000000000002,1.3,5.52974,47.92445,return,4.826238499954343,,,,,,,1,21,male,left_right_width,2023_Aug_13_1746,exp1,2021.2.3,59.9721728953744,
,,,,,,,,,,,,,,,,3,9.3,10,10.7,0,0,0.7,0.44999999999999996,0.25,1.65,10,initial,36.05,335,361,386,0,0,9,9,9,0,0,,,,,3,0,3,0,0,10,10,8,,,,,num_3,0.8344392001163214,num_3,0.3,1.1,0.3,1.0,11.05949,36.86496,return,1.5177233999129385,,,,,,,1,21,male,left_right_width,2023_Aug_13_1746,exp1,2021.2.3,59.9721728953744,
,,,,,,,,,,,,,,,,3,8.525,10,11.475,0,0,1.475,1.225,0.25,3.2,10,match,36.05,307,361,414,0,0,9,9,9,0,0,,,,,3,0,3,0,0,11,11,47,,,,,num_2,0.69125029980205,num_2,0.4,1.6,0.25000000000000006,2.0,9.21624,73.72992,return,2.101045100018382,,,,,,,1,21,male,left_right_width,2023_Aug_13_1746,exp1,2021.2.3,59.9721728953744,
,,,,,,,,,,,,,,,,5,8.6,9.3,10,10.7,11.4,0.7,0.6,0.1,2.9,10,initial,36.05,310,335,361,386,411,9,9,9,9,9,,,,,3,0,3,0,0,12,12,42,,,,,num_4,1.0120191001333296,num_4,0.3,0.4,0.15000000000000002,0.8,5.52974,29.49197,return,2.954027700005099,,,,,,,1,21,male,left_right_width,2023_Aug_13_1746,exp1,2021.2.3,59.9721728953744,
,,,,,,,,,,,,,,,,5,8.2,9.1,10,10.9,11.8,0.9,0.65,0.25,3.85,10,initial,36.05,296,328,361,393,425,9,9,9,9,9,,,,,3,0,3,0,0,13,13,50,,,,,num_5,0.9928434998728335,num_5,0.3,1.0,0.3,1.0,11.05949,36.86496,return,0.9974992999341339,,,,,,,1,21,male,left_right_width,2023_Aug_13_1746,exp1,2021.2.3,59.9721728953744,
,,,,,,,,,,,,,,,,3,8.2,10,11.8,0,0,1.7999999999999998,1.4,0.4,4,10,match,36.05,296,361,425,0,0,9,9,9,0,0,,,,,3,0,3,0,0,14,14,53,,,,,num_2,1.2549539001192898,num_2,0.3,1.6,0.3,2.4,11.05949,88.4759,return,2.355112000135705,,,,,,,1,21,male,left_right_width,2023_Aug_13_1746,exp1,2021.2.3,59.9721728953744,
,,,,,,,,,,,,,,,,5,8.65,9.325,10,10.675,11.35,0.675,0.42500000000000004,0.25,2.95,10,match,36.05,312,336,361,385,409,9,9,9,9,9,,,,,3,0,3,0,0,15,15,33,,,,,num_5,2.181675000116229,num_5,0.25,1.0,0.25,1.0,9.21624,36.86496,return,2.8620289999525994,,,,,,,1,21,male,left_right_width,2023_Aug_13_1746,exp1,2021.2.3,59.9721728953744,
,,,,,,,,,,,,,,,,3,9.5,10,10.5,0,0,0.5,0.4,0.1,1.1,10,initial,36.05,342,361,379,0,0,9,9,9,0,0,,,,,3,0,3,0,0,16,16,0,,,,,num_2,0.7436145998071879,num_2,0.35,1.6,0.25,0.8,9.21624,29.49197,return,3.0495372998993844,,,,,,,1,21,male,left_right_width,2023_Aug_13_1746,exp1,2021.2.3,59.9721728953744,
,,,,,,,,,,,,,,,,5,8.6,9.3,10,10.7,11.4,0.7,0.44999999999999996,0.25,3.05,10,initial,36.05,310,335,361,386,411,9,9,9,9,9,,,,,3,0,3,0,0,17,17,44,,,,,num_4,0.903514500008896,num_4,0.15,0.7,0.3,0.7,11.05949,25.80547,return,1.4745096999686211,,,,,,,1,21,male,left_right_width,2023_Aug_13_1746,exp1,2021.2.3,59.9721728953744,
,,,,,,,,,,,,,,,,5,8.2,9.1,10,10.9,11.8,0.9,0.5,0.4,4,10,initial,36.05,296,328,361,393,425,9,9,9,9,9,,,,,3,0,3,0,0,18,18,52,,,,,num_4,0.7977547000627965,num_4,0.4,0.6,0.30000000000000004,0.9,11.05949,33.17846,return,2.1258811000734568,,,,,,,1,21,male,left_right_width,2023_Aug_13_1746,exp1,2021.2.3,59.9721728953744,
,,,,,,,,,,,,,,,,5,8.65,9.325,10,10.675,11.35,0.675,0.275,0.4,3.1,10,match,36.05,312,336,361,385,409,9,9,9,9,9,,,,,3,0,3,0,0,19,19,35,,,,,num_4,0.7501230998896062,num_4,0.2,0.5,0.3,0.7,11.05949,25.80547,return,1.901942899916321,,,,,,,1,21,male,left_right_width,2023_Aug_13_1746,exp1,2021.2.3,59.9721728953744,
,,,,,,,,,,,,,,,,3,9.5,10,10.5,0,0,0.5,0.09999999999999998,0.4,1.4000000000000001,10,initial,36.05,342,361,379,0,0,9,9,9,0,0,,,,,3,0,3,0,0,20,20,4,,,,,num_2,0.886374199995771,num_2,0.15,1.6,0.39999999999999997,0.5,14.74598,18.43248,return,9.585960200056434,,,,,,,1,21,male,left_right_width,2023_Aug_13_1746,exp1,2021.2.3,59.9721728953744,
,,,,,,,,,,,,,,,,4,8.65,9.55,10.45,11.35,0,0.9,0.65,0.25,2.95,10,initial,36.05,312,344,377,409,0,9,9,9,9,0,,,,,3,0,3,0,0,21,21,32,,,,,num_4,1.4448261000216007,num_4,0.2,0.3,0.2,0.8,7.37299,29.49197,return,2.0580583999399096,,,,,,,1,21,male,left_right_width,2023_Aug_13_1746,exp1,2021.2.3,59.9721728953744,
,,,,,,,,,,,,,,,,5,9,9.5,10,10.5,11,0.5,0.4,0.1,2.1,10,initial,36.05,324,342,361,379,397,9,9,9,9,9,,,,,3,0,3,0,0,22,22,36,,,,,num_4,0.9763984999153763,num_4,0.45,0.8,0.15000000000000008,0.8,5.52974,29.49197,return,4.824511399958283,,,,,,,1,21,male,left_right_width,2023_Aug_13_1746,exp1,2021.2.3,59.9721728953744,
,,,,,,,,,,,,,,,,4,9.425,9.808333333333334,10.191666666666666,10.575,0,0.3833333333333333,0.1333333333333333,0.25,1.4,10,match,36.05,340,354,367,381,0,9,9,9,9,0,,,,,3,0,3,0,0,23,23,5,,,,,num_3,2.2532171001657844,num_3,0.45,1.3,0.35000000000000003,0.65,12.90274,23.96222,return,4.047311200061813,,,,,,,1,21,male,left_right_width,2023_Aug_13_1746,exp1,2021.2.3,59.9721728953744,
,,,,,,,,,,,,,,,,4,9.5,9.833333333333334,10.166666666666666,10.5,0,0.33333333333333337,0.23333333333333336,0.1,1.1,10,match,36.05,342,354,367,379,0,9,9,9,9,0,,,,,3,0,3,0,0,24,24,1,,,,,num_4,1.0949657999444753,num_4,0.1,1.1,0.1,0.4,3.6865,14.74598,return,4.041560699930415,,,,,,,1,21,male,left_right_width,2023_Aug_13_1746,exp1,2021.2.3,59.9721728953744,
,,,,,,,,,,,,,,,,3,9.1,10,10.9,0,0,0.9,0.65,0.25,2.05,10,initial,36.05,328,361,393,0,0,9,9,9,0,0,,,,,3,0,3,0,0,25,25,14,,,,,num_2,0.9906033000443131,num_2,0.15,1.6,0.15,0.8,5.52974,29.49197,return,2.854837500024587,,,,,,,1,21,male,left_right_width,2023_Aug_13_1746,exp1,2021.2.3,59.9721728953744,
,,,,,,,,,,,,,,,,5,8.6,9.3,10,10.7,11.4,0.7,0.29999999999999993,0.4,3.1999999999999997,10,initial,36.05,310,335,361,386,411,9,9,9,9,9,,,,,3,0,3,0,0,26,26,46,,,,,num_4,1.1790074999444187,num_4,0.35,1.0,0.35,0.8,12.90274,29.49197,return,2.827489099930972,,,,,,,1,21,male,left_right_width,2023_Aug_13_1746,exp1,2021.2.3,59.9721728953744,
,,,,,,,,,,,,,,,,5,8.2,9.1,10,10.9,11.8,0.9,0.8,0.1,3.7,10,initial,36.05,296,328,361,393,425,9,9,9,9,9,,,,,3,0,3,0,0,27,27,48,,,,,num_5,1.435913800029084,num_5,0.45,1.1,0.20000000000000007,1.05,7.37299,38.70821,return,4.0996381000149995,,,,,,,1,21,male,left_right_width,2023_Aug_13_1746,exp1,2021.2.3,59.9721728953744,
,,,,,,,,,,,,,,,,3,9,10,11,0,0,0.9999999999999999,0.5999999999999999,0.4,2.4,10,match,36.05,324,361,397,0,0,9,9,9,0,0,,,,,3,0,3,0,0,28,28,41,,,,,num_2,1.4860169999301434,num_2,0.1,1.6,0.1,1.6,3.6865,58.98394,return,6.833263100124896,,,,,,,1,21,male,left_right_width,2023_Aug_13_1746,exp1,2021.2.3,59.9721728953744,
,,,,,,,,,,,,,,,,3,8.6,10,11.4,0,0,1.4,1.15,0.25,3.05,10,match,36.05,310,361,411,0,0,9,9,9,0,0,,,,,3,0,3,0,0,29,29,45,,,,,num_2,1.8891110999975353,num_2,0.35,1.6,0.35,2.3,12.90274,84.78941,return,2.0218384999316186,,,,,,,1,21,male,left_right_width,2023_Aug_13_1746,exp1,2021.2.3,59.9721728953744,
,,,,,,,,,,,,,,,,3,9,10,11,0,0,1,0.9,0.1,2.1,10,match,36.05,324,361,397,0,0,9,9,9,0,0,,,,,3,0,3,0,0,30,30,37,,,,,num_2,0.8962650999892503,num_2,0.25,1.6,0.10000000000000002,1.9,3.6865,70.04342,return,1.7408024000469595,,,,,,,1,21,male,left_right_width,2023_Aug_13_1746,exp1,2021.2.3,59.9721728953744,
,,,,,,,,,,,,,,,,4,9.25,9.75,10.25,10.75,0,0.5,0.09999999999999998,0.4,1.9,10,initial,36.05,333,351,370,388,0,9,9,9,9,0,,,,,3,0,3,0,0,31,31,22,,,,,num_3,1.090058300178498,num_3,0.45,1.1,0.45,0.7,16.58923,25.80547,return,2.102453300030902,,,,,,,1,21,male,left_right_width,2023_Aug_13_1746,exp1,2021.2.3,59.9721728953744,
,,,,,,,,,,,,,,,,3,9.1,10,10.9,0,0,0.9,0.5,0.4,2.2,10,initial,36.05,328,361,393,0,0,9,9,9,0,0,,,,,3,0,3,0,0,32,32,16,,,,,num_2,0.9483197999652475,num_2,0.3,1.6,0.3,0.6,11.05949,22.11898,return,2.631586199859157,,,,,,,1,21,male,left_right_width,2023_Aug_13_1746,exp1,2021.2.3,59.9721728953744,
,,,,,,,,,,,,,,,,3,9.1,10,10.9,0,0,0.9,0.8,0.1,1.9000000000000001,10,initial,36.05,328,361,393,0,0,9,9,9,0,0,,,,,3,0,3,0,0,33,33,12,,,,,num_2,1.024990500183776,num_2,0.4,1.6,0.4,1.5,14.74598,55.29744,return,8.72643499984406,,,,,,,1,21,male,left_right_width,2023_Aug_13_1746,exp1,2021.2.3,59.9721728953744,
,,,,,,,,,,,,,,,,5,8.95,9.475,10,10.525,11.05,0.525,0.42500000000000004,0.1,2.2,10,match,36.05,323,342,361,379,398,9,9,9,9,9,,,,,3,0,3,0,0,34,34,25,,,,,num_4,1.0582025998737663,num_4,0.25,0.3,0.25,0.6,9.21624,22.11898,return,3.5425746000837535,,,,,,,1,21,male,left_right_width,2023_Aug_13_1746,exp1,2021.2.3,59.9721728953744,
,,,,,,,,,,,,,,,,3,8.2,10,11.8,0,0,1.8000000000000003,1.7000000000000002,0.1,3.7,10,match,36.05,296,361,425,0,0,9,9,9,0,0,,,,,3,0,3,0,0,35,35,49,,,,,num_2,0.9110143000725657,num_2,0.25,1.6,0.15000000000000002,2.3,5.52974,84.78941,return,3.049663199810311,,,,,,,1,21,male,left_right_width,2023_Aug_13_1746,exp1,2021.2.3,59.9721728953744,
,,,,,,,,,,,,,,,,5,9,9.5,10,10.5,11,0.5,0.09999999999999998,0.4,2.4,10,initial,36.05,324,342,361,379,397,9,9,9,9,9,,,,,3,0,3,0,0,36,36,40,,,,,num_5,1.6395384999923408,num_5,0.15,0.5,0.25,0.5,9.21624,18.43248,return,2.184021499939263,,,,,,,1,21,male,left_right_width,2023_Aug_13_1746,exp1,2021.2.3,59.9721728953744,
,,,,,,,,,,,,,,,,4,8.95,9.65,10.35,11.05,0,0.7,0.6,0.1,2.1999999999999997,10,initial,36.05,323,348,373,398,0,9,9,9,9,0,,,,,3,0,3,0,0,37,37,24,,,,,num_3,0.926837099948898,num_3,0.3,0.9,0.2,0.9,7.37299,33.17846,return,2.344321599928662,,,,,,,1,21,male,left_right_width,2023_Aug_13_1746,exp1,2021.2.3,59.9721728953744,
,,,,,,,,,,,,,,,,4,8.65,9.55,10.45,11.35,0,0.9,0.5,0.4,3.1,10,initial,36.05,312,344,377,409,0,9,9,9,9,0,,,,,3,0,3,0,0,38,38,34,,,,,num_3,1.1629689000546932,num_3,0.45,0.6,0.45,0.95,16.58923,35.02171,return,1.9321049998980016,,,,,,,1,21,male,left_right_width,2023_Aug_13_1746,exp1,2021.2.3,59.9721728953744,
,,,,,,,,,,,,,,,,4,8.65,9.55,10.45,11.35,0,0.9,0.8,0.1,2.8000000000000003,10,initial,36.05,312,344,377,409,0,9,9,9,9,0,,,,,3,0,3,0,0,39,39,30,,,,,num_3,0.7529231999069452,num_3,0.35,1.2,0.15000000000000002,1.2,5.52974,44.23795,return,2.2259297999553382,,,,,,,1,21,male,left_right_width,2023_Aug_13_1746,exp1,2021.2.3,59.9721728953744,
,,,,,,,,,,,,,,,,4,8.95,9.65,10.35,11.05,0,0.7,0.44999999999999996,0.25,2.3499999999999996,10,initial,36.05,323,348,373,398,0,9,9,9,9,0,,,,,3,0,3,0,0,40,40,26,,,,,num_3,0.9608591001015157,num_3,0.1,0.6,0.25,0.8,9.21624,29.49197,return,2.3271071000490338,,,,,,,1,21,male,left_right_width,2023_Aug_13_1746,exp1,2021.2.3,59.9721728953744,
,,,,,,,,,,,,,,,,4,9.3,9.766666666666667,10.233333333333333,10.7,0,0.4666666666666667,0.06666666666666665,0.4,1.8,10,match,36.05,335,352,369,386,0,9,9,9,9,0,,,,,3,0,3,0,0,41,41,11,,,,,num_3,1.848685499979183,num_3,0.1,0.4,0.6,1.05,22.11898,38.70821,return,13.275444300146773,,,,,,,1,21,male,left_right_width,2023_Aug_13_1746,exp1,2021.2.3,59.9721728953744,
,,,,,,,,,,,,,,,,5,8.95,9.475,10,10.525,11.05,0.525,0.275,0.25,2.35,10,match,36.05,323,342,361,379,398,9,9,9,9,9,,,,,3,0,3,0,0,42,42,27,,,,,num_4,7.037410499993712,num_4,0.4,0.6,0.4,0.6,14.74598,22.11898,return,0.8504505001474172,,,,,,,1,21,male,left_right_width,2023_Aug_13_1746,exp1,2021.2.3,59.9721728953744,
,,,,,,,,,,,,,,,,4,9.25,9.75,10.25,10.75,0,0.5,0.25,0.25,1.75,10,initial,36.05,333,351,370,388,0,9,9,9,9,0,,,,,3,0,3,0,0,43,43,20,,,,,num_3,1.3354026998858899,num_3,0.45,0.7,0.45,0.7,16.58923,25.80547,return,0.7833676999434829,,,,,,,1,21,male,left_right_width,2023_Aug_13_1746,exp1,2021.2.3,59.9721728953744,
,,,,,,,,,,,,,,,,4,9.5,9.833333333333334,10.166666666666666,10.5,0,0.3333333333333333,0.08333333333333333,0.25,1.25,10,match,36.05,342,354,367,379,0,9,9,9,9,0,,,,,3,0,3,0,0,44,44,3,,,,,num_3,1.0319926000665873,num_3,0.25,0.7,0.25,0.45,9.21624,16.58923,return,2.0803121000062674,,,,,,,1,21,male,left_right_width,2023_Aug_13_1746,exp1,2021.2.3,59.9721728953744,
,,,,,,,,,,,,,,,,4,9.1,9.7,10.3,10.9,0,0.6,0.5,0.1,1.9,10,match,36.05,328,350,371,393,0,9,9,9,9,0,,,,,3,0,3,0,0,45,45,13,,,,,num_3,0.721586300060153,num_3,0.35,0.9,0.10000000000000002,0.75,3.6865,27.64872,return,2.341390399960801,,,,,,,1,21,male,left_right_width,2023_Aug_13_1746,exp1,2021.2.3,59.9721728953744,
,,,,,,,,,,,,,,,,3,9.3,10,10.7,0,0,0.7,0.29999999999999993,0.4,1.8,10,initial,36.05,335,361,386,0,0,9,9,9,0,0,,,,,3,0,3,0,0,46,46,10,,,,,num_2,11.886352800065652,num_2,0.3,1.6,0.3,0.8,11.05949,29.49197,return,3.088424199959263,,,,,,,1,21,male,left_right_width,2023_Aug_13_1746,exp1,2021.2.3,59.9721728953744,
,,,,,,,,,,,,,,,,3,9.5,10,10.5,0,0,0.5,0.25,0.25,1.25,10,initial,36.05,342,361,379,0,0,9,9,9,0,0,,,,,3,0,3,0,0,47,47,2,,,,,num_2,0.7019999001640826,num_2,0.4,1.6,0.4,0.7,14.74598,25.80547,return,2.5290833001490682,,,,,,,1,21,male,left_right_width,2023_Aug_13_1746,exp1,2021.2.3,59.9721728953744,
,,,,,,,,,,,,,,,,4,9.1,9.7,10.3,10.9,0,0.5999999999999999,0.3499999999999999,0.25,2.05,10,match,36.05,328,350,371,393,0,9,9,9,9,0,,,,,3,0,3,0,0,48,48,15,,,,,num_3,0.7162636001594365,num_3,0.15,0.4,0.3,0.6,11.05949,22.11898,return,1.9800043001305312,,,,,,,1,21,male,left_right_width,2023_Aug_13_1746,exp1,2021.2.3,59.9721728953744,
,,,,,,,,,,,,,,,,5,9,9.5,10,10.5,11,0.5,0.25,0.25,2.25,10,initial,36.05,324,342,361,379,397,9,9,9,9,9,,,,,3,0,3,0,0,49,49,38,,,,,num_4,1.010105499997735,num_4,0.2,1.1,0.2,0.5,7.37299,18.43248,return,2.2011641000863165,,,,,,,1,21,male,left_right_width,2023_Aug_13_1746,exp1,2021.2.3,59.9721728953744,
,,,,,,,,,,,,,,,,5,9.25,9.625,10,10.375,10.75,0.375,0.125,0.25,1.75,10,match,36.05,333,347,361,374,388,9,9,9,9,9,,,,,3,0,3,0,0,50,50,21,,,,,num_4,0.8554606998804957,num_4,0.1,0.4,0.25,0.4,9.21624,14.74598,return,4.405868999892846,,,,,,,1,21,male,left_right_width,2023_Aug_13_1746,exp1,2021.2.3,59.9721728953744,
,,,,,,,,,,,,,,,,4,9.25,9.75,10.25,10.75,0,0.5,0.4,0.1,1.6,10,initial,36.05,333,351,370,388,0,9,9,9,9,0,,,,,3,0,3,0,0,51,51,18,,,,,num_3,1.1047735000029206,num_3,0.25,0.9,0.10000000000000002,0.9,3.6865,33.17846,return,2.6895069000311196,,,,,,,1,21,male,left_right_width,2023_Aug_13_1746,exp1,2021.2.3,59.9721728953744,
,,,,,,,,,,,,,,,,3,8.2,10,11.8,0,0,1.8,1.55,0.25,3.85,10,match,36.05,296,361,425,0,0,9,9,9,0,0,,,,,3,0,3,0,0,52,52,51,,,,,num_2,0.6447071998845786,num_2,0.15,1.6,0.3,1.7,11.05949,62.67043,return,2.0739706999156624,,,,,,,1,21,male,left_right_width,2023_Aug_13_1746,exp1,2021.2.3,59.9721728953744,
,,,,,,,,,,,,,,,,3,8.6,10,11.4,0,0,1.4,1.2999999999999998,0.1,2.9,10,match,36.05,310,361,411,0,0,9,9,9,0,0,,,,,3,0,3,0,0,53,53,43,,,,,num_2,1.0011136000975966,num_2,0.4,1.6,0.05000000000000007,1.6,1.84325,58.98394,return,2.846981900045648,,,,,,,1,21,male,left_right_width,2023_Aug_13_1746,exp1,2021.2.3,59.9721728953744,
,,,,,,,,,,,,,,,,,,,,,,,,,,,,,,,,,,,,,,,,,,,3,0,3,0,,,,,,,,,,,,,,,,,,,,,,2052.383714100113,None,2052.383714100113,None,1,21,male,left_right_width,2023_Aug_13_1746,exp1,2021.2.3,59.9721728953744,
,,,,,,,,,,,,,,,,5,8.6,9.3,10,10.7,11.4,0.7,0.44999999999999996,0.25,3.05,10,initial,36.05,310,335,361,386,411,9,9,9,9,9,,,,,4,0,4,0,0,0,0,44,,,,,num_4,0.8688948000781238,num_4,0.4,0.6,0.25000000000000006,0.6,9.21624,22.11898,return,1.8949551000259817,,,,,,,1,21,male,left_right_width,2023_Aug_13_1746,exp1,2021.2.3,59.9721728953744,
,,,,,,,,,,,,,,,,4,9.425,9.808333333333334,10.191666666666666,10.575,0,0.3833333333333333,0.1333333333333333,0.25,1.4,10,match,36.05,340,354,367,381,0,9,9,9,9,0,,,,,4,0,4,0,0,1,1,5,,,,,num_3,0.673416200093925,num_3,0.3,1.3,0.3,0.55,11.05949,20.27573,return,3.9099520000163466,,,,,,,1,21,male,left_right_width,2023_Aug_13_1746,exp1,2021.2.3,59.9721728953744,
,,,,,,,,,,,,,,,,5,9,9.5,10,10.5,11,0.5,0.09999999999999998,0.4,2.4,10,initial,36.05,324,342,361,379,397,9,9,9,9,9,,,,,4,0,4,0,0,2,2,40,,,,,num_4,0.9819134999997914,num_4,0.45,1.3,0.45,0.6,16.58923,22.11898,return,2.2867527999915183,,,,,,,1,21,male,left_right_width,2023_Aug_13_1746,exp1,2021.2.3,59.9721728953744,
,,,,,,,,,,,,,,,,5,9.25,9.625,10,10.375,10.75,0.375,0.275,0.1,1.6,10,match,36.05,333,347,361,374,388,9,9,9,9,9,,,,,4,0,4,0,0,3,3,19,,,,,num_4,0.9270305999089032,num_4,0.3,0.4,0.10000000000000002,0.4,3.6865,14.74598,return,5.513266599969938,,,,,,,1,21,male,left_right_width,2023_Aug_13_1746,exp1,2021.2.3,59.9721728953744,
,,,,,,,,,,,,,,,,3,9.3,10,10.7,0,0,0.7,0.44999999999999996,0.25,1.65,10,initial,36.05,335,361,386,0,0,9,9,9,0,0,,,,,4,0,4,0,0,4,4,8,,,,,num_2,1.1929520999547094,num_2,0.4,1.6,0.4,0.7,14.74598,25.80547,return,3.289058600086719,,,,,,,1,21,male,left_right_width,2023_Aug_13_1746,exp1,2021.2.3,59.9721728953744,
,,,,,,,,,,,,,,,,3,9.5,10,10.5,0,0,0.5,0.25,0.25,1.25,10,initial,36.05,342,361,379,0,0,9,9,9,0,0,,,,,4,0,4,0,0,5,5,2,,,,,num_2,1.0516876000910997,num_2,0.1,1.6,0.1,0.6,3.6865,22.11898,return,3.6813517999835312,,,,,,,1,21,male,left_right_width,2023_Aug_13_1746,exp1,2021.2.3,59.9721728953744,
,,,,,,,,,,,,,,,,3,9,10,11,0,0,0.9999999999999999,0.5999999999999999,0.4,2.4,10,match,36.05,324,361,397,0,0,9,9,9,0,0,,,,,4,0,4,0,0,6,6,41,,,,,num_2,0.752250500023365,num_2,0.15,1.6,0.49999999999999994,1.6,18.43248,58.98394,return,3.264891600003466,,,,,,,1,21,male,left_right_width,2023_Aug_13_1746,exp1,2021.2.3,59.9721728953744,
,,,,,,,,,,,,,,,,3,9,10,11,0,0,1,0.9,0.1,2.1,10,match,36.05,324,361,397,0,0,9,9,9,0,0,,,,,4,0,4,0,0,7,7,37,,,,,num_2,0.9833947001025081,num_2,0.4,1.6,0.10000000000000007,1.6,3.6865,58.98394,return,2.2237728000618517,,,,,,,1,21,male,left_right_width,2023_Aug_13_1746,exp1,2021.2.3,59.9721728953744,
,,,,,,,,,,,,,,,,4,9.1,9.7,10.3,10.9,0,0.6,0.5,0.1,1.9,10,match,36.05,328,350,371,393,0,9,9,9,9,0,,,,,4,0,4,0,0,8,8,13,,,,,num_4,1.1907798999454826,num_4,0.3,0.8,0.10000000000000002,0.8,3.6865,29.49197,return,2.7892598998732865,,,,,,,1,21,male,left_right_width,2023_Aug_13_1746,exp1,2021.2.3,59.9721728953744,
,,,,,,,,,,,,,,,,5,8.65,9.325,10,10.675,11.35,0.6749999999999999,0.575,0.1,2.8,10,match,36.05,312,336,361,385,409,9,9,9,9,9,,,,,4,0,4,0,0,9,9,31,,,,,num_4,1.0708550000563264,num_4,0.3,1.3,0.10000000000000002,1.3,3.6865,47.92445,return,3.8063433999195695,,,,,,,1,21,male,left_right_width,2023_Aug_13_1746,exp1,2021.2.3,59.9721728953744,
,,,,,,,,,,,,,,,,4,8.65,9.55,10.45,11.35,0,0.9,0.65,0.25,2.95,10,initial,36.05,312,344,377,409,0,9,9,9,9,0,,,,,4,0,4,0,0,10,10,32,,,,,num_4,1.8986450999509543,num_4,0.15,0.9,0.25,0.9,9.21624,33.17846,return,1.4026162999216467,,,,,,,1,21,male,left_right_width,2023_Aug_13_1746,exp1,2021.2.3,59.9721728953744,
,,,,,,,,,,,,,,,,5,8.2,9.1,10,10.9,11.8,0.9,0.5,0.4,4,10,initial,36.05,296,328,361,393,425,9,9,9,9,9,,,,,4,0,4,0,0,11,11,52,,,,,num_4,0.7021339999046177,num_4,0.4,0.8,0.4,1.0,14.74598,36.86496,return,2.013907999964431,,,,,,,1,21,male,left_right_width,2023_Aug_13_1746,exp1,2021.2.3,59.9721728953744,
,,,,,,,,,,,,,,,,3,8.525,10,11.475,0,0,1.475,1.225,0.25,3.2,10,match,36.05,307,361,414,0,0,9,9,9,0,0,,,,,4,0,4,0,0,12,12,47,,,,,num_2,1.0567570000421256,num_2,0.2,1.6,0.2,1.6,7.37299,58.98394,return,1.4266905998811126,,,,,,,1,21,male,left_right_width,2023_Aug_13_1746,exp1,2021.2.3,59.9721728953744,
,,,,,,,,,,,,,,,,3,8.2,10,11.8,0,0,1.7999999999999998,1.4,0.4,4,10,match,36.05,296,361,425,0,0,9,9,9,0,0,,,,,4,0,4,0,0,13,13,53,,,,,num_2,0.8089361998718232,num_2,0.35,1.6,0.39999999999999997,2.3,14.74598,84.78941,return,2.1840850999578834,,,,,,,1,21,male,left_right_width,2023_Aug_13_1746,exp1,2021.2.3,59.9721728953744,
,,,,,,,,,,,,,,,,5,8.2,9.1,10,10.9,11.8,0.9,0.65,0.25,3.85,10,initial,36.05,296,328,361,393,425,9,9,9,9,9,,,,,4,0,4,0,0,14,14,50,,,,,num_4,1.0207401001825929,num_4,0.1,0.4,0.25,1.2,9.21624,44.23795,return,5.79475579992868,,,,,,,1,21,male,left_right_width,2023_Aug_13_1746,exp1,2021.2.3,59.9721728953744,
,,,,,,,,,,,,,,,,3,9.3,10,10.7,0,0,0.7,0.6,0.1,1.5,10,initial,36.05,335,361,386,0,0,9,9,9,0,0,,,,,4,0,4,0,0,15,15,6,,,,,num_3,1.361690599936992,num_3,0.3,0.8,0.10000000000000002,0.75,3.6865,27.64872,return,2.326714999973774,,,,,,,1,21,male,left_right_width,2023_Aug_13_1746,exp1,2021.2.3,59.9721728953744,
,,,,,,,,,,,,,,,,3,9.1,10,10.9,0,0,0.9,0.5,0.4,2.2,10,initial,36.05,328,361,393,0,0,9,9,9,0,0,,,,,4,0,4,0,0,16,16,16,,,,,num_3,1.5075371998827904,num_3,0.1,0.7,0.35,0.7,12.90274,25.80547,return,2.2455158999655396,,,,,,,1,21,male,left_right_width,2023_Aug_13_1746,exp1,2021.2.3,59.9721728953744,
,,,,,,,,,,,,,,,,5,9.175,9.5875,10,10.4125,10.825,0.4125,0.16249999999999998,0.25,1.9,10,match,36.05,331,346,361,375,390,9,9,9,9,9,,,,,4,0,4,0,0,17,17,23,,,,,num_4,0.9049198001157492,num_4,0.3,0.9,0.3,0.5,11.05949,18.43248,return,1.8429244998842478,,,,,,,1,21,male,left_right_width,2023_Aug_13_1746,exp1,2021.2.3,59.9721728953744,
,,,,,,,,,,,,,,,,5,8.65,9.325,10,10.675,11.35,0.675,0.42500000000000004,0.25,2.95,10,match,36.05,312,336,361,385,409,9,9,9,9,9,,,,,4,0,4,0,0,18,18,33,,,,,num_4,1.1062258000019938,num_4,0.25,0.5,0.25,0.7,9.21624,25.80547,return,1.8294275000225753,,,,,,,1,21,male,left_right_width,2023_Aug_13_1746,exp1,2021.2.3,59.9721728953744,
,,,,,,,,,,,,,,,,4,8.95,9.65,10.35,11.05,0,0.7,0.29999999999999993,0.4,2.5,10,initial,36.05,323,348,373,398,0,9,9,9,9,0,,,,,4,0,4,0,0,19,19,28,,,,,num_4,1.9401752999983728,num_4,0.45,1.0,0.30000000000000004,0.6,11.05949,22.11898,return,3.157935299910605,,,,,,,1,21,male,left_right_width,2023_Aug_13_1746,exp1,2021.2.3,59.9721728953744,
,,,,,,,,,,,,,,,,3,9.5,10,10.5,0,0,0.5,0.09999999999999998,0.4,1.4000000000000001,10,initial,36.05,342,361,379,0,0,9,9,9,0,0,,,,,4,0,4,0,0,20,20,4,,,,,num_2,4.841519000008702,num_2,0.2,1.6,0.3,1.2,11.05949,44.23795,return,4.983507399912924,,,,,,,1,21,male,left_right_width,2023_Aug_13_1746,exp1,2021.2.3,59.9721728953744,
,,,,,,,,,,,,,,,,5,8.95,9.475,10,10.525,11.05,0.525,0.125,0.4,2.5,10,match,36.05,323,342,361,379,398,9,9,9,9,9,,,,,4,0,4,0,0,21,21,29,,,,,num_4,1.0159886998590082,num_4,0.4,0.9,0.4,0.5,14.74598,18.43248,return,3.2627510000020266,,,,,,,1,21,male,left_right_width,2023_Aug_13_1746,exp1,2021.2.3,59.9721728953744,
,,,,,,,,,,,,,,,,3,9.5,10,10.5,0,0,0.5,0.4,0.1,1.1,10,initial,36.05,342,361,379,0,0,9,9,9,0,0,,,,,4,0,4,0,0,22,22,0,,,,,num_2,1.1987925998400897,num_2,0.25,1.6,0.15000000000000002,0.7,5.52974,25.80547,return,3.1795840999111533,,,,,,,1,21,male,left_right_width,2023_Aug_13_1746,exp1,2021.2.3,59.9721728953744,
,,,,,,,,,,,,,,,,4,9.5,9.833333333333334,10.166666666666666,10.5,0,0.33333333333333337,0.23333333333333336,0.1,1.1,10,match,36.05,342,354,367,379,0,9,9,9,9,0,,,,,4,0,4,0,0,23,23,1,,,,,num_4,1.7456625001505017,num_4,0.3,0.4,0.10000000000000002,0.4,3.6865,14.74598,return,3.289900600211695,,,,,,,1,21,male,left_right_width,2023_Aug_13_1746,exp1,2021.2.3,59.9721728953744,
,,,,,,,,,,,,,,,,4,9.25,9.75,10.25,10.75,0,0.5,0.09999999999999998,0.4,1.9,10,initial,36.05,333,351,370,388,0,9,9,9,9,0,,,,,4,0,4,0,0,24,24,22,,,,,num_4,0.7558076998684555,num_4,0.45,1.1,0.4,0.5,14.74598,18.43248,return,10.947876899968833,,,,,,,1,21,male,left_right_width,2023_Aug_13_1746,exp1,2021.2.3,59.9721728953744,
,,,,,,,,,,,,,,,,5,9,9.5,10,10.5,11,0.5,0.4,0.1,2.1,10,initial,36.05,324,342,361,379,397,9,9,9,9,9,,,,,4,0,4,0,0,25,25,36,,,,,num_5,1.488880200078711,num_5,0.4,1.3,-0.09999999999999994,0.7,-3.6865,25.80547,return,5.716600799933076,,,,,,,1,21,male,left_right_width,2023_Aug_13_1746,exp1,2021.2.3,59.9721728953744,
,,,,,,,,,,,,,,,,3,9.1,10,10.9,0,0,0.9,0.65,0.25,2.05,10,initial,36.05,328,361,393,0,0,9,9,9,0,0,,,,,4,0,4,0,0,26,26,14,,,,,num_3,1.2643334998283535,num_3,0.2,1,0.2,1.05,7.37299,38.70821,return,1.1971815000288188,,,,,,,1,21,male,left_right_width,2023_Aug_13_1746,exp1,2021.2.3,59.9721728953744,
,,,,,,,,,,,,,,,,4,9.3,9.766666666666667,10.233333333333333,10.7,0,0.4666666666666667,0.3666666666666667,0.1,1.5,10,match,36.05,335,352,369,386,0,9,9,9,9,0,,,,,4,0,4,0,0,27,27,7,,,,,num_3,1.0976650998927653,num_3,0.4,1.2,0.15000000000000008,0.75,5.52974,27.64872,return,2.732417499879375,,,,,,,1,21,male,left_right_width,2023_Aug_13_1746,exp1,2021.2.3,59.9721728953744,
,,,,,,,,,,,,,,,,4,8.65,9.55,10.45,11.35,0,0.9,0.5,0.4,3.1,10,initial,36.05,312,344,377,409,0,9,9,9,9,0,,,,,4,0,4,0,0,28,28,34,,,,,num_4,1.1803063000552356,num_4,0.1,0.8,0.39999999999999997,0.8,14.74598,29.49197,return,2.0453512999229133,,,,,,,1,21,male,left_right_width,2023_Aug_13_1746,exp1,2021.2.3,59.9721728953744,
,,,,,,,,,,,,,,,,3,9,10,11,0,0,1,0.75,0.25,2.25,10,match,36.05,324,361,397,0,0,9,9,9,0,0,,,,,4,0,4,0,0,29,29,39,,,,,num_2,0.7848551000934094,num_2,0.4,1.6,0.4,1.6,14.74598,58.98394,return,0.7536060998681933,,,,,,,1,21,male,left_right_width,2023_Aug_13_1746,exp1,2021.2.3,59.9721728953744,
,,,,,,,,,,,,,,,,4,9.25,9.75,10.25,10.75,0,0.5,0.4,0.1,1.6,10,initial,36.05,333,351,370,388,0,9,9,9,9,0,,,,,4,0,4,0,0,30,30,18,,,,,num_3,1.0514698999468237,num_3,0.15,0.8,0.15,0.85,5.52974,31.33522,return,0.849959900137037,,,,,,,1,21,male,left_right_width,2023_Aug_13_1746,exp1,2021.2.3,59.9721728953744,
,,,,,,,,,,,,,,,,5,8.6,9.3,10,10.7,11.4,0.7,0.29999999999999993,0.4,3.1999999999999997,10,initial,36.05,310,335,361,386,411,9,9,9,9,9,,,,,4,0,4,0,0,31,31,46,,,,,num_4,1.0314412000589073,num_4,0.1,1.1,0.3,1.0,11.05949,36.86496,return,15.30797900003381,,,,,,,1,21,male,left_right_width,2023_Aug_13_1746,exp1,2021.2.3,59.9721728953744,
,,,,,,,,,,,,,,,,3,8.6,10,11.4,0,0,1.4,1.15,0.25,3.05,10,match,36.05,310,361,411,0,0,9,9,9,0,0,,,,,4,0,4,0,0,32,32,45,,,,,num_2,0.8055205000564456,num_2,0.25,1.6,0.25,2.2,9.21624,81.10291,return,1.4594920999370515,,,,,,,1,21,male,left_right_width,2023_Aug_13_1746,exp1,2021.2.3,59.9721728953744,
,,,,,,,,,,,,,,,,5,8.65,9.325,10,10.675,11.35,0.675,0.275,0.4,3.1,10,match,36.05,312,336,361,385,409,9,9,9,9,9,,,,,4,0,4,0,0,33,33,35,,,,,num_4,0.8282794000115246,num_4,0.4,0.6,0.4,0.8,14.74598,29.49197,return,0.9221200998872519,,,,,,,1,21,male,left_right_width,2023_Aug_13_1746,exp1,2021.2.3,59.9721728953744,
,,,,,,,,,,,,,,,,5,9,9.5,10,10.5,11,0.5,0.25,0.25,2.25,10,initial,36.05,324,342,361,379,397,9,9,9,9,9,,,,,4,0,4,0,0,34,34,38,,,,,num_4,0.8917612999211997,num_4,0.15,0.6,0.35,0.6,12.90274,22.11898,return,1.4600440000649542,,,,,,,1,21,male,left_right_width,2023_Aug_13_1746,exp1,2021.2.3,59.9721728953744,
,,,,,,,,,,,,,,,,3,8.6,10,11.4,0,0,1.4,1.2999999999999998,0.1,2.9,10,match,36.05,310,361,411,0,0,9,9,9,0,0,,,,,4,0,4,0,0,35,35,43,,,,,num_2,0.6550344000570476,num_2,0.4,1.6,0.10000000000000007,1.7,3.6865,62.67043,return,2.259750499855727,,,,,,,1,21,male,left_right_width,2023_Aug_13_1746,exp1,2021.2.3,59.9721728953744,
,,,,,,,,,,,,,,,,4,9.5,9.833333333333334,10.166666666666666,10.5,0,0.3333333333333333,0.08333333333333333,0.25,1.25,10,match,36.05,342,354,367,379,0,9,9,9,9,0,,,,,4,0,4,0,0,36,36,3,,,,,num_4,1.0897859998513013,num_4,0.1,1.2,0.3,0.4,11.05949,14.74598,return,6.134261500090361,,,,,,,1,21,male,left_right_width,2023_Aug_13_1746,exp1,2021.2.3,59.9721728953744,
,,,,,,,,,,,,,,,,3,8.2,10,11.8,0,0,1.8000000000000003,1.7000000000000002,0.1,3.7,10,match,36.05,296,361,425,0,0,9,9,9,0,0,,,,,4,0,4,0,0,37,37,49,,,,,num_3,0.9039324999321252,num_3,0.15,1.1,0.15,1.4,5.52974,51.61094,return,1.8096243999898434,,,,,,,1,21,male,left_right_width,2023_Aug_13_1746,exp1,2021.2.3,59.9721728953744,
,,,,,,,,,,,,,,,,4,8.95,9.65,10.35,11.05,0,0.7,0.44999999999999996,0.25,2.3499999999999996,10,initial,36.05,323,348,373,398,0,9,9,9,9,0,,,,,4,0,4,0,0,38,38,26,,,,,num_3,0.8008135999552906,num_3,0.15,0.5,0.25,0.8,9.21624,29.49197,return,1.9844300001859665,,,,,,,1,21,male,left_right_width,2023_Aug_13_1746,exp1,2021.2.3,59.9721728953744,
,,,,,,,,,,,,,,,,5,8.95,9.475,10,10.525,11.05,0.525,0.275,0.25,2.35,10,match,36.05,323,342,361,379,398,9,9,9,9,9,,,,,4,0,4,0,0,39,39,27,,,,,num_4,1.3535229999106377,num_4,0.1,0.3,0.1,0.5,3.6865,18.43248,return,2.3722529001533985,,,,,,,1,21,male,left_right_width,2023_Aug_13_1746,exp1,2021.2.3,59.9721728953744,
,,,,,,,,,,,,,,,,5,8.2,9.1,10,10.9,11.8,0.9,0.8,0.1,3.7,10,initial,36.05,296,328,361,393,425,9,9,9,9,9,,,,,4,0,4,0,0,40,40,48,,,,,num_4,0.9644065999891609,num_4,0.1,1.1,0.1,1.1,3.6865,40.55146,return,0.6800655999686569,,,,,,,1,21,male,left_right_width,2023_Aug_13_1746,exp1,2021.2.3,59.9721728953744,
,,,,,,,,,,,,,,,,4,9.1,9.7,10.3,10.9,0,0.6000000000000001,0.20000000000000004,0.4,2.2,10,match,36.05,328,350,371,393,0,9,9,9,9,0,,,,,4,0,4,0,0,41,41,17,,,,,num_4,0.9270902001298964,num_4,0.45,0.5,0.45,0.7,16.58923,25.80547,return,1.4972352001350373,,,,,,,1,21,male,left_right_width,2023_Aug_13_1746,exp1,2021.2.3,59.9721728953744,
,,,,,,,,,,,,,,,,3,9.3,10,10.7,0,0,0.7,0.29999999999999993,0.4,1.8,10,initial,36.05,335,361,386,0,0,9,9,9,0,0,,,,,4,0,4,0,0,42,42,10,,,,,num_2,0.7351073999889195,num_2,0.1,1.6,0.5499999999999999,1.6,20.27573,58.98394,return,3.278960899915546,,,,,,,1,21,male,left_right_width,2023_Aug_13_1746,exp1,2021.2.3,59.9721728953744,
,,,,,,,,,,,,,,,,5,8.6,9.3,10,10.7,11.4,0.7,0.6,0.1,2.9,10,initial,36.05,310,335,361,386,411,9,9,9,9,9,,,,,4,0,4,0,0,43,43,42,,,,,num_4,1.008869499899447,num_4,0.1,0.4,0.1,0.8,3.6865,29.49197,return,2.7580864999908954,,,,,,,1,21,male,left_right_width,2023_Aug_13_1746,exp1,2021.2.3,59.9721728953744,
,,,,,,,,,,,,,,,,4,9.1,9.7,10.3,10.9,0,0.5999999999999999,0.3499999999999999,0.25,2.05,10,match,36.05,328,350,371,393,0,9,9,9,9,0,,,,,4,0,4,0,0,44,44,15,,,,,num_4,2.993645900161937,num_4,0.35,0.9,0.25,0.9,9.21624,33.17846,return,3.6570682998280972,,,,,,,1,21,male,left_right_width,2023_Aug_13_1746,exp1,2021.2.3,59.9721728953744,
,,,,,,,,,,,,,,,,4,9.3,9.766666666666667,10.233333333333333,10.7,0,0.4666666666666667,0.06666666666666665,0.4,1.8,10,match,36.05,335,352,369,386,0,9,9,9,9,0,,,,,4,0,4,0,0,45,45,11,,,,,num_3,1.6952795998658985,num_3,0.2,0.9,0.25,0.4,9.21624,14.74598,return,5.034940799931064,,,,,,,1,21,male,left_right_width,2023_Aug_13_1746,exp1,2021.2.3,59.9721728953744,
,,,,,,,,,,,,,,,,4,8.65,9.55,10.45,11.35,0,0.9,0.8,0.1,2.8000000000000003,10,initial,36.05,312,344,377,409,0,9,9,9,9,0,,,,,4,0,4,0,0,46,46,30,,,,,num_3,1.425450999988243,num_3,0.2,1.3,0.10000000000000002,1.3,3.6865,47.92445,return,1.2567773000337183,,,,,,,1,21,male,left_right_width,2023_Aug_13_1746,exp1,2021.2.3,59.9721728953744,
,,,,,,,,,,,,,,,,3,8.2,10,11.8,0,0,1.8,1.55,0.25,3.85,10,match,36.05,296,361,425,0,0,9,9,9,0,0,,,,,4,0,4,0,0,47,47,51,,,,,num_2,0.8439596998505294,num_2,0.15,1.6,0.3,2.1,11.05949,77.41642,return,1.9291999000124633,,,,,,,1,21,male,left_right_width,2023_Aug_13_1746,exp1,2021.2.3,59.9721728953744,
,,,,,,,,,,,,,,,,4,9.25,9.75,10.25,10.75,0,0.5,0.25,0.25,1.75,10,initial,36.05,333,351,370,388,0,9,9,9,9,0,,,,,4,0,4,0,0,48,48,20,,,,,num_3,0.8144322999287397,num_3,0.3,0.4,0.3,0.5,11.05949,18.43248,return,1.3542599000502378,,,,,,,1,21,male,left_right_width,2023_Aug_13_1746,exp1,2021.2.3,59.9721728953744,
,,,,,,,,,,,,,,,,3,9.1,10,10.9,0,0,0.9,0.8,0.1,1.9000000000000001,10,initial,36.05,328,361,393,0,0,9,9,9,0,0,,,,,4,0,4,0,0,49,49,12,,,,,num_2,0.7068177999462932,num_2,0.35,1.6,0.10000000000000002,1.6,3.6865,58.98394,return,2.0508073000237346,,,,,,,1,21,male,left_right_width,2023_Aug_13_1746,exp1,2021.2.3,59.9721728953744,
,,,,,,,,,,,,,,,,5,9.25,9.625,10,10.375,10.75,0.375,0.125,0.25,1.75,10,match,36.05,333,347,361,374,388,9,9,9,9,9,,,,,4,0,4,0,0,50,50,21,,,,,num_4,1.0206829998642206,num_4,0.4,0.7,0.4,0.5,14.74598,18.43248,return,1.0747794001363218,,,,,,,1,21,male,left_right_width,2023_Aug_13_1746,exp1,2021.2.3,59.9721728953744,
,,,,,,,,,,,,,,,,4,9.3,9.766666666666667,10.233333333333333,10.7,0,0.4666666666666667,0.21666666666666665,0.25,1.65,10,match,36.05,335,352,369,386,0,9,9,9,9,0,,,,,4,0,4,0,0,51,51,9,,,,,num_3,1.0916926998179406,num_3,0.3,0.8,0.3,0.45,11.05949,16.58923,return,1.815805200021714,,,,,,,1,21,male,left_right_width,2023_Aug_13_1746,exp1,2021.2.3,59.9721728953744,
,,,,,,,,,,,,,,,,4,8.95,9.65,10.35,11.05,0,0.7,0.6,0.1,2.1999999999999997,10,initial,36.05,323,348,373,398,0,9,9,9,9,0,,,,,4,0,4,0,0,52,52,24,,,,,num_4,0.7369578001089394,num_4,0.4,0.8,0.05000000000000007,0.8,1.84325,29.49197,return,1.795121300034225,,,,,,,1,21,male,left_right_width,2023_Aug_13_1746,exp1,2021.2.3,59.9721728953744,
,,,,,,,,,,,,,,,,5,8.95,9.475,10,10.525,11.05,0.525,0.42500000000000004,0.1,2.2,10,match,36.05,323,342,361,379,398,9,9,9,9,9,,,,,4,0,4,0,0,53,53,25,,,,,num_4,0.7236432998906821,num_4,0.45,0.5,0.05000000000000007,0.5,1.84325,18.43248,return,2.262052900157869,,,,,,,1,21,male,left_right_width,2023_Aug_13_1746,exp1,2021.2.3,59.9721728953744,
,,,,,,,,,,,,,,,,,,,,,,,,,,,,,,,,,,,,,,,,,,,4,0,4,0,,,,,,,,,,,,,,,,,,,,,,2424.466932100011,None,2424.466932100011,None,1,21,male,left_right_width,2023_Aug_13_1746,exp1,2021.2.3,59.9721728953744,
,,,,,,,,,,,,,,,,3,9.3,10,10.7,0,0,0.7,0.29999999999999993,0.4,1.8,10,initial,36.05,335,361,386,0,0,9,9,9,0,0,,,,,5,0,5,0,0,0,0,10,,,,,num_2,2.331789600197226,num_2,0.45,1.6,0.20000000000000007,1.6,7.37299,58.98394,return,2.218121600104496,,,,,,,1,21,male,left_right_width,2023_Aug_13_1746,exp1,2021.2.3,59.9721728953744,
,,,,,,,,,,,,,,,,4,9.3,9.766666666666667,10.233333333333333,10.7,0,0.4666666666666667,0.21666666666666665,0.25,1.65,10,match,36.05,335,352,369,386,0,9,9,9,9,0,,,,,5,0,5,0,0,1,1,9,,,,,num_3,2.1828345998656005,num_3,0.3,1.3,0.15000000000000002,1.1,5.52974,40.55146,return,2.9593652000185102,,,,,,,1,21,male,left_right_width,2023_Aug_13_1746,exp1,2021.2.3,59.9721728953744,
,,,,,,,,,,,,,,,,4,9.425,9.808333333333334,10.191666666666666,10.575,0,0.3833333333333333,0.1333333333333333,0.25,1.4,10,match,36.05,340,354,367,381,0,9,9,9,9,0,,,,,5,0,5,0,0,2,2,5,,,,,num_3,1.7135957998689264,num_3,0.15,0.3,0.25,0.4,9.21624,14.74598,return,2.090630399994552,,,,,,,1,21,male,left_right_width,2023_Aug_13_1746,exp1,2021.2.3,59.9721728953744,
,,,,,,,,,,,,,,,,3,9.5,10,10.5,0,0,0.5,0.25,0.25,1.25,10,initial,36.05,342,361,379,0,0,9,9,9,0,0,,,,,5,0,5,0,0,3,3,2,,,,,num_2,0.6509132999926805,num_2,0.4,1.6,0.30000000000000004,0.8,11.05949,29.49197,return,2.6726444999221712,,,,,,,1,21,male,left_right_width,2023_Aug_13_1746,exp1,2021.2.3,59.9721728953744,
,,,,,,,,,,,,,,,,3,8.6,10,11.4,0,0,1.4,1.15,0.25,3.05,10,match,36.05,310,361,411,0,0,9,9,9,0,0,,,,,5,0,5,0,0,4,4,45,,,,,num_3,0.9075364999007434,num_3,0.45,0.9,0.25000000000000006,0.9,9.21624,33.17846,return,1.7481807000003755,,,,,,,1,21,male,left_right_width,2023_Aug_13_1746,exp1,2021.2.3,59.9721728953744,
,,,,,,,,,,,,,,,,4,8.95,9.65,10.35,11.05,0,0.7,0.29999999999999993,0.4,2.5,10,initial,36.05,323,348,373,398,0,9,9,9,9,0,,,,,5,0,5,0,0,5,5,28,,,,,num_3,0.9028683002106845,num_3,0.15,0.7,0.39999999999999997,0.7,14.74598,25.80547,return,1.711891699815169,,,,,,,1,21,male,left_right_width,2023_Aug_13_1746,exp1,2021.2.3,59.9721728953744,
,,,,,,,,,,,,,,,,4,8.65,9.55,10.45,11.35,0,0.9,0.5,0.4,3.1,10,initial,36.05,312,344,377,409,0,9,9,9,9,0,,,,,5,0,5,0,0,6,6,34,,,,,num_4,0.9019351999741048,num_4,0.35,0.5,0.35,0.8,12.90274,29.49197,return,1.1365271999966353,,,,,,,1,21,male,left_right_width,2023_Aug_13_1746,exp1,2021.2.3,59.9721728953744,
,,,,,,,,,,,,,,,,4,9.3,9.766666666666667,10.233333333333333,10.7,0,0.4666666666666667,0.06666666666666665,0.4,1.8,10,match,36.05,335,352,369,386,0,9,9,9,9,0,,,,,5,0,5,0,0,7,7,11,,,,,num_3,1.3757178999949247,num_3,0.15,0.4,0.35,0.45,12.90274,16.58923,return,1.783348600147292,,,,,,,1,21,male,left_right_width,2023_Aug_13_1746,exp1,2021.2.3,59.9721728953744,
,,,,,,,,,,,,,,,,5,8.2,9.1,10,10.9,11.8,0.9,0.5,0.4,4,10,initial,36.05,296,328,361,393,425,9,9,9,9,9,,,,,5,0,5,0,0,8,8,52,,,,,num_4,0.7687987999524921,num_4,0.2,1.3,0.44999999999999996,1.3,16.58923,47.92445,return,1.566706399898976,,,,,,,1,21,male,left_right_width,2023_Aug_13_1746,exp1,2021.2.3,59.9721728953744,
,,,,,,,,,,,,,,,,3,9.1,10,10.9,0,0,0.9,0.8,0.1,1.9000000000000001,10,initial,36.05,328,361,393,0,0,9,9,9,0,0,,,,,5,0,5,0,0,9,9,12,,,,,num_2,0.7310538999736309,num_2,0.1,1.6,0.1,1.6,3.6865,58.98394,return,0.7968967000488192,,,,,,,1,21,male,left_right_width,2023_Aug_13_1746,exp1,2021.2.3,59.9721728953744,
,,,,,,,,,,,,,,,,5,8.95,9.475,10,10.525,11.05,0.525,0.275,0.25,2.35,10,match,36.05,323,342,361,379,398,9,9,9,9,9,,,,,5,0,5,0,0,10,10,27,,,,,num_4,0.8155942000448704,num_4,0.1,0.3,0.2,0.5,7.37299,18.43248,return,2.0946098999120295,,,,,,,1,21,male,left_right_width,2023_Aug_13_1746,exp1,2021.2.3,59.9721728953744,
,,,,,,,,,,,,,,,,3,8.2,10,11.8,0,0,1.8000000000000003,1.7000000000000002,0.1,3.7,10,match,36.05,296,361,425,0,0,9,9,9,0,0,,,,,5,0,5,0,0,11,11,49,,,,,num_2,0.861227799905464,num_2,0.2,1.6,0.10000000000000002,1.7,3.6865,62.67043,return,2.0569253999274224,,,,,,,1,21,male,left_right_width,2023_Aug_13_1746,exp1,2021.2.3,59.9721728953744,
,,,,,,,,,,,,,,,,5,8.6,9.3,10,10.7,11.4,0.7,0.44999999999999996,0.25,3.05,10,initial,36.05,310,335,361,386,411,9,9,9,9,9,,,,,5,0,5,0,0,12,12,44,,,,,num_4,1.155691099818796,num_4,0.45,0.9,0.30000000000000004,0.9,11.05949,33.17846,return,1.429911500075832,,,,,,,1,21,male,left_right_width,2023_Aug_13_1746,exp1,2021.2.3,59.9721728953744,
,,,,,,,,,,,,,,,,4,8.95,9.65,10.35,11.05,0,0.7,0.6,0.1,2.1999999999999997,10,initial,36.05,323,348,373,398,0,9,9,9,9,0,,,,,5,0,5,0,0,13,13,24,,,,,num_3,1.1155989000108093,num_3,0.1,1.1,0.1,1.1,3.6865,40.55146,return,0.6067276999820024,,,,,,,1,21,male,left_right_width,2023_Aug_13_1746,exp1,2021.2.3,59.9721728953744,
,,,,,,,,,,,,,,,,4,9.1,9.7,10.3,10.9,0,0.6000000000000001,0.20000000000000004,0.4,2.2,10,match,36.05,328,350,371,393,0,9,9,9,9,0,,,,,5,0,5,0,0,14,14,17,,,,,num_3,0.8081607997883111,num_3,0.1,0.8,0.35,0.8,12.90274,29.49197,return,1.7836434999480844,,,,,,,1,21,male,left_right_width,2023_Aug_13_1746,exp1,2021.2.3,59.9721728953744,
,,,,,,,,,,,,,,,,3,9.3,10,10.7,0,0,0.7,0.44999999999999996,0.25,1.65,10,initial,36.05,335,361,386,0,0,9,9,9,0,0,,,,,5,0,5,0,0,15,15,8,,,,,num_2,1.3080909000709653,num_2,0.35,1.6,0.35,1.1,12.90274,40.55146,return,1.9418794999364763,,,,,,,1,21,male,left_right_width,2023_Aug_13_1746,exp1,2021.2.3,59.9721728953744,
,,,,,,,,,,,,,,,,5,8.6,9.3,10,10.7,11.4,0.7,0.6,0.1,2.9,10,initial,36.05,310,335,361,386,411,9,9,9,9,9,,,,,5,0,5,0,0,16,16,42,,,,,num_4,1.0076849998440593,num_4,0.15,0.3,0.15,0.8,5.52974,29.49197,return,1.4436438998673111,,,,,,,1,21,male,left_right_width,2023_Aug_13_1746,exp1,2021.2.3,59.9721728953744,
,,,,,,,,,,,,,,,,5,9,9.5,10,10.5,11,0.5,0.4,0.1,2.1,10,initial,36.05,324,342,361,379,397,9,9,9,9,9,,,,,5,0,5,0,0,17,17,36,,,,,num_5,0.8855435000732541,num_5,0.2,1.0,0.2,1.0,7.37299,36.86496,return,0.6252248999662697,,,,,,,1,21,male,left_right_width,2023_Aug_13_1746,exp1,2021.2.3,59.9721728953744,
,,,,,,,,,,,,,,,,4,9.25,9.75,10.25,10.75,0,0.5,0.25,0.25,1.75,10,initial,36.05,333,351,370,388,0,9,9,9,9,0,,,,,5,0,5,0,0,18,18,20,,,,,num_3,0.8262557000853121,num_3,0.1,0.8,0.3,0.8,11.05949,29.49197,return,1.465060600079596,,,,,,,1,21,male,left_right_width,2023_Aug_13_1746,exp1,2021.2.3,59.9721728953744,
,,,,,,,,,,,,,,,,3,9.3,10,10.7,0,0,0.7,0.6,0.1,1.5,10,initial,36.05,335,361,386,0,0,9,9,9,0,0,,,,,5,0,5,0,0,19,19,6,,,,,num_2,0.8147738999687135,num_2,0.15,1.6,0.09999999999999999,1.1,3.6865,40.55146,return,1.838933699997142,,,,,,,1,21,male,left_right_width,2023_Aug_13_1746,exp1,2021.2.3,59.9721728953744,
,,,,,,,,,,,,,,,,5,8.2,9.1,10,10.9,11.8,0.9,0.65,0.25,3.85,10,initial,36.05,296,328,361,393,425,9,9,9,9,9,,,,,5,0,5,0,0,20,20,50,,,,,num_4,0.9964811999816447,num_4,0.45,1.3,0.25000000000000006,1.2,9.21624,44.23795,return,1.6451676001306623,,,,,,,1,21,male,left_right_width,2023_Aug_13_1746,exp1,2021.2.3,59.9721728953744,
,,,,,,,,,,,,,,,,5,8.65,9.325,10,10.675,11.35,0.675,0.275,0.4,3.1,10,match,36.05,312,336,361,385,409,9,9,9,9,9,,,,,5,0,5,0,0,21,21,35,,,,,num_4,1.1699806000106037,num_4,0.15,1.3,0.44999999999999996,1.3,16.58923,47.92445,return,1.6987211999949068,,,,,,,1,21,male,left_right_width,2023_Aug_13_1746,exp1,2021.2.3,59.9721728953744,
,,,,,,,,,,,,,,,,5,9,9.5,10,10.5,11,0.5,0.09999999999999998,0.4,2.4,10,initial,36.05,324,342,361,379,397,9,9,9,9,9,,,,,5,0,5,0,0,22,22,40,,,,,num_4,1.5091796999331564,num_4,0.3,0.5,0.39999999999999997,0.5,14.74598,18.43248,return,1.272677999921143,,,,,,,1,21,male,left_right_width,2023_Aug_13_1746,exp1,2021.2.3,59.9721728953744,
,,,,,,,,,,,,,,,,5,9,9.5,10,10.5,11,0.5,0.25,0.25,2.25,10,initial,36.05,324,342,361,379,397,9,9,9,9,9,,,,,5,0,5,0,0,23,23,38,,,,,num_4,0.8717596000060439,num_4,0.25,0.3,0.35,0.7,12.90274,25.80547,return,3.4756165000144392,,,,,,,1,21,male,left_right_width,2023_Aug_13_1746,exp1,2021.2.3,59.9721728953744,
,,,,,,,,,,,,,,,,4,9.5,9.833333333333334,10.166666666666666,10.5,0,0.33333333333333337,0.23333333333333336,0.1,1.1,10,match,36.05,342,354,367,379,0,9,9,9,9,0,,,,,5,0,5,0,0,24,24,1,,,,,num_4,0.9069165999535471,num_4,0.2,0.5,0.2,0.3,7.37299,11.05949,return,8.213368400000036,,,,,,,1,21,male,left_right_width,2023_Aug_13_1746,exp1,2021.2.3,59.9721728953744,
,,,,,,,,,,,,,,,,3,9.5,10,10.5,0,0,0.5,0.4,0.1,1.1,10,initial,36.05,342,361,379,0,0,9,9,9,0,0,,,,,5,0,5,0,0,25,25,0,,,,,num_2,0.831963200122118,num_2,0.25,1.6,0.10000000000000002,1.0,3.6865,36.86496,return,1.7099326001480222,,,,,,,1,21,male,left_right_width,2023_Aug_13_1746,exp1,2021.2.3,59.9721728953744,
