amount_p,posx1_p,posx2_p,posx3_p,posx4_p,posx5_p,center_to_center_p,edge_to_edge_p,w_p,stim_lengt_p,eccentricity_p,line1_p,line2_p,line3_p,line4_p,line5_p,amount,posx1,posx2,posx3,posx4,posx5,center_to_center,edge_to_edge,w,stim_length,eccentricity,trial_type,deg_to_pix_index,posx1_in_pix,posx2_in_pix,posx3_in_pix,posx4_in_pix,posx5_in_pix,line1,line2,line3,line4,line5,trials.thisRepN,trials.thisTrialN,trials.thisN,trials.thisIndex,blocks.thisRepN,blocks.thisTrialN,blocks.thisN,blocks.thisIndex,loop.thisRepN,loop.thisTrialN,loop.thisN,loop.thisIndex,key_resp_3.keys,key_resp_3.rt,key_resp_3.started,key_resp_3.stopped,key_resp.keys,key_resp.rt,response,starting_width_deg,starting_space_deg,response_width_degree,response_spacing_degree,response_width_pixel,response_spacing_pixel,next_5.keys,next_5.rt,key_resp_4.keys,key_resp_4.rt,text_3.started,text_3.stopped,text_4.started,text_4.stopped,participant,age,gender,resp_group,date,expName,psychopyVersion,frameRate,
,,,,,,,,,,,,,,,,,,,,,,,,,,,,,,,,,,,,,,,,,,,,,,,,,,,c,58.422121699899435,51.830019699875265,None,,,,,,,,,,,,,,,,,,2,23,female,left_right_width,2023_Aug_14_1018,exp1,2021.2.3,60.097056716050375,
4,8.65,9.55,10.45,11.35,0,0.9,0.5,0.4,3.1,10,9,9,9,9,0,,,,,,,,,,,,,,,,,,,,,,,,0,0,0,5,,,,,,,,,,,,,num_4,1.927945600124076,num_4,0.1,1.1,0.15000000000000002,0.4,5.52974,14.74598,return,19.673099600011483,,,,,,,2,23,female,left_right_width,2023_Aug_14_1018,exp1,2021.2.3,60.097056716050375,
3,8.2,10,11.8,0,0,1.7999999999999998,1.4,0.4,4,10,9,9,9,0,0,,,,,,,,,,,,,,,,,,,,,,,,0,1,1,2,,,,,,,,,,,,,num_3,1.487347099930048,num_3,0.3,0.9,0.3,0.9,11.05949,33.17846,return,2.5599164001177996,,,,,,,2,23,female,left_right_width,2023_Aug_14_1018,exp1,2021.2.3,60.097056716050375,
5,8.6,9.3,10,10.7,11.4,0.7,0.29999999999999993,0.4,3.1999999999999997,10,9,9,9,9,9,,,,,,,,,,,,,,,,,,,,,,,,0,2,2,7,,,,,,,,,,,,,num_5,1.8289024999830872,num_5,0.2,0.7,0.2,0.5,7.37299,18.43248,return,5.465014499844983,,,,,,,2,23,female,left_right_width,2023_Aug_14_1018,exp1,2021.2.3,60.097056716050375,
5,9,9.5,10,10.5,11,0.5,0.09999999999999998,0.4,2.4,10,9,9,9,9,9,,,,,,,,,,,,,,,,,,,,,,,,0,3,3,8,,,,,,,,,,,,,num_4,2.279064000118524,num_4,0.4,0.7,0.45,0.6,16.58923,22.11898,return,7.465855000074953,,,,,,,2,23,female,left_right_width,2023_Aug_14_1018,exp1,2021.2.3,60.097056716050375,
4,9.25,9.75,10.25,10.75,0,0.5,0.25,0.25,1.75,10,9,9,9,9,0,,,,,,,,,,,,,,,,,,,,,,,,0,4,4,4,,,,,,,,,,,,,num_4,2.5827480000443757,num_4,0.35,0.7,0.25,0.5,9.21624,18.43248,return,6.206185900140554,,,,,,,2,23,female,left_right_width,2023_Aug_14_1018,exp1,2021.2.3,60.097056716050375,
4,9.5,9.833333333333334,10.166666666666666,10.5,0,0.33333333333333337,0.23333333333333336,0.1,1.1,10,9,9,9,9,0,,,,,,,,,,,,,,,,,,,,,,,,0,5,5,3,,,,,,,,,,,,,num_3,4.156809499952942,num_3,0.4,0.8,0.15000000000000008,0.45,5.52974,16.58923,return,6.373586399946362,,,,,,,2,23,female,left_right_width,2023_Aug_14_1018,exp1,2021.2.3,60.097056716050375,
3,9,10,11,0,0,1,0.9,0.1,2.1,10,9,9,9,0,0,,,,,,,,,,,,,,,,,,,,,,,,0,6,6,1,,,,,,,,,,,,,num_3,1.6247147000394762,num_3,0.25,0.4,0.05000000000000002,0.65,1.84325,23.96222,return,7.540586699964479,,,,,,,2,23,female,left_right_width,2023_Aug_14_1018,exp1,2021.2.3,60.097056716050375,
3,9.5,10,10.5,0,0,0.5,0.4,0.1,1.1,10,9,9,9,0,0,,,,,,,,,,,,,,,,,,,,,,,,0,7,7,0,,,,,,,,,,,,,num_3,1.4713067999109626,num_3,0.35,1.3,0.10000000000000002,1.1,3.6865,40.55146,return,6.402287199860439,,,,,,,2,23,female,left_right_width,2023_Aug_14_1018,exp1,2021.2.3,60.097056716050375,
5,9.25,9.625,10,10.375,10.75,0.375,0.125,0.25,1.75,10,9,9,9,9,9,,,,,,,,,,,,,,,,,,,,,,,,0,8,8,6,,,,,,,,,,,,,num_4,1.884214699966833,num_4,0.15,0.9,0.25,0.6,9.21624,22.11898,return,6.141920000081882,,,,,,,2,23,female,left_right_width,2023_Aug_14_1018,exp1,2021.2.3,60.097056716050375,
,,,,,,,,,,,,,,,,,,,,,,,,,,,,,,,,,,,,,,,,,,,,,,,,,,,,,,,,,,,,,,,,,,c,21.399920499883592,,,,,2,23,female,left_right_width,2023_Aug_14_1018,exp1,2021.2.3,60.097056716050375,
,,,,,,,,,,,,,,,,4,9.1,9.7,10.3,10.9,0,0.5999999999999999,0.3499999999999999,0.25,2.05,10,match,36.05,328,350,371,393,0,9,9,9,9,0,,,,,0,0,0,0,0,0,0,15,,,,,num_4,1.3482178000267595,num_4,0.15,0.8,0.2,0.7,7.37299,25.80547,return,5.100756400031969,,,,,,,2,23,female,left_right_width,2023_Aug_14_1018,exp1,2021.2.3,60.097056716050375,
,,,,,,,,,,,,,,,,4,9.5,9.833333333333334,10.166666666666666,10.5,0,0.3333333333333333,0.08333333333333333,0.25,1.25,10,match,36.05,342,354,367,379,0,9,9,9,9,0,,,,,0,0,0,0,0,1,1,3,,,,,num_4,1.5223251001443714,num_4,0.35,0.5,0.25,0.4,9.21624,14.74598,return,3.9547790999058634,,,,,,,2,23,female,left_right_width,2023_Aug_14_1018,exp1,2021.2.3,60.097056716050375,
,,,,,,,,,,,,,,,,3,8.2,10,11.8,0,0,1.8,1.55,0.25,3.85,10,match,36.05,296,361,425,0,0,9,9,9,0,0,,,,,0,0,0,0,0,2,2,51,,,,,num_3,1.3012294999789447,num_3,0.15,1.1,0.15000000000000002,1.15,5.52974,42.3947,return,4.689007400069386,,,,,,,2,23,female,left_right_width,2023_Aug_14_1018,exp1,2021.2.3,60.097056716050375,
,,,,,,,,,,,,,,,,4,8.65,9.55,10.45,11.35,0,0.9,0.65,0.25,2.95,10,initial,36.05,312,344,377,409,0,9,9,9,9,0,,,,,0,0,0,0,0,3,3,32,,,,,num_4,1.2608409998938441,num_4,0.15,0.8,0.15,0.8,5.52974,29.49197,return,2.6015355999115855,,,,,,,2,23,female,left_right_width,2023_Aug_14_1018,exp1,2021.2.3,60.097056716050375,
,,,,,,,,,,,,,,,,4,9.425,9.808333333333334,10.191666666666666,10.575,0,0.3833333333333333,0.1333333333333333,0.25,1.4,10,match,36.05,340,354,367,381,0,9,9,9,9,0,,,,,0,0,0,0,0,4,4,5,,,,,num_3,1.8700093000661582,num_3,0.25,1.1,0.25,0.55,9.21624,20.27573,return,4.753189699957147,,,,,,,2,23,female,left_right_width,2023_Aug_14_1018,exp1,2021.2.3,60.097056716050375,
,,,,,,,,,,,,,,,,5,9,9.5,10,10.5,11,0.5,0.09999999999999998,0.4,2.4,10,initial,36.05,324,342,361,379,397,9,9,9,9,9,,,,,0,0,0,0,0,5,5,40,,,,,num_5,1.9887417000718415,num_5,0.25,1.3,0.25,0.65,9.21624,23.96222,return,9.890672100009397,,,,,,,2,23,female,left_right_width,2023_Aug_14_1018,exp1,2021.2.3,60.097056716050375,
,,,,,,,,,,,,,,,,5,8.95,9.475,10,10.525,11.05,0.525,0.275,0.25,2.35,10,match,36.05,323,342,361,379,398,9,9,9,9,9,,,,,0,0,0,0,0,6,6,27,,,,,num_5,3.7485219000373036,num_5,0.1,0.8,0.15000000000000002,0.5,5.52974,18.43248,return,8.429820599965751,,,,,,,2,23,female,left_right_width,2023_Aug_14_1018,exp1,2021.2.3,60.097056716050375,
,,,,,,,,,,,,,,,,4,9.3,9.766666666666667,10.233333333333333,10.7,0,0.4666666666666667,0.3666666666666667,0.1,1.5,10,match,36.05,335,352,369,386,0,9,9,9,9,0,,,,,0,0,0,0,0,7,7,7,,,,,num_4,1.061661300016567,num_4,0.2,1.1,0.10000000000000002,0.8,3.6865,29.49197,return,4.871597100049257,,,,,,,2,23,female,left_right_width,2023_Aug_14_1018,exp1,2021.2.3,60.097056716050375,
,,,,,,,,,,,,,,,,4,9.1,9.7,10.3,10.9,0,0.6000000000000001,0.20000000000000004,0.4,2.2,10,match,36.05,328,350,371,393,0,9,9,9,9,0,,,,,0,0,0,0,0,8,8,17,,,,,num_4,1.5776430999394506,num_4,0.2,1.0,0.25,0.7,9.21624,25.80547,return,6.2871584999375045,,,,,,,2,23,female,left_right_width,2023_Aug_14_1018,exp1,2021.2.3,60.097056716050375,
,,,,,,,,,,,,,,,,5,8.65,9.325,10,10.675,11.35,0.675,0.42500000000000004,0.25,2.95,10,match,36.05,312,336,361,385,409,9,9,9,9,9,,,,,0,0,0,0,0,9,9,33,,,,,num_5,2.046888899989426,num_5,0.4,0.8,0.25000000000000006,0.65,9.21624,23.96222,return,6.204378800000995,,,,,,,2,23,female,left_right_width,2023_Aug_14_1018,exp1,2021.2.3,60.097056716050375,
,,,,,,,,,,,,,,,,4,8.95,9.65,10.35,11.05,0,0.7,0.44999999999999996,0.25,2.3499999999999996,10,initial,36.05,323,348,373,398,0,9,9,9,9,0,,,,,0,0,0,0,0,10,10,26,,,,,num_4,1.5528830999974161,num_4,0.4,0.8,0.25000000000000006,0.6,9.21624,22.11898,return,6.4148595000151545,,,,,,,2,23,female,left_right_width,2023_Aug_14_1018,exp1,2021.2.3,60.097056716050375,
,,,,,,,,,,,,,,,,4,9.3,9.766666666666667,10.233333333333333,10.7,0,0.4666666666666667,0.06666666666666665,0.4,1.8,10,match,36.05,335,352,369,386,0,9,9,9,9,0,,,,,0,0,0,0,0,11,11,11,,,,,num_4,1.3955173001158983,num_4,0.45,1.3,0.5,0.7,18.43248,25.80547,return,8.026986900018528,,,,,,,2,23,female,left_right_width,2023_Aug_14_1018,exp1,2021.2.3,60.097056716050375,
,,,,,,,,,,,,,,,,5,9.25,9.625,10,10.375,10.75,0.375,0.275,0.1,1.6,10,match,36.05,333,347,361,374,388,9,9,9,9,9,,,,,0,0,0,0,0,12,12,19,,,,,num_4,1.3123332001268864,num_4,0.4,1.1,0.15000000000000008,0.5,5.52974,18.43248,return,5.706372300162911,,,,,,,2,23,female,left_right_width,2023_Aug_14_1018,exp1,2021.2.3,60.097056716050375,
,,,,,,,,,,,,,,,,4,8.65,9.55,10.45,11.35,0,0.9,0.8,0.1,2.8000000000000003,10,initial,36.05,312,344,377,409,0,9,9,9,9,0,,,,,0,0,0,0,0,13,13,30,,,,,num_4,1.33643879997544,num_4,0.25,1.0,0.10000000000000002,0.5,3.6865,18.43248,return,5.235643400112167,,,,,,,2,23,female,left_right_width,2023_Aug_14_1018,exp1,2021.2.3,60.097056716050375,
,,,,,,,,,,,,,,,,3,9.5,10,10.5,0,0,0.5,0.25,0.25,1.25,10,initial,36.05,342,361,379,0,0,9,9,9,0,0,,,,,0,0,0,0,0,14,14,2,,,,,num_3,1.2454192999284714,num_3,0.1,0.9,0.2,0.6,7.37299,22.11898,return,6.585602799896151,,,,,,,2,23,female,left_right_width,2023_Aug_14_1018,exp1,2021.2.3,60.097056716050375,
,,,,,,,,,,,,,,,,3,9,10,11,0,0,0.9999999999999999,0.5999999999999999,0.4,2.4,10,match,36.05,324,361,397,0,0,9,9,9,0,0,,,,,0,0,0,0,0,15,15,41,,,,,num_3,1.1878775001969188,num_3,0.35,1.3,0.35,0.75,12.90274,27.64872,return,5.104261400178075,,,,,,,2,23,female,left_right_width,2023_Aug_14_1018,exp1,2021.2.3,60.097056716050375,
,,,,,,,,,,,,,,,,3,8.6,10,11.4,0,0,1.4,1.15,0.25,3.05,10,match,36.05,310,361,411,0,0,9,9,9,0,0,,,,,0,0,0,0,0,16,16,45,,,,,num_3,1.2094058999791741,num_3,0.4,0.6,0.20000000000000007,0.95,7.37299,35.02171,return,6.3580831999424845,,,,,,,2,23,female,left_right_width,2023_Aug_14_1018,exp1,2021.2.3,60.097056716050375,
,,,,,,,,,,,,,,,,4,8.95,9.65,10.35,11.05,0,0.7,0.6,0.1,2.1999999999999997,10,initial,36.05,323,348,373,398,0,9,9,9,9,0,,,,,0,0,0,0,0,17,17,24,,,,,num_3,1.6579342000186443,num_3,0.15,0.7,0.15000000000000002,0.9,5.52974,33.17846,return,6.372448300011456,,,,,,,2,23,female,left_right_width,2023_Aug_14_1018,exp1,2021.2.3,60.097056716050375,
,,,,,,,,,,,,,,,,5,8.6,9.3,10,10.7,11.4,0.7,0.44999999999999996,0.25,3.05,10,initial,36.05,310,335,361,386,411,9,9,9,9,9,,,,,0,0,0,0,0,18,18,44,,,,,num_4,1.9843375999480486,num_4,0.4,0.5,0.20000000000000007,0.5,7.37299,18.43248,return,8.621198199922219,,,,,,,2,23,female,left_right_width,2023_Aug_14_1018,exp1,2021.2.3,60.097056716050375,
,,,,,,,,,,,,,,,,3,8.6,10,11.4,0,0,1.4,1.2999999999999998,0.1,2.9,10,match,36.05,310,361,411,0,0,9,9,9,0,0,,,,,0,0,0,0,0,19,19,43,,,,,num_3,1.1173110001254827,num_3,0.15,0.9,0.09999999999999999,1.15,3.6865,42.3947,return,5.086138300132006,,,,,,,2,23,female,left_right_width,2023_Aug_14_1018,exp1,2021.2.3,60.097056716050375,
,,,,,,,,,,,,,,,,4,8.95,9.65,10.35,11.05,0,0.7,0.29999999999999993,0.4,2.5,10,initial,36.05,323,348,373,398,0,9,9,9,9,0,,,,,0,0,0,0,0,20,20,28,,,,,num_4,1.101045000134036,num_4,0.3,0.6,0.3,0.7,11.05949,25.80547,return,3.9198721998836845,,,,,,,2,23,female,left_right_width,2023_Aug_14_1018,exp1,2021.2.3,60.097056716050375,
,,,,,,,,,,,,,,,,5,8.2,9.1,10,10.9,11.8,0.9,0.65,0.25,3.85,10,initial,36.05,296,328,361,393,425,9,9,9,9,9,,,,,0,0,0,0,0,21,21,50,,,,,num_4,1.312861300073564,num_4,0.4,1.0,0.20000000000000007,1.0,7.37299,36.86496,return,4.219012700021267,,,,,,,2,23,female,left_right_width,2023_Aug_14_1018,exp1,2021.2.3,60.097056716050375,
,,,,,,,,,,,,,,,,4,9.1,9.7,10.3,10.9,0,0.6,0.5,0.1,1.9,10,match,36.05,328,350,371,393,0,9,9,9,9,0,,,,,0,0,0,0,0,22,22,13,,,,,num_3,1.3798997001722455,num_3,0.2,0.6,0.15000000000000002,0.85,5.52974,31.33522,return,6.4897132001351565,,,,,,,2,23,female,left_right_width,2023_Aug_14_1018,exp1,2021.2.3,60.097056716050375,
,,,,,,,,,,,,,,,,4,9.25,9.75,10.25,10.75,0,0.5,0.25,0.25,1.75,10,initial,36.05,333,351,370,388,0,9,9,9,9,0,,,,,0,0,0,0,0,23,23,20,,,,,num_4,1.7042454001493752,num_4,0.15,0.6,0.25,0.5,9.21624,18.43248,return,4.546793200075626,,,,,,,2,23,female,left_right_width,2023_Aug_14_1018,exp1,2021.2.3,60.097056716050375,
,,,,,,,,,,,,,,,,3,9.1,10,10.9,0,0,0.9,0.8,0.1,1.9000000000000001,10,initial,36.05,328,361,393,0,0,9,9,9,0,0,,,,,0,0,0,0,0,24,24,12,,,,,num_3,1.715204200008884,num_3,0.1,0.7,0.10000000000000002,0.7,3.6865,25.80547,return,4.2511364000383765,,,,,,,2,23,female,left_right_width,2023_Aug_14_1018,exp1,2021.2.3,60.097056716050375,
,,,,,,,,,,,,,,,,4,9.25,9.75,10.25,10.75,0,0.5,0.4,0.1,1.6,10,initial,36.05,333,351,370,388,0,9,9,9,9,0,,,,,0,0,0,0,0,25,25,18,,,,,num_4,1.3447887999936938,num_4,0.45,0.5,0.15000000000000008,0.6,5.52974,22.11898,return,4.121864400105551,,,,,,,2,23,female,left_right_width,2023_Aug_14_1018,exp1,2021.2.3,60.097056716050375,
,,,,,,,,,,,,,,,,4,9.3,9.766666666666667,10.233333333333333,10.7,0,0.4666666666666667,0.21666666666666665,0.25,1.65,10,match,36.05,335,352,369,386,0,9,9,9,9,0,,,,,0,0,0,0,0,26,26,9,,,,,num_4,1.805346000008285,num_4,0.4,0.6,0.25000000000000006,0.5,9.21624,18.43248,return,4.243992599891499,,,,,,,2,23,female,left_right_width,2023_Aug_14_1018,exp1,2021.2.3,60.097056716050375,
,,,,,,,,,,,,,,,,4,9.5,9.833333333333334,10.166666666666666,10.5,0,0.33333333333333337,0.23333333333333336,0.1,1.1,10,match,36.05,342,354,367,379,0,9,9,9,9,0,,,,,0,0,0,0,0,27,27,1,,,,,num_4,1.1866032998077571,num_4,0.3,0.7,0.15000000000000002,0.4,5.52974,14.74598,return,3.697967200074345,,,,,,,2,23,female,left_right_width,2023_Aug_14_1018,exp1,2021.2.3,60.097056716050375,
,,,,,,,,,,,,,,,,3,9.5,10,10.5,0,0,0.5,0.4,0.1,1.1,10,initial,36.05,342,361,379,0,0,9,9,9,0,0,,,,,0,0,0,0,0,28,28,0,,,,,num_3,1.4186517999041826,num_3,0.25,0.5,0.10000000000000002,0.45,3.6865,16.58923,return,7.005885600112379,,,,,,,2,23,female,left_right_width,2023_Aug_14_1018,exp1,2021.2.3,60.097056716050375,
,,,,,,,,,,,,,,,,5,8.95,9.475,10,10.525,11.05,0.525,0.125,0.4,2.5,10,match,36.05,323,342,361,379,398,9,9,9,9,9,,,,,0,0,0,0,0,29,29,29,,,,,num_4,2.361047300044447,num_4,0.35,0.8,0.25,0.5,9.21624,18.43248,return,10.617730600060895,,,,,,,2,23,female,left_right_width,2023_Aug_14_1018,exp1,2021.2.3,60.097056716050375,
,,,,,,,,,,,,,,,,4,9.25,9.75,10.25,10.75,0,0.5,0.09999999999999998,0.4,1.9,10,initial,36.05,333,351,370,388,0,9,9,9,9,0,,,,,0,0,0,0,0,30,30,22,,,,,num_4,1.421341400127858,num_4,0.1,1.2,0.35,0.6,12.90274,22.11898,return,6.385205199941993,,,,,,,2,23,female,left_right_width,2023_Aug_14_1018,exp1,2021.2.3,60.097056716050375,
,,,,,,,,,,,,,,,,3,9.3,10,10.7,0,0,0.7,0.44999999999999996,0.25,1.65,10,initial,36.05,335,361,386,0,0,9,9,9,0,0,,,,,0,0,0,0,0,31,31,8,,,,,num_4,1.2928357999771833,num_4,0.2,1.1,0.2,0.6,7.37299,22.11898,return,10.340981800109148,,,,,,,2,23,female,left_right_width,2023_Aug_14_1018,exp1,2021.2.3,60.097056716050375,
,,,,,,,,,,,,,,,,3,9.1,10,10.9,0,0,0.9,0.5,0.4,2.2,10,initial,36.05,328,361,393,0,0,9,9,9,0,0,,,,,0,0,0,0,0,32,32,16,,,,,num_4,1.1968173999339342,num_4,0.45,0.9,0.4,0.8,14.74598,29.49197,return,5.017382400110364,,,,,,,2,23,female,left_right_width,2023_Aug_14_1018,exp1,2021.2.3,60.097056716050375,
,,,,,,,,,,,,,,,,5,8.6,9.3,10,10.7,11.4,0.7,0.29999999999999993,0.4,3.1999999999999997,10,initial,36.05,310,335,361,386,411,9,9,9,9,9,,,,,0,0,0,0,0,33,33,46,,,,,num_4,1.6122665000148118,num_4,0.15,0.7,0.39999999999999997,0.7,14.74598,25.80547,return,5.73934240010567,,,,,,,2,23,female,left_right_width,2023_Aug_14_1018,exp1,2021.2.3,60.097056716050375,
,,,,,,,,,,,,,,,,5,9,9.5,10,10.5,11,0.5,0.25,0.25,2.25,10,initial,36.05,324,342,361,379,397,9,9,9,9,9,,,,,0,0,0,0,0,34,34,38,,,,,num_5,2.5012998001184314,num_5,0.15,0.9,0.15,0.6,5.52974,22.11898,return,3.2964451001025736,,,,,,,2,23,female,left_right_width,2023_Aug_14_1018,exp1,2021.2.3,60.097056716050375,
,,,,,,,,,,,,,,,,5,8.2,9.1,10,10.9,11.8,0.9,0.8,0.1,3.7,10,initial,36.05,296,328,361,393,425,9,9,9,9,9,,,,,0,0,0,0,0,35,35,48,,,,,num_5,1.7277477998286486,num_5,0.35,0.8,0.10000000000000002,0.65,3.6865,23.96222,return,6.2331563998013735,,,,,,,2,23,female,left_right_width,2023_Aug_14_1018,exp1,2021.2.3,60.097056716050375,
,,,,,,,,,,,,,,,,5,8.2,9.1,10,10.9,11.8,0.9,0.5,0.4,4,10,initial,36.05,296,328,361,393,425,9,9,9,9,9,,,,,0,0,0,0,0,36,36,52,,,,,num_5,1.688774200156331,num_5,0.25,1.0,0.25,0.85,9.21624,31.33522,return,3.3773754998110235,,,,,,,2,23,female,left_right_width,2023_Aug_14_1018,exp1,2021.2.3,60.097056716050375,
,,,,,,,,,,,,,,,,3,9.3,10,10.7,0,0,0.7,0.29999999999999993,0.4,1.8,10,initial,36.05,335,361,386,0,0,9,9,9,0,0,,,,,0,0,0,0,0,37,37,10,,,,,num_4,1.4373515001498163,num_4,0.1,1.0,0.25,0.5,9.21624,18.43248,return,3.840861599892378,,,,,,,2,23,female,left_right_width,2023_Aug_14_1018,exp1,2021.2.3,60.097056716050375,
,,,,,,,,,,,,,,,,5,8.65,9.325,10,10.675,11.35,0.675,0.275,0.4,3.1,10,match,36.05,312,336,361,385,409,9,9,9,9,9,,,,,0,0,0,0,0,38,38,35,,,,,num_5,1.199319199891761,num_5,0.4,1.0,0.30000000000000004,0.65,11.05949,23.96222,return,4.636368200182915,,,,,,,2,23,female,left_right_width,2023_Aug_14_1018,exp1,2021.2.3,60.097056716050375,
,,,,,,,,,,,,,,,,5,8.6,9.3,10,10.7,11.4,0.7,0.6,0.1,2.9,10,initial,36.05,310,335,361,386,411,9,9,9,9,9,,,,,0,0,0,0,0,39,39,42,,,,,num_4,1.1152011000085622,num_4,0.2,0.7,0.10000000000000002,0.6,3.6865,22.11898,return,7.244339199969545,,,,,,,2,23,female,left_right_width,2023_Aug_14_1018,exp1,2021.2.3,60.097056716050375,
,,,,,,,,,,,,,,,,4,8.65,9.55,10.45,11.35,0,0.9,0.5,0.4,3.1,10,initial,36.05,312,344,377,409,0,9,9,9,9,0,,,,,0,0,0,0,0,40,40,34,,,,,num_4,1.2666908998508006,num_4,0.2,0.5,0.3,0.7,11.05949,25.80547,return,4.205481100128964,,,,,,,2,23,female,left_right_width,2023_Aug_14_1018,exp1,2021.2.3,60.097056716050375,
,,,,,,,,,,,,,,,,3,9.3,10,10.7,0,0,0.7,0.6,0.1,1.5,10,initial,36.05,335,361,386,0,0,9,9,9,0,0,,,,,0,0,0,0,0,41,41,6,,,,,num_3,1.2936048000119627,num_3,0.15,0.3,0.04999999999999999,0.45,1.84325,16.58923,return,5.062692699953914,,,,,,,2,23,female,left_right_width,2023_Aug_14_1018,exp1,2021.2.3,60.097056716050375,
,,,,,,,,,,,,,,,,5,9.175,9.5875,10,10.4125,10.825,0.4125,0.16249999999999998,0.25,1.9,10,match,36.05,331,346,361,375,390,9,9,9,9,9,,,,,0,0,0,0,0,42,42,23,,,,,num_4,1.182673400035128,num_4,0.15,0.5,0.15,0.5,5.52974,18.43248,return,4.255118899978697,,,,,,,2,23,female,left_right_width,2023_Aug_14_1018,exp1,2021.2.3,60.097056716050375,
,,,,,,,,,,,,,,,,3,8.525,10,11.475,0,0,1.475,1.225,0.25,3.2,10,match,36.05,307,361,414,0,0,9,9,9,0,0,,,,,0,0,0,0,0,43,43,47,,,,,num_2,1.9094711998477578,num_2,0.15,1.6,0.2,1.4,7.37299,51.61094,return,7.493286099983379,,,,,,,2,23,female,left_right_width,2023_Aug_14_1018,exp1,2021.2.3,60.097056716050375,
,,,,,,,,,,,,,,,,5,9,9.5,10,10.5,11,0.5,0.4,0.1,2.1,10,initial,36.05,324,342,361,379,397,9,9,9,9,9,,,,,0,0,0,0,0,44,44,36,,,,,num_5,1.6148735000751913,num_5,0.2,1.2,0.10000000000000002,0.55,3.6865,20.27573,return,6.269219200126827,,,,,,,2,23,female,left_right_width,2023_Aug_14_1018,exp1,2021.2.3,60.097056716050375,
,,,,,,,,,,,,,,,,3,9,10,11,0,0,1,0.75,0.25,2.25,10,match,36.05,324,361,397,0,0,9,9,9,0,0,,,,,0,0,0,0,0,45,45,39,,,,,num_3,1.2152321001049131,num_3,0.1,1.3,0.15000000000000002,0.8,5.52974,29.49197,return,5.9513459000736475,,,,,,,2,23,female,left_right_width,2023_Aug_14_1018,exp1,2021.2.3,60.097056716050375,
,,,,,,,,,,,,,,,,5,8.95,9.475,10,10.525,11.05,0.525,0.42500000000000004,0.1,2.2,10,match,36.05,323,342,361,379,398,9,9,9,9,9,,,,,0,0,0,0,0,46,46,25,,,,,num_4,1.3366256000008434,num_4,0.25,0.8,0.10000000000000002,0.6,3.6865,22.11898,return,4.09875260014087,,,,,,,2,23,female,left_right_width,2023_Aug_14_1018,exp1,2021.2.3,60.097056716050375,
,,,,,,,,,,,,,,,,5,8.65,9.325,10,10.675,11.35,0.6749999999999999,0.575,0.1,2.8,10,match,36.05,312,336,361,385,409,9,9,9,9,9,,,,,0,0,0,0,0,47,47,31,,,,,num_5,1.5186278000473976,num_5,0.25,0.6,0.05000000000000002,0.5,1.84325,18.43248,return,3.390934100141749,,,,,,,2,23,female,left_right_width,2023_Aug_14_1018,exp1,2021.2.3,60.097056716050375,
,,,,,,,,,,,,,,,,5,9.25,9.625,10,10.375,10.75,0.375,0.125,0.25,1.75,10,match,36.05,333,347,361,374,388,9,9,9,9,9,,,,,0,0,0,0,0,48,48,21,,,,,num_4,2.1214316999539733,num_4,0.45,0.7,0.30000000000000004,0.4,11.05949,14.74598,return,5.267747600097209,,,,,,,2,23,female,left_right_width,2023_Aug_14_1018,exp1,2021.2.3,60.097056716050375,
,,,,,,,,,,,,,,,,3,8.2,10,11.8,0,0,1.7999999999999998,1.4,0.4,4,10,match,36.05,296,361,425,0,0,9,9,9,0,0,,,,,0,0,0,0,0,49,49,53,,,,,num_3,1.3151976000517607,num_3,0.45,0.5,0.4,1.0,14.74598,36.86496,return,5.403415799839422,,,,,,,2,23,female,left_right_width,2023_Aug_14_1018,exp1,2021.2.3,60.097056716050375,
,,,,,,,,,,,,,,,,3,8.2,10,11.8,0,0,1.8000000000000003,1.7000000000000002,0.1,3.7,10,match,36.05,296,361,425,0,0,9,9,9,0,0,,,,,0,0,0,0,0,50,50,49,,,,,num_3,1.836363400099799,num_3,0.35,1.2,0.15000000000000002,1.15,5.52974,42.3947,return,4.335381400072947,,,,,,,2,23,female,left_right_width,2023_Aug_14_1018,exp1,2021.2.3,60.097056716050375,
,,,,,,,,,,,,,,,,3,9.1,10,10.9,0,0,0.9,0.65,0.25,2.05,10,initial,36.05,328,361,393,0,0,9,9,9,0,0,,,,,0,0,0,0,0,51,51,14,,,,,num_3,1.859967099968344,num_3,0.15,0.3,0.2,0.75,7.37299,27.64872,return,3.7527972999960184,,,,,,,2,23,female,left_right_width,2023_Aug_14_1018,exp1,2021.2.3,60.097056716050375,
,,,,,,,,,,,,,,,,3,9,10,11,0,0,1,0.9,0.1,2.1,10,match,36.05,324,361,397,0,0,9,9,9,0,0,,,,,0,0,0,0,0,52,52,37,,,,,num_3,1.2130493000149727,num_3,0.4,0.5,0.20000000000000007,0.85,7.37299,31.33522,return,6.170725199859589,,,,,,,2,23,female,left_right_width,2023_Aug_14_1018,exp1,2021.2.3,60.097056716050375,
,,,,,,,,,,,,,,,,3,9.5,10,10.5,0,0,0.5,0.09999999999999998,0.4,1.4000000000000001,10,initial,36.05,342,361,379,0,0,9,9,9,0,0,,,,,0,0,0,0,0,53,53,4,,,,,num_3,1.2813125001266599,num_3,0.15,1.1,0.3,0.45,11.05949,16.58923,return,5.5661903999280185,,,,,,,2,23,female,left_right_width,2023_Aug_14_1018,exp1,2021.2.3,60.097056716050375,
,,,,,,,,,,,,,,,,,,,,,,,,,,,,,,,,,,,,,,,,,,,0,0,0,0,,,,,,,,,,,,,,,,,,,,,,707.3613525999244,None,707.3613525999244,None,2,23,female,left_right_width,2023_Aug_14_1018,exp1,2021.2.3,60.097056716050375,
,,,,,,,,,,,,,,,,5,9,9.5,10,10.5,11,0.5,0.09999999999999998,0.4,2.4,10,initial,36.05,324,342,361,379,397,9,9,9,9,9,,,,,1,0,1,0,0,0,0,40,,,,,num_4,1.3508656998164952,num_4,0.3,1.1,0.3,0.6,11.05949,22.11898,return,5.55198680004105,,,,,,,2,23,female,left_right_width,2023_Aug_14_1018,exp1,2021.2.3,60.097056716050375,
,,,,,,,,,,,,,,,,3,9.3,10,10.7,0,0,0.7,0.44999999999999996,0.25,1.65,10,initial,36.05,335,361,386,0,0,9,9,9,0,0,,,,,1,0,1,0,0,1,1,8,,,,,num_3,1.7590215997770429,num_3,0.1,0.5,0.2,0.45,7.37299,16.58923,return,8.949469600105658,,,,,,,2,23,female,left_right_width,2023_Aug_14_1018,exp1,2021.2.3,60.097056716050375,
,,,,,,,,,,,,,,,,3,9.3,10,10.7,0,0,0.7,0.29999999999999993,0.4,1.8,10,initial,36.05,335,361,386,0,0,9,9,9,0,0,,,,,1,0,1,0,0,2,2,10,,,,,num_3,4.546260100090876,num_3,0.15,1.3,0.35,0.85,12.90274,31.33522,return,5.0023794998414814,,,,,,,2,23,female,left_right_width,2023_Aug_14_1018,exp1,2021.2.3,60.097056716050375,
,,,,,,,,,,,,,,,,5,8.95,9.475,10,10.525,11.05,0.525,0.275,0.25,2.35,10,match,36.05,323,342,361,379,398,9,9,9,9,9,,,,,1,0,1,0,0,3,3,27,,,,,num_4,3.0201049998868257,num_4,0.1,1.0,0.2,0.5,7.37299,18.43248,return,3.3623518000822514,,,,,,,2,23,female,left_right_width,2023_Aug_14_1018,exp1,2021.2.3,60.097056716050375,
,,,,,,,,,,,,,,,,4,9.1,9.7,10.3,10.9,0,0.5999999999999999,0.3499999999999999,0.25,2.05,10,match,36.05,328,350,371,393,0,9,9,9,9,0,,,,,1,0,1,0,0,4,4,15,,,,,num_4,1.4541279999539256,num_4,0.1,1.1,0.2,0.5,7.37299,18.43248,return,4.435324899852276,,,,,,,2,23,female,left_right_width,2023_Aug_14_1018,exp1,2021.2.3,60.097056716050375,
,,,,,,,,,,,,,,,,5,9.25,9.625,10,10.375,10.75,0.375,0.125,0.25,1.75,10,match,36.05,333,347,361,374,388,9,9,9,9,9,,,,,1,0,1,0,0,5,5,21,,,,,num_4,1.0961476999800652,num_4,0.15,0.5,0.15000000000000002,0.3,5.52974,11.05949,return,3.9627967001870275,,,,,,,2,23,female,left_right_width,2023_Aug_14_1018,exp1,2021.2.3,60.097056716050375,
,,,,,,,,,,,,,,,,3,8.2,10,11.8,0,0,1.8000000000000003,1.7000000000000002,0.1,3.7,10,match,36.05,296,361,425,0,0,9,9,9,0,0,,,,,1,0,1,0,0,6,6,49,,,,,num_3,1.4174663999583572,num_3,0.15,0.6,0.10000000000000002,0.85,3.6865,31.33522,return,4.686285400064662,,,,,,,2,23,female,left_right_width,2023_Aug_14_1018,exp1,2021.2.3,60.097056716050375,
,,,,,,,,,,,,,,,,4,9.425,9.808333333333334,10.191666666666666,10.575,0,0.3833333333333333,0.1333333333333333,0.25,1.4,10,match,36.05,340,354,367,381,0,9,9,9,9,0,,,,,1,0,1,0,0,7,7,5,,,,,num_3,1.6532501000910997,num_3,0.15,0.8,0.15,0.4,5.52974,14.74598,return,3.250188000034541,,,,,,,2,23,female,left_right_width,2023_Aug_14_1018,exp1,2021.2.3,60.097056716050375,
,,,,,,,,,,,,,,,,5,8.6,9.3,10,10.7,11.4,0.7,0.44999999999999996,0.25,3.05,10,initial,36.05,310,335,361,386,411,9,9,9,9,9,,,,,1,0,1,0,0,8,8,44,,,,,num_4,1.2167053001467139,num_4,0.3,0.6,0.15000000000000002,0.6,5.52974,22.11898,return,8.016649600118399,,,,,,,2,23,female,left_right_width,2023_Aug_14_1018,exp1,2021.2.3,60.097056716050375,
,,,,,,,,,,,,,,,,5,8.95,9.475,10,10.525,11.05,0.525,0.42500000000000004,0.1,2.2,10,match,36.05,323,342,361,379,398,9,9,9,9,9,,,,,1,0,1,0,0,9,9,25,,,,,num_4,1.0834495997987688,num_4,0.25,0.6,0.10000000000000002,0.4,3.6865,14.74598,return,2.9999198000878096,,,,,,,2,23,female,left_right_width,2023_Aug_14_1018,exp1,2021.2.3,60.097056716050375,
,,,,,,,,,,,,,,,,4,9.1,9.7,10.3,10.9,0,0.6,0.5,0.1,1.9,10,match,36.05,328,350,371,393,0,9,9,9,9,0,,,,,1,0,1,0,0,10,10,13,,,,,num_4,1.0281761998776346,num_4,0.2,0.3,0.05000000000000002,0.4,1.84325,14.74598,return,4.458113200031221,,,,,,,2,23,female,left_right_width,2023_Aug_14_1018,exp1,2021.2.3,60.097056716050375,
,,,,,,,,,,,,,,,,3,9,10,11,0,0,1,0.75,0.25,2.25,10,match,36.05,324,361,397,0,0,9,9,9,0,0,,,,,1,0,1,0,0,11,11,39,,,,,num_3,1.0239496000576764,num_3,0.15,1.2,0.15,0.85,5.52974,31.33522,return,4.739465899998322,,,,,,,2,23,female,left_right_width,2023_Aug_14_1018,exp1,2021.2.3,60.097056716050375,
,,,,,,,,,,,,,,,,3,9,10,11,0,0,1,0.9,0.1,2.1,10,match,36.05,324,361,397,0,0,9,9,9,0,0,,,,,1,0,1,0,0,12,12,37,,,,,num_3,1.4185681999661028,num_3,0.35,0.7,0.10000000000000002,0.7,3.6865,25.80547,return,5.406770800007507,,,,,,,2,23,female,left_right_width,2023_Aug_14_1018,exp1,2021.2.3,60.097056716050375,
,,,,,,,,,,,,,,,,5,8.65,9.325,10,10.675,11.35,0.675,0.275,0.4,3.1,10,match,36.05,312,336,361,385,409,9,9,9,9,9,,,,,1,0,1,0,0,13,13,35,,,,,num_4,1.1051215999759734,num_4,0.2,0.9,0.25,0.5,9.21624,18.43248,return,3.39464300009422,,,,,,,2,23,female,left_right_width,2023_Aug_14_1018,exp1,2021.2.3,60.097056716050375,
,,,,,,,,,,,,,,,,4,8.65,9.55,10.45,11.35,0,0.9,0.5,0.4,3.1,10,initial,36.05,312,344,377,409,0,9,9,9,9,0,,,,,1,0,1,0,0,14,14,34,,,,,num_4,1.3000535001046956,num_4,0.15,0.6,0.25,0.5,9.21624,18.43248,return,3.7105551999993622,,,,,,,2,23,female,left_right_width,2023_Aug_14_1018,exp1,2021.2.3,60.097056716050375,
,,,,,,,,,,,,,,,,4,9.3,9.766666666666667,10.233333333333333,10.7,0,0.4666666666666667,0.21666666666666665,0.25,1.65,10,match,36.05,335,352,369,386,0,9,9,9,9,0,,,,,1,0,1,0,0,15,15,9,,,,,num_4,1.8512247998733073,num_4,0.3,0.7,0.25,0.5,9.21624,18.43248,return,2.9585625000763685,,,,,,,2,23,female,left_right_width,2023_Aug_14_1018,exp1,2021.2.3,60.097056716050375,
,,,,,,,,,,,,,,,,4,8.95,9.65,10.35,11.05,0,0.7,0.44999999999999996,0.25,2.3499999999999996,10,initial,36.05,323,348,373,398,0,9,9,9,9,0,,,,,1,0,1,0,0,16,16,26,,,,,num_4,1.03064989997074,num_4,0.15,0.4,0.15000000000000002,0.5,5.52974,18.43248,return,3.0532447998411953,,,,,,,2,23,female,left_right_width,2023_Aug_14_1018,exp1,2021.2.3,60.097056716050375,
,,,,,,,,,,,,,,,,4,8.65,9.55,10.45,11.35,0,0.9,0.65,0.25,2.95,10,initial,36.05,312,344,377,409,0,9,9,9,9,0,,,,,1,0,1,0,0,17,17,32,,,,,num_4,2.2295597998891026,num_4,0.1,0.6,0.15000000000000002,0.5,5.52974,18.43248,return,3.08298770012334,,,,,,,2,23,female,left_right_width,2023_Aug_14_1018,exp1,2021.2.3,60.097056716050375,
,,,,,,,,,,,,,,,,3,8.6,10,11.4,0,0,1.4,1.15,0.25,3.05,10,match,36.05,310,361,411,0,0,9,9,9,0,0,,,,,1,0,1,0,0,18,18,45,,,,,num_2,1.0906456001102924,num_2,0.1,1.6,0.2,1.6,7.37299,58.98394,return,3.318300199927762,,,,,,,2,23,female,left_right_width,2023_Aug_14_1018,exp1,2021.2.3,60.097056716050375,
,,,,,,,,,,,,,,,,4,9.25,9.75,10.25,10.75,0,0.5,0.4,0.1,1.6,10,initial,36.05,333,351,370,388,0,9,9,9,9,0,,,,,1,0,1,0,0,19,19,18,,,,,num_3,1.3160004999954253,num_3,0.15,1.1,0.09999999999999999,0.75,3.6865,27.64872,return,5.438871899852529,,,,,,,2,23,female,left_right_width,2023_Aug_14_1018,exp1,2021.2.3,60.097056716050375,
,,,,,,,,,,,,,,,,3,8.525,10,11.475,0,0,1.475,1.225,0.25,3.2,10,match,36.05,307,361,414,0,0,9,9,9,0,0,,,,,1,0,1,0,0,20,20,47,,,,,num_2,1.1175346998497844,num_2,0.3,1.6,0.2,1.7,7.37299,62.67043,return,4.4164734000805765,,,,,,,2,23,female,left_right_width,2023_Aug_14_1018,exp1,2021.2.3,60.097056716050375,
,,,,,,,,,,,,,,,,4,8.65,9.55,10.45,11.35,0,0.9,0.8,0.1,2.8000000000000003,10,initial,36.05,312,344,377,409,0,9,9,9,9,0,,,,,1,0,1,0,0,21,21,30,,,,,num_3,3.4678291000891477,num_3,0.4,0.5,0.15000000000000008,0.7,5.52974,25.80547,return,5.789542000042275,,,,,,,2,23,female,left_right_width,2023_Aug_14_1018,exp1,2021.2.3,60.097056716050375,
,,,,,,,,,,,,,,,,3,9.5,10,10.5,0,0,0.5,0.4,0.1,1.1,10,initial,36.05,342,361,379,0,0,9,9,9,0,0,,,,,1,0,1,0,0,22,22,0,,,,,num_3,1.6095300999004394,num_3,0.1,0.5,0.05,0.45,1.84325,16.58923,return,3.6855432000011206,,,,,,,2,23,female,left_right_width,2023_Aug_14_1018,exp1,2021.2.3,60.097056716050375,
,,,,,,,,,,,,,,,,4,9.25,9.75,10.25,10.75,0,0.5,0.25,0.25,1.75,10,initial,36.05,333,351,370,388,0,9,9,9,9,0,,,,,1,0,1,0,0,23,23,20,,,,,num_4,1.7294806998688728,num_4,0.45,0.5,0.25000000000000006,0.5,9.21624,18.43248,return,2.9384872000664473,,,,,,,2,23,female,left_right_width,2023_Aug_14_1018,exp1,2021.2.3,60.097056716050375,
,,,,,,,,,,,,,,,,4,8.95,9.65,10.35,11.05,0,0.7,0.29999999999999993,0.4,2.5,10,initial,36.05,323,348,373,398,0,9,9,9,9,0,,,,,1,0,1,0,0,24,24,28,,,,,num_4,1.2382032999303192,num_4,0.3,0.3,0.3,0.5,11.05949,18.43248,return,5.2182620000094175,,,,,,,2,23,female,left_right_width,2023_Aug_14_1018,exp1,2021.2.3,60.097056716050375,
,,,,,,,,,,,,,,,,4,9.5,9.833333333333334,10.166666666666666,10.5,0,0.33333333333333337,0.23333333333333336,0.1,1.1,10,match,36.05,342,354,367,379,0,9,9,9,9,0,,,,,1,0,1,0,0,25,25,1,,,,,num_4,1.3334122998639941,num_4,0.3,0.4,0.15000000000000002,0.3,5.52974,11.05949,return,7.183079899987206,,,,,,,2,23,female,left_right_width,2023_Aug_14_1018,exp1,2021.2.3,60.097056716050375,
,,,,,,,,,,,,,,,,5,9,9.5,10,10.5,11,0.5,0.25,0.25,2.25,10,initial,36.05,324,342,361,379,397,9,9,9,9,9,,,,,1,0,1,0,0,26,26,38,,,,,num_4,1.446900200098753,num_4,0.1,0.5,0.2,0.4,7.37299,14.74598,return,4.778666300000623,,,,,,,2,23,female,left_right_width,2023_Aug_14_1018,exp1,2021.2.3,60.097056716050375,
,,,,,,,,,,,,,,,,4,9.25,9.75,10.25,10.75,0,0.5,0.09999999999999998,0.4,1.9,10,initial,36.05,333,351,370,388,0,9,9,9,9,0,,,,,1,0,1,0,0,27,27,22,,,,,num_4,2.003428800031543,num_4,0.2,0.5,0.25,0.4,9.21624,14.74598,return,4.098740400047973,,,,,,,2,23,female,left_right_width,2023_Aug_14_1018,exp1,2021.2.3,60.097056716050375,
,,,,,,,,,,,,,,,,3,9,10,11,0,0,0.9999999999999999,0.5999999999999999,0.4,2.4,10,match,36.05,324,361,397,0,0,9,9,9,0,0,,,,,1,0,1,0,0,28,28,41,,,,,num_3,2.29476960003376,num_3,0.15,0.9,0.35,0.8,12.90274,29.49197,return,3.8182371000293642,,,,,,,2,23,female,left_right_width,2023_Aug_14_1018,exp1,2021.2.3,60.097056716050375,
,,,,,,,,,,,,,,,,3,9.1,10,10.9,0,0,0.9,0.8,0.1,1.9000000000000001,10,initial,36.05,328,361,393,0,0,9,9,9,0,0,,,,,1,0,1,0,0,29,29,12,,,,,num_2,0.9102661998476833,num_2,0.45,1.6,0.15000000000000008,1.3,5.52974,47.92445,return,3.8014859000686556,,,,,,,2,23,female,left_right_width,2023_Aug_14_1018,exp1,2021.2.3,60.097056716050375,
,,,,,,,,,,,,,,,,5,8.95,9.475,10,10.525,11.05,0.525,0.125,0.4,2.5,10,match,36.05,323,342,361,379,398,9,9,9,9,9,,,,,1,0,1,0,0,30,30,29,,,,,num_4,1.3636205999646336,num_4,0.35,1.0,0.35,0.5,12.90274,18.43248,return,4.010501799872145,,,,,,,2,23,female,left_right_width,2023_Aug_14_1018,exp1,2021.2.3,60.097056716050375,
,,,,,,,,,,,,,,,,4,9.3,9.766666666666667,10.233333333333333,10.7,0,0.4666666666666667,0.06666666666666665,0.4,1.8,10,match,36.05,335,352,369,386,0,9,9,9,9,0,,,,,1,0,1,0,0,31,31,11,,,,,num_3,3.2602413999848068,num_3,0.25,0.4,0.3,0.4,11.05949,14.74598,return,4.137171400012448,,,,,,,2,23,female,left_right_width,2023_Aug_14_1018,exp1,2021.2.3,60.097056716050375,
,,,,,,,,,,,,,,,,3,8.2,10,11.8,0,0,1.7999999999999998,1.4,0.4,4,10,match,36.05,296,361,425,0,0,9,9,9,0,0,,,,,1,0,1,0,0,32,32,53,,,,,num_3,1.3082194000016898,num_3,0.45,1.2,0.4,1.35,14.74598,49.7677,return,3.5557800999376923,,,,,,,2,23,female,left_right_width,2023_Aug_14_1018,exp1,2021.2.3,60.097056716050375,
,,,,,,,,,,,,,,,,3,9.5,10,10.5,0,0,0.5,0.09999999999999998,0.4,1.4000000000000001,10,initial,36.05,342,361,379,0,0,9,9,9,0,0,,,,,1,0,1,0,0,33,33,4,,,,,num_2,1.061061599990353,num_2,0.25,1.6,0.25,0.4,9.21624,14.74598,return,3.913961000042036,,,,,,,2,23,female,left_right_width,2023_Aug_14_1018,exp1,2021.2.3,60.097056716050375,
,,,,,,,,,,,,,,,,3,9.1,10,10.9,0,0,0.9,0.65,0.25,2.05,10,initial,36.05,328,361,393,0,0,9,9,9,0,0,,,,,1,0,1,0,0,34,34,14,,,,,num_2,1.1896363999694586,num_2,0.4,1.6,0.30000000000000004,1.0,11.05949,36.86496,return,5.28356199990958,,,,,,,2,23,female,left_right_width,2023_Aug_14_1018,exp1,2021.2.3,60.097056716050375,
,,,,,,,,,,,,,,,,4,9.3,9.766666666666667,10.233333333333333,10.7,0,0.4666666666666667,0.3666666666666667,0.1,1.5,10,match,36.05,335,352,369,386,0,9,9,9,9,0,,,,,1,0,1,0,0,35,35,7,,,,,num_3,0.9141993001103401,num_3,0.35,1.3,0.15000000000000002,0.9,5.52974,33.17846,return,6.220394299831241,,,,,,,2,23,female,left_right_width,2023_Aug_14_1018,exp1,2021.2.3,60.097056716050375,
,,,,,,,,,,,,,,,,4,8.95,9.65,10.35,11.05,0,0.7,0.6,0.1,2.1999999999999997,10,initial,36.05,323,348,373,398,0,9,9,9,9,0,,,,,1,0,1,0,0,36,36,24,,,,,num_3,1.0570400001015514,num_3,0.45,0.8,0.10000000000000007,0.8,3.6865,29.49197,return,4.446152900112793,,,,,,,2,23,female,left_right_width,2023_Aug_14_1018,exp1,2021.2.3,60.097056716050375,
,,,,,,,,,,,,,,,,5,9.25,9.625,10,10.375,10.75,0.375,0.275,0.1,1.6,10,match,36.05,333,347,361,374,388,9,9,9,9,9,,,,,1,0,1,0,0,37,37,19,,,,,num_4,1.3827426999341697,num_4,0.35,1.1,0.10000000000000002,0.4,3.6865,14.74598,return,4.797174100065604,,,,,,,2,23,female,left_right_width,2023_Aug_14_1018,exp1,2021.2.3,60.097056716050375,
,,,,,,,,,,,,,,,,3,9.1,10,10.9,0,0,0.9,0.5,0.4,2.2,10,initial,36.05,328,361,393,0,0,9,9,9,0,0,,,,,1,0,1,0,0,38,38,16,,,,,num_4,1.2409304999746382,num_4,0.2,0.6,0.25,0.5,9.21624,18.43248,return,4.8989579998888075,,,,,,,2,23,female,left_right_width,2023_Aug_14_1018,exp1,2021.2.3,60.097056716050375,
,,,,,,,,,,,,,,,,5,8.6,9.3,10,10.7,11.4,0.7,0.29999999999999993,0.4,3.1999999999999997,10,initial,36.05,310,335,361,386,411,9,9,9,9,9,,,,,1,0,1,0,0,39,39,46,,,,,num_4,1.0816709999926388,num_4,0.25,1.1,0.2,0.4,7.37299,14.74598,return,4.34669700008817,,,,,,,2,23,female,left_right_width,2023_Aug_14_1018,exp1,2021.2.3,60.097056716050375,
,,,,,,,,,,,,,,,,3,8.6,10,11.4,0,0,1.4,1.2999999999999998,0.1,2.9,10,match,36.05,310,361,411,0,0,9,9,9,0,0,,,,,1,0,1,0,0,40,40,43,,,,,num_2,1.4520635998342186,num_2,0.15,1.6,0.09999999999999999,1.7,3.6865,62.67043,return,3.873666299972683,,,,,,,2,23,female,left_right_width,2023_Aug_14_1018,exp1,2021.2.3,60.097056716050375,
,,,,,,,,,,,,,,,,5,9.175,9.5875,10,10.4125,10.825,0.4125,0.16249999999999998,0.25,1.9,10,match,36.05,331,346,361,375,390,9,9,9,9,9,,,,,1,0,1,0,0,41,41,23,,,,,num_4,0.9422756000421941,num_4,0.4,1.3,0.25000000000000006,0.4,9.21624,14.74598,return,4.436925099929795,,,,,,,2,23,female,left_right_width,2023_Aug_14_1018,exp1,2021.2.3,60.097056716050375,
,,,,,,,,,,,,,,,,5,8.65,9.325,10,10.675,11.35,0.675,0.42500000000000004,0.25,2.95,10,match,36.05,312,336,361,385,409,9,9,9,9,9,,,,,1,0,1,0,0,42,42,33,,,,,num_5,1.8942401998210698,num_5,0.1,1.2,0.15000000000000002,0.5,5.52974,18.43248,return,4.200089499820024,,,,,,,2,23,female,left_right_width,2023_Aug_14_1018,exp1,2021.2.3,60.097056716050375,
,,,,,,,,,,,,,,,,5,8.6,9.3,10,10.7,11.4,0.7,0.6,0.1,2.9,10,initial,36.05,310,335,361,386,411,9,9,9,9,9,,,,,1,0,1,0,0,43,43,42,,,,,num_4,1.0700469999574125,num_4,0.4,0.5,0.05000000000000007,0.7,1.84325,25.80547,return,5.312380899908021,,,,,,,2,23,female,left_right_width,2023_Aug_14_1018,exp1,2021.2.3,60.097056716050375,
,,,,,,,,,,,,,,,,4,9.1,9.7,10.3,10.9,0,0.6000000000000001,0.20000000000000004,0.4,2.2,10,match,36.05,328,350,371,393,0,9,9,9,9,0,,,,,1,0,1,0,0,44,44,17,,,,,num_4,1.2519234998617321,num_4,0.4,1.2,0.4,0.6,14.74598,22.11898,return,3.19902199995704,,,,,,,2,23,female,left_right_width,2023_Aug_14_1018,exp1,2021.2.3,60.097056716050375,
,,,,,,,,,,,,,,,,3,9.5,10,10.5,0,0,0.5,0.25,0.25,1.25,10,initial,36.05,342,361,379,0,0,9,9,9,0,0,,,,,1,0,1,0,0,45,45,2,,,,,num_3,1.4596219998784363,num_3,0.15,0.6,0.2,0.45,7.37299,16.58923,return,3.000053099822253,,,,,,,2,23,female,left_right_width,2023_Aug_14_1018,exp1,2021.2.3,60.097056716050375,
,,,,,,,,,,,,,,,,5,8.2,9.1,10,10.9,11.8,0.9,0.65,0.25,3.85,10,initial,36.05,296,328,361,393,425,9,9,9,9,9,,,,,1,0,1,0,0,46,46,50,,,,,num_4,1.2488267000298947,num_4,0.2,1.3,0.15000000000000002,0.8,5.52974,29.49197,return,4.316066600149497,,,,,,,2,23,female,left_right_width,2023_Aug_14_1018,exp1,2021.2.3,60.097056716050375,
,,,,,,,,,,,,,,,,5,9,9.5,10,10.5,11,0.5,0.4,0.1,2.1,10,initial,36.05,324,342,361,379,397,9,9,9,9,9,,,,,1,0,1,0,0,47,47,36,,,,,num_4,1.1021012999117374,num_4,0.2,0.4,0.10000000000000002,0.7,3.6865,25.80547,return,3.5528521998785436,,,,,,,2,23,female,left_right_width,2023_Aug_14_1018,exp1,2021.2.3,60.097056716050375,
,,,,,,,,,,,,,,,,4,9.5,9.833333333333334,10.166666666666666,10.5,0,0.3333333333333333,0.08333333333333333,0.25,1.25,10,match,36.05,342,354,367,379,0,9,9,9,9,0,,,,,1,0,1,0,0,48,48,3,,,,,num_3,1.8354686999227852,num_3,0.4,0.5,0.35000000000000003,0.5,12.90274,18.43248,return,2.430845499970019,,,,,,,2,23,female,left_right_width,2023_Aug_14_1018,exp1,2021.2.3,60.097056716050375,
,,,,,,,,,,,,,,,,5,8.2,9.1,10,10.9,11.8,0.9,0.8,0.1,3.7,10,initial,36.05,296,328,361,393,425,9,9,9,9,9,,,,,1,0,1,0,0,49,49,48,,,,,num_4,0.9880838000681251,num_4,0.2,0.3,0.05000000000000002,0.7,1.84325,25.80547,return,3.6189569998532534,,,,,,,2,23,female,left_right_width,2023_Aug_14_1018,exp1,2021.2.3,60.097056716050375,
,,,,,,,,,,,,,,,,5,8.2,9.1,10,10.9,11.8,0.9,0.5,0.4,4,10,initial,36.05,296,328,361,393,425,9,9,9,9,9,,,,,1,0,1,0,0,50,50,52,,,,,num_5,1.6739447999279946,num_5,0.25,0.9,0.25,0.9,9.21624,33.17846,return,2.0153022999875247,,,,,,,2,23,female,left_right_width,2023_Aug_14_1018,exp1,2021.2.3,60.097056716050375,
,,,,,,,,,,,,,,,,5,8.65,9.325,10,10.675,11.35,0.6749999999999999,0.575,0.1,2.8,10,match,36.05,312,336,361,385,409,9,9,9,9,9,,,,,1,0,1,0,0,51,51,31,,,,,num_5,1.441465900046751,num_5,0.1,0.7,0.1,0.75,3.6865,27.64872,return,2.439302399987355,,,,,,,2,23,female,left_right_width,2023_Aug_14_1018,exp1,2021.2.3,60.097056716050375,
,,,,,,,,,,,,,,,,3,9.3,10,10.7,0,0,0.7,0.6,0.1,1.5,10,initial,36.05,335,361,386,0,0,9,9,9,0,0,,,,,1,0,1,0,0,52,52,6,,,,,num_2,2.2853526999242604,num_2,0.15,1.6,0.09999999999999999,1.0,3.6865,36.86496,return,3.2151250999886543,,,,,,,2,23,female,left_right_width,2023_Aug_14_1018,exp1,2021.2.3,60.097056716050375,
,,,,,,,,,,,,,,,,3,8.2,10,11.8,0,0,1.8,1.55,0.25,3.85,10,match,36.05,296,361,425,0,0,9,9,9,0,0,,,,,1,0,1,0,0,53,53,51,,,,,num_3,1.2969211000017822,num_3,0.4,0.8,0.20000000000000007,0.85,7.37299,31.33522,return,5.2116515000816435,,,,,,,2,23,female,left_right_width,2023_Aug_14_1018,exp1,2021.2.3,60.097056716050375,
,,,,,,,,,,,,,,,,,,,,,,,,,,,,,,,,,,,,,,,,,,,1,0,1,0,,,,,,,,,,,,,,,,,,,,,,1137.0413652998395,None,1137.0413652998395,None,2,23,female,left_right_width,2023_Aug_14_1018,exp1,2021.2.3,60.097056716050375,
,,,,,,,,,,,,,,,,3,9.5,10,10.5,0,0,0.5,0.25,0.25,1.25,10,initial,36.05,342,361,379,0,0,9,9,9,0,0,,,,,2,0,2,0,0,0,0,2,,,,,num_2,1.1095312000252306,num_2,0.45,1.6,0.35000000000000003,0.7,12.90274,25.80547,return,4.473137499997392,,,,,,,2,23,female,left_right_width,2023_Aug_14_1018,exp1,2021.2.3,60.097056716050375,
,,,,,,,,,,,,,,,,4,8.65,9.55,10.45,11.35,0,0.9,0.8,0.1,2.8000000000000003,10,initial,36.05,312,344,377,409,0,9,9,9,9,0,,,,,2,0,2,0,0,1,1,30,,,,,num_3,0.9896523000206798,num_3,0.45,1,0.25000000000000006,0.8,9.21624,29.49197,return,4.483104599872604,,,,,,,2,23,female,left_right_width,2023_Aug_14_1018,exp1,2021.2.3,60.097056716050375,
,,,,,,,,,,,,,,,,3,9,10,11,0,0,0.9999999999999999,0.5999999999999999,0.4,2.4,10,match,36.05,324,361,397,0,0,9,9,9,0,0,,,,,2,0,2,0,0,2,2,41,,,,,num_3,0.9581205998547375,num_3,0.4,0.5,0.35000000000000003,0.7,12.90274,25.80547,return,4.3109713001176715,,,,,,,2,23,female,left_right_width,2023_Aug_14_1018,exp1,2021.2.3,60.097056716050375,
,,,,,,,,,,,,,,,,4,9.425,9.808333333333334,10.191666666666666,10.575,0,0.3833333333333333,0.1333333333333333,0.25,1.4,10,match,36.05,340,354,367,381,0,9,9,9,9,0,,,,,2,0,2,0,0,3,3,5,,,,,num_3,2.131180000025779,num_3,0.45,0.5,0.25000000000000006,0.4,9.21624,14.74598,return,2.8743849999736995,,,,,,,2,23,female,left_right_width,2023_Aug_14_1018,exp1,2021.2.3,60.097056716050375,
,,,,,,,,,,,,,,,,3,8.6,10,11.4,0,0,1.4,1.2999999999999998,0.1,2.9,10,match,36.05,310,361,411,0,0,9,9,9,0,0,,,,,2,0,2,0,0,4,4,43,,,,,num_2,2.0261987999547273,num_2,0.4,1.6,0.15000000000000008,1.4,5.52974,51.61094,return,3.1572447000071406,,,,,,,2,23,female,left_right_width,2023_Aug_14_1018,exp1,2021.2.3,60.097056716050375,
,,,,,,,,,,,,,,,,4,9.5,9.833333333333334,10.166666666666666,10.5,0,0.33333333333333337,0.23333333333333336,0.1,1.1,10,match,36.05,342,354,367,379,0,9,9,9,9,0,,,,,2,0,2,0,0,5,5,1,,,,,num_3,1.1845591999590397,num_3,0.1,0.6,0.1,0.3,3.6865,11.05949,return,5.325689600082114,,,,,,,2,23,female,left_right_width,2023_Aug_14_1018,exp1,2021.2.3,60.097056716050375,
,,,,,,,,,,,,,,,,3,9.5,10,10.5,0,0,0.5,0.4,0.1,1.1,10,initial,36.05,342,361,379,0,0,9,9,9,0,0,,,,,2,0,2,0,0,6,6,0,,,,,num_3,1.1789308998268098,num_3,0.4,1.3,0.10000000000000007,0.6,3.6865,22.11898,return,5.946209300076589,,,,,,,2,23,female,left_right_width,2023_Aug_14_1018,exp1,2021.2.3,60.097056716050375,
,,,,,,,,,,,,,,,,5,8.2,9.1,10,10.9,11.8,0.9,0.8,0.1,3.7,10,initial,36.05,296,328,361,393,425,9,9,9,9,9,,,,,2,0,2,0,0,7,7,48,,,,,num_5,1.2300545000471175,num_5,0.25,1.1,0.10000000000000002,0.95,3.6865,35.02171,return,3.9168964999262244,,,,,,,2,23,female,left_right_width,2023_Aug_14_1018,exp1,2021.2.3,60.097056716050375,
,,,,,,,,,,,,,,,,3,8.2,10,11.8,0,0,1.7999999999999998,1.4,0.4,4,10,match,36.05,296,361,425,0,0,9,9,9,0,0,,,,,2,0,2,0,0,8,8,53,,,,,num_2,1.7518515998963267,num_2,0.25,1.6,0.3,1.8,11.05949,66.35693,return,3.6013164001051337,,,,,,,2,23,female,left_right_width,2023_Aug_14_1018,exp1,2021.2.3,60.097056716050375,
,,,,,,,,,,,,,,,,3,9.3,10,10.7,0,0,0.7,0.6,0.1,1.5,10,initial,36.05,335,361,386,0,0,9,9,9,0,0,,,,,2,0,2,0,0,9,9,6,,,,,num_3,1.1709008999168873,num_3,0.2,0.7,0.05000000000000002,0.75,1.84325,27.64872,return,3.330981899984181,,,,,,,2,23,female,left_right_width,2023_Aug_14_1018,exp1,2021.2.3,60.097056716050375,
,,,,,,,,,,,,,,,,5,9.25,9.625,10,10.375,10.75,0.375,0.125,0.25,1.75,10,match,36.05,333,347,361,374,388,9,9,9,9,9,,,,,2,0,2,0,0,10,10,21,,,,,num_4,1.0303704999387264,num_4,0.25,0.4,0.25,0.4,9.21624,14.74598,return,3.1634574001654983,,,,,,,2,23,female,left_right_width,2023_Aug_14_1018,exp1,2021.2.3,60.097056716050375,
,,,,,,,,,,,,,,,,3,9,10,11,0,0,1,0.9,0.1,2.1,10,match,36.05,324,361,397,0,0,9,9,9,0,0,,,,,2,0,2,0,0,11,11,37,,,,,num_3,1.1302925001364201,num_3,0.3,0.7,0.10000000000000002,0.75,3.6865,27.64872,return,3.901439200155437,,,,,,,2,23,female,left_right_width,2023_Aug_14_1018,exp1,2021.2.3,60.097056716050375,
,,,,,,,,,,,,,,,,5,8.95,9.475,10,10.525,11.05,0.525,0.42500000000000004,0.1,2.2,10,match,36.05,323,342,361,379,398,9,9,9,9,9,,,,,2,0,2,0,0,12,12,25,,,,,num_4,1.2249141000211239,num_4,0.25,0.7,0.10000000000000002,0.6,3.6865,22.11898,return,3.876231800066307,,,,,,,2,23,female,left_right_width,2023_Aug_14_1018,exp1,2021.2.3,60.097056716050375,
,,,,,,,,,,,,,,,,3,9.1,10,10.9,0,0,0.9,0.8,0.1,1.9000000000000001,10,initial,36.05,328,361,393,0,0,9,9,9,0,0,,,,,2,0,2,0,0,13,13,12,,,,,num_3,1.099997099954635,num_3,0.4,0.8,0.15000000000000008,0.6,5.52974,22.11898,return,3.980833600042388,,,,,,,2,23,female,left_right_width,2023_Aug_14_1018,exp1,2021.2.3,60.097056716050375,
,,,,,,,,,,,,,,,,3,8.2,10,11.8,0,0,1.8,1.55,0.25,3.85,10,match,36.05,296,361,425,0,0,9,9,9,0,0,,,,,2,0,2,0,0,14,14,51,,,,,num_3,0.9729707001242787,num_3,0.25,0.3,0.2,1.2,7.37299,44.23795,return,6.323210600065067,,,,,,,2,23,female,left_right_width,2023_Aug_14_1018,exp1,2021.2.3,60.097056716050375,
,,,,,,,,,,,,,,,,3,8.525,10,11.475,0,0,1.475,1.225,0.25,3.2,10,match,36.05,307,361,414,0,0,9,9,9,0,0,,,,,2,0,2,0,0,15,15,47,,,,,num_3,1.0927683000918478,num_3,0.4,1.3,0.30000000000000004,1.3,11.05949,47.92445,return,2.1500897998921573,,,,,,,2,23,female,left_right_width,2023_Aug_14_1018,exp1,2021.2.3,60.097056716050375,
,,,,,,,,,,,,,,,,4,9.25,9.75,10.25,10.75,0,0.5,0.4,0.1,1.6,10,initial,36.05,333,351,370,388,0,9,9,9,9,0,,,,,2,0,2,0,0,16,16,18,,,,,num_3,1.0103528001345694,num_3,0.15,1.2,0.09999999999999999,0.85,3.6865,31.33522,return,3.414308700012043,,,,,,,2,23,female,left_right_width,2023_Aug_14_1018,exp1,2021.2.3,60.097056716050375,
,,,,,,,,,,,,,,,,5,9.175,9.5875,10,10.4125,10.825,0.4125,0.16249999999999998,0.25,1.9,10,match,36.05,331,346,361,375,390,9,9,9,9,9,,,,,2,0,2,0,0,17,17,23,,,,,num_4,0.9929647000972182,num_4,0.25,1.0,0.2,0.4,7.37299,14.74598,return,4.728119899984449,,,,,,,2,23,female,left_right_width,2023_Aug_14_1018,exp1,2021.2.3,60.097056716050375,
,,,,,,,,,,,,,,,,5,8.95,9.475,10,10.525,11.05,0.525,0.275,0.25,2.35,10,match,36.05,323,342,361,379,398,9,9,9,9,9,,,,,2,0,2,0,0,18,18,27,,,,,num_5,0.9316836998332292,num_5,0.4,0.7,0.20000000000000007,0.5,7.37299,18.43248,return,3.694114899961278,,,,,,,2,23,female,left_right_width,2023_Aug_14_1018,exp1,2021.2.3,60.097056716050375,
,,,,,,,,,,,,,,,,4,8.95,9.65,10.35,11.05,0,0.7,0.6,0.1,2.1999999999999997,10,initial,36.05,323,348,373,398,0,9,9,9,9,0,,,,,2,0,2,0,0,19,19,24,,,,,num_4,0.9221324999816716,num_4,0.15,0.4,0.09999999999999999,0.6,3.6865,22.11898,return,5.491597899934277,,,,,,,2,23,female,left_right_width,2023_Aug_14_1018,exp1,2021.2.3,60.097056716050375,
,,,,,,,,,,,,,,,,3,9.5,10,10.5,0,0,0.5,0.09999999999999998,0.4,1.4000000000000001,10,initial,36.05,342,361,379,0,0,9,9,9,0,0,,,,,2,0,2,0,0,20,20,4,,,,,num_2,0.9166884999722242,num_2,0.4,1.6,0.35000000000000003,0.5,12.90274,18.43248,return,4.172881500096992,,,,,,,2,23,female,left_right_width,2023_Aug_14_1018,exp1,2021.2.3,60.097056716050375,
,,,,,,,,,,,,,,,,3,8.2,10,11.8,0,0,1.8000000000000003,1.7000000000000002,0.1,3.7,10,match,36.05,296,361,425,0,0,9,9,9,0,0,,,,,2,0,2,0,0,21,21,49,,,,,num_2,1.1129138998221606,num_2,0.4,1.6,0.10000000000000007,1.7,3.6865,62.67043,return,6.172880699858069,,,,,,,2,23,female,left_right_width,2023_Aug_14_1018,exp1,2021.2.3,60.097056716050375,
,,,,,,,,,,,,,,,,4,9.25,9.75,10.25,10.75,0,0.5,0.25,0.25,1.75,10,initial,36.05,333,351,370,388,0,9,9,9,9,0,,,,,2,0,2,0,0,22,22,20,,,,,num_4,1.6274510000366718,num_4,0.35,0.9,0.3,0.5,11.05949,18.43248,return,3.882182599976659,,,,,,,2,23,female,left_right_width,2023_Aug_14_1018,exp1,2021.2.3,60.097056716050375,
,,,,,,,,,,,,,,,,3,9.3,10,10.7,0,0,0.7,0.29999999999999993,0.4,1.8,10,initial,36.05,335,361,386,0,0,9,9,9,0,0,,,,,2,0,2,0,0,23,23,10,,,,,num_2,0.9749491000548005,num_2,0.35,1.6,0.35,0.6,12.90274,22.11898,return,2.932694499846548,,,,,,,2,23,female,left_right_width,2023_Aug_14_1018,exp1,2021.2.3,60.097056716050375,
,,,,,,,,,,,,,,,,5,8.65,9.325,10,10.675,11.35,0.675,0.275,0.4,3.1,10,match,36.05,312,336,361,385,409,9,9,9,9,9,,,,,2,0,2,0,0,24,24,35,,,,,num_5,1.0063205999322236,num_5,0.3,1.3,0.3,0.6,11.05949,22.11898,return,3.7339209001511335,,,,,,,2,23,female,left_right_width,2023_Aug_14_1018,exp1,2021.2.3,60.097056716050375,
,,,,,,,,,,,,,,,,5,8.2,9.1,10,10.9,11.8,0.9,0.5,0.4,4,10,initial,36.05,296,328,361,393,425,9,9,9,9,9,,,,,2,0,2,0,0,25,25,52,,,,,num_5,0.9660905001219362,num_5,0.15,0.5,0.25,0.7,9.21624,25.80547,return,4.5109324001241475,,,,,,,2,23,female,left_right_width,2023_Aug_14_1018,exp1,2021.2.3,60.097056716050375,
,,,,,,,,,,,,,,,,3,9.1,10,10.9,0,0,0.9,0.5,0.4,2.2,10,initial,36.05,328,361,393,0,0,9,9,9,0,0,,,,,2,0,2,0,0,26,26,16,,,,,num_3,1.082757400115952,num_3,0.3,1,0.35,0.7,12.90274,25.80547,return,3.3282489001285285,,,,,,,2,23,female,left_right_width,2023_Aug_14_1018,exp1,2021.2.3,60.097056716050375,
,,,,,,,,,,,,,,,,3,9,10,11,0,0,1,0.75,0.25,2.25,10,match,36.05,324,361,397,0,0,9,9,9,0,0,,,,,2,0,2,0,0,27,27,39,,,,,num_3,1.1220228001475334,num_3,0.4,0.7,0.30000000000000004,0.65,11.05949,23.96222,return,3.9229668001644313,,,,,,,2,23,female,left_right_width,2023_Aug_14_1018,exp1,2021.2.3,60.097056716050375,
,,,,,,,,,,,,,,,,5,8.6,9.3,10,10.7,11.4,0.7,0.29999999999999993,0.4,3.1999999999999997,10,initial,36.05,310,335,361,386,411,9,9,9,9,9,,,,,2,0,2,0,0,28,28,46,,,,,num_5,1.005867199972272,num_5,0.1,1.3,0.3,0.65,11.05949,23.96222,return,6.131469199899584,,,,,,,2,23,female,left_right_width,2023_Aug_14_1018,exp1,2021.2.3,60.097056716050375,
,,,,,,,,,,,,,,,,3,9.1,10,10.9,0,0,0.9,0.65,0.25,2.05,10,initial,36.05,328,361,393,0,0,9,9,9,0,0,,,,,2,0,2,0,0,29,29,14,,,,,num_3,0.8919418000150472,num_3,0.35,1.2,0.25,1.1,9.21624,40.55146,return,3.3182486000005156,,,,,,,2,23,female,left_right_width,2023_Aug_14_1018,exp1,2021.2.3,60.097056716050375,
,,,,,,,,,,,,,,,,5,8.95,9.475,10,10.525,11.05,0.525,0.125,0.4,2.5,10,match,36.05,323,342,361,379,398,9,9,9,9,9,,,,,2,0,2,0,0,30,30,29,,,,,num_4,1.150973099982366,num_4,0.2,1.0,0.3,0.4,11.05949,14.74598,return,5.373322900151834,,,,,,,2,23,female,left_right_width,2023_Aug_14_1018,exp1,2021.2.3,60.097056716050375,
,,,,,,,,,,,,,,,,5,9,9.5,10,10.5,11,0.5,0.09999999999999998,0.4,2.4,10,initial,36.05,324,342,361,379,397,9,9,9,9,9,,,,,2,0,2,0,0,31,31,40,,,,,num_4,0.8846092000603676,num_4,0.2,0.9,0.3,0.4,11.05949,14.74598,return,3.966196099994704,,,,,,,2,23,female,left_right_width,2023_Aug_14_1018,exp1,2021.2.3,60.097056716050375,
,,,,,,,,,,,,,,,,5,9.25,9.625,10,10.375,10.75,0.375,0.275,0.1,1.6,10,match,36.05,333,347,361,374,388,9,9,9,9,9,,,,,2,0,2,0,0,32,32,19,,,,,num_3,1.273312599863857,num_3,0.15,0.8,0.04999999999999999,0.4,1.84325,14.74598,return,7.9540369000751525,,,,,,,2,23,female,left_right_width,2023_Aug_14_1018,exp1,2021.2.3,60.097056716050375,
,,,,,,,,,,,,,,,,5,9,9.5,10,10.5,11,0.5,0.25,0.25,2.25,10,initial,36.05,324,342,361,379,397,9,9,9,9,9,,,,,2,0,2,0,0,33,33,38,,,,,num_4,1.68879280006513,num_4,0.15,1.1,0.15,0.4,5.52974,14.74598,return,6.882797199999914,,,,,,,2,23,female,left_right_width,2023_Aug_14_1018,exp1,2021.2.3,60.097056716050375,
,,,,,,,,,,,,,,,,5,8.65,9.325,10,10.675,11.35,0.6749999999999999,0.575,0.1,2.8,10,match,36.05,312,336,361,385,409,9,9,9,9,9,,,,,2,0,2,0,0,34,34,31,,,,,num_4,1.5436304998584092,num_4,0.3,0.7,0.10000000000000002,0.6,3.6865,22.11898,return,2.841347800102085,,,,,,,2,23,female,left_right_width,2023_Aug_14_1018,exp1,2021.2.3,60.097056716050375,
,,,,,,,,,,,,,,,,4,9.25,9.75,10.25,10.75,0,0.5,0.09999999999999998,0.4,1.9,10,initial,36.05,333,351,370,388,0,9,9,9,9,0,,,,,2,0,2,0,0,35,35,22,,,,,num_4,1.015297400066629,num_4,0.3,0.4,0.3,0.5,11.05949,18.43248,return,3.0678210998885334,,,,,,,2,23,female,left_right_width,2023_Aug_14_1018,exp1,2021.2.3,60.097056716050375,
,,,,,,,,,,,,,,,,3,8.6,10,11.4,0,0,1.4,1.15,0.25,3.05,10,match,36.05,310,361,411,0,0,9,9,9,0,0,,,,,2,0,2,0,0,36,36,45,,,,,num_3,1.0463429999072105,num_3,0.45,0.9,0.25000000000000006,1.15,9.21624,42.3947,return,5.994024599902332,,,,,,,2,23,female,left_right_width,2023_Aug_14_1018,exp1,2021.2.3,60.097056716050375,
,,,,,,,,,,,,,,,,4,8.95,9.65,10.35,11.05,0,0.7,0.44999999999999996,0.25,2.3499999999999996,10,initial,36.05,323,348,373,398,0,9,9,9,9,0,,,,,2,0,2,0,0,37,37,26,,,,,num_4,1.2601546999067068,num_4,0.3,0.3,0.2,0.6,7.37299,22.11898,return,6.76090359990485,,,,,,,2,23,female,left_right_width,2023_Aug_14_1018,exp1,2021.2.3,60.097056716050375,
,,,,,,,,,,,,,,,,4,9.3,9.766666666666667,10.233333333333333,10.7,0,0.4666666666666667,0.3666666666666667,0.1,1.5,10,match,36.05,335,352,369,386,0,9,9,9,9,0,,,,,2,0,2,0,0,38,38,7,,,,,num_3,1.4986370999831706,num_3,0.45,0.6,0.15000000000000008,0.7,5.52974,25.80547,return,3.61164760007523,,,,,,,2,23,female,left_right_width,2023_Aug_14_1018,exp1,2021.2.3,60.097056716050375,
,,,,,,,,,,,,,,,,5,9,9.5,10,10.5,11,0.5,0.4,0.1,2.1,10,initial,36.05,324,342,361,379,397,9,9,9,9,9,,,,,2,0,2,0,0,39,39,36,,,,,num_4,0.8041000999510288,num_4,0.2,0.4,0.15000000000000002,0.5,5.52974,18.43248,return,4.4507905000355095,,,,,,,2,23,female,left_right_width,2023_Aug_14_1018,exp1,2021.2.3,60.097056716050375,
,,,,,,,,,,,,,,,,4,8.65,9.55,10.45,11.35,0,0.9,0.65,0.25,2.95,10,initial,36.05,312,344,377,409,0,9,9,9,9,0,,,,,2,0,2,0,0,40,40,32,,,,,num_4,0.8677276999223977,num_4,0.45,0.8,0.20000000000000007,0.9,7.37299,33.17846,return,4.432038699975237,,,,,,,2,23,female,left_right_width,2023_Aug_14_1018,exp1,2021.2.3,60.097056716050375,
,,,,,,,,,,,,,,,,5,8.65,9.325,10,10.675,11.35,0.675,0.42500000000000004,0.25,2.95,10,match,36.05,312,336,361,385,409,9,9,9,9,9,,,,,2,0,2,0,0,41,41,33,,,,,num_5,1.223014400107786,num_5,0.15,0.3,0.15,0.5,5.52974,18.43248,return,2.898423899896443,,,,,,,2,23,female,left_right_width,2023_Aug_14_1018,exp1,2021.2.3,60.097056716050375,
,,,,,,,,,,,,,,,,5,8.6,9.3,10,10.7,11.4,0.7,0.44999999999999996,0.25,3.05,10,initial,36.05,310,335,361,386,411,9,9,9,9,9,,,,,2,0,2,0,0,42,42,44,,,,,num_5,1.7096500999759883,num_5,0.3,0.9,0.15000000000000002,0.75,5.52974,27.64872,return,3.5736231999471784,,,,,,,2,23,female,left_right_width,2023_Aug_14_1018,exp1,2021.2.3,60.097056716050375,
,,,,,,,,,,,,,,,,4,9.3,9.766666666666667,10.233333333333333,10.7,0,0.4666666666666667,0.06666666666666665,0.4,1.8,10,match,36.05,335,352,369,386,0,9,9,9,9,0,,,,,2,0,2,0,0,43,43,11,,,,,num_4,1.2154684998095036,num_4,0.1,1.0,0.3,0.4,11.05949,14.74598,return,7.725207200041041,,,,,,,2,23,female,left_right_width,2023_Aug_14_1018,exp1,2021.2.3,60.097056716050375,
,,,,,,,,,,,,,,,,4,9.1,9.7,10.3,10.9,0,0.6000000000000001,0.20000000000000004,0.4,2.2,10,match,36.05,328,350,371,393,0,9,9,9,9,0,,,,,2,0,2,0,0,44,44,17,,,,,num_4,1.3296343002002686,num_4,0.3,0.3,0.35,0.5,12.90274,18.43248,return,4.331145600182936,,,,,,,2,23,female,left_right_width,2023_Aug_14_1018,exp1,2021.2.3,60.097056716050375,
,,,,,,,,,,,,,,,,4,9.5,9.833333333333334,10.166666666666666,10.5,0,0.3333333333333333,0.08333333333333333,0.25,1.25,10,match,36.05,342,354,367,379,0,9,9,9,9,0,,,,,2,0,2,0,0,45,45,3,,,,,num_4,1.2110293000005186,num_4,0.45,1.1,0.35000000000000003,0.5,12.90274,18.43248,return,4.857815499883145,,,,,,,2,23,female,left_right_width,2023_Aug_14_1018,exp1,2021.2.3,60.097056716050375,
,,,,,,,,,,,,,,,,3,9.3,10,10.7,0,0,0.7,0.44999999999999996,0.25,1.65,10,initial,36.05,335,361,386,0,0,9,9,9,0,0,,,,,2,0,2,0,0,46,46,8,,,,,num_2,1.0016726001631469,num_2,0.2,1.6,0.2,0.4,7.37299,14.74598,return,3.2798180000390857,,,,,,,2,23,female,left_right_width,2023_Aug_14_1018,exp1,2021.2.3,60.097056716050375,
,,,,,,,,,,,,,,,,5,8.6,9.3,10,10.7,11.4,0.7,0.6,0.1,2.9,10,initial,36.05,310,335,361,386,411,9,9,9,9,9,,,,,2,0,2,0,0,47,47,42,,,,,num_4,1.0223517001140863,num_4,0.4,1.2,0.10000000000000007,0.7,3.6865,25.80547,return,5.2526965001598,,,,,,,2,23,female,left_right_width,2023_Aug_14_1018,exp1,2021.2.3,60.097056716050375,
,,,,,,,,,,,,,,,,4,9.1,9.7,10.3,10.9,0,0.5999999999999999,0.3499999999999999,0.25,2.05,10,match,36.05,328,350,371,393,0,9,9,9,9,0,,,,,2,0,2,0,0,48,48,15,,,,,num_4,0.9068291001021862,num_4,0.35,0.4,0.25,0.6,9.21624,22.11898,return,4.069844499928877,,,,,,,2,23,female,left_right_width,2023_Aug_14_1018,exp1,2021.2.3,60.097056716050375,
,,,,,,,,,,,,,,,,4,8.95,9.65,10.35,11.05,0,0.7,0.29999999999999993,0.4,2.5,10,initial,36.05,323,348,373,398,0,9,9,9,9,0,,,,,2,0,2,0,0,49,49,28,,,,,num_4,1.2597178998403251,num_4,0.1,0.6,0.3,0.6,11.05949,22.11898,return,5.287962399888784,,,,,,,2,23,female,left_right_width,2023_Aug_14_1018,exp1,2021.2.3,60.097056716050375,
,,,,,,,,,,,,,,,,4,9.1,9.7,10.3,10.9,0,0.6,0.5,0.1,1.9,10,match,36.05,328,350,371,393,0,9,9,9,9,0,,,,,2,0,2,0,0,50,50,13,,,,,num_4,0.9397543999366462,num_4,0.3,0.5,0.10000000000000002,0.4,3.6865,14.74598,return,5.667309400159866,,,,,,,2,23,female,left_right_width,2023_Aug_14_1018,exp1,2021.2.3,60.097056716050375,
,,,,,,,,,,,,,,,,5,8.2,9.1,10,10.9,11.8,0.9,0.65,0.25,3.85,10,initial,36.05,296,328,361,393,425,9,9,9,9,9,,,,,2,0,2,0,0,51,51,50,,,,,num_5,0.9368449000176042,num_5,0.1,1.3,0.2,1.0,7.37299,36.86496,return,4.514926000032574,,,,,,,2,23,female,left_right_width,2023_Aug_14_1018,exp1,2021.2.3,60.097056716050375,
,,,,,,,,,,,,,,,,4,8.65,9.55,10.45,11.35,0,0.9,0.5,0.4,3.1,10,initial,36.05,312,344,377,409,0,9,9,9,9,0,,,,,2,0,2,0,0,52,52,34,,,,,num_4,1.102110099978745,num_4,0.15,1.2,0.3,0.9,11.05949,33.17846,return,3.80714390007779,,,,,,,2,23,female,left_right_width,2023_Aug_14_1018,exp1,2021.2.3,60.097056716050375,
,,,,,,,,,,,,,,,,4,9.3,9.766666666666667,10.233333333333333,10.7,0,0.4666666666666667,0.21666666666666665,0.25,1.65,10,match,36.05,335,352,369,386,0,9,9,9,9,0,,,,,2,0,2,0,0,53,53,9,,,,,num_4,1.008910700213164,num_4,0.4,0.6,0.25000000000000006,0.5,9.21624,18.43248,return,6.214666600106284,,,,,,,2,23,female,left_right_width,2023_Aug_14_1018,exp1,2021.2.3,60.097056716050375,
,,,,,,,,,,,,,,,,,,,,,,,,,,,,,,,,,,,,,,,,,,,2,0,2,0,,,,,,,,,,,,,,,,,,,,,,1570.5577062999364,None,1570.5577062999364,None,2,23,female,left_right_width,2023_Aug_14_1018,exp1,2021.2.3,60.097056716050375,
,,,,,,,,,,,,,,,,3,9.1,10,10.9,0,0,0.9,0.65,0.25,2.05,10,initial,36.05,328,361,393,0,0,9,9,9,0,0,,,,,3,0,3,0,0,0,0,14,,,,,num_2,0.5303032000083476,num_2,0.45,1.6,0.30000000000000004,1.0,11.05949,36.86496,return,4.125474300002679,,,,,,,2,23,female,left_right_width,2023_Aug_14_1018,exp1,2021.2.3,60.097056716050375,
,,,,,,,,,,,,,,,,3,9.5,10,10.5,0,0,0.5,0.09999999999999998,0.4,1.4000000000000001,10,initial,36.05,342,361,379,0,0,9,9,9,0,0,,,,,3,0,3,0,0,1,1,4,,,,,num_2,0.9596690000034869,num_2,0.3,1.6,0.35,0.5,12.90274,18.43248,return,5.033207800006494,,,,,,,2,23,female,left_right_width,2023_Aug_14_1018,exp1,2021.2.3,60.097056716050375,
,,,,,,,,,,,,,,,,4,8.65,9.55,10.45,11.35,0,0.9,0.5,0.4,3.1,10,initial,36.05,312,344,377,409,0,9,9,9,9,0,,,,,3,0,3,0,0,2,2,34,,,,,num_3,0.8715764000080526,num_3,0.4,1.3,0.4,1.0,14.74598,36.86496,return,2.6591425000224262,,,,,,,2,23,female,left_right_width,2023_Aug_14_1018,exp1,2021.2.3,60.097056716050375,
,,,,,,,,,,,,,,,,3,9.3,10,10.7,0,0,0.7,0.29999999999999993,0.4,1.8,10,initial,36.05,335,361,386,0,0,9,9,9,0,0,,,,,3,0,3,0,0,3,3,10,,,,,num_2,1.4574508001096547,num_2,0.1,1.6,0.2,0.5,7.37299,18.43248,return,5.190002999966964,,,,,,,2,23,female,left_right_width,2023_Aug_14_1018,exp1,2021.2.3,60.097056716050375,
,,,,,,,,,,,,,,,,3,8.2,10,11.8,0,0,1.8,1.55,0.25,3.85,10,match,36.05,296,361,425,0,0,9,9,9,0,0,,,,,3,0,3,0,0,4,4,51,,,,,num_2,0.9630356999114156,num_2,0.45,1.6,0.30000000000000004,2.1,11.05949,77.41642,return,3.9808626999147236,,,,,,,2,23,female,left_right_width,2023_Aug_14_1018,exp1,2021.2.3,60.097056716050375,
,,,,,,,,,,,,,,,,4,8.95,9.65,10.35,11.05,0,0.7,0.29999999999999993,0.4,2.5,10,initial,36.05,323,348,373,398,0,9,9,9,9,0,,,,,3,0,3,0,0,5,5,28,,,,,num_3,0.9430054998956621,num_3,0.2,0.8,0.25,0.55,9.21624,20.27573,return,3.3658064000774175,,,,,,,2,23,female,left_right_width,2023_Aug_14_1018,exp1,2021.2.3,60.097056716050375,
,,,,,,,,,,,,,,,,5,8.6,9.3,10,10.7,11.4,0.7,0.29999999999999993,0.4,3.1999999999999997,10,initial,36.05,310,335,361,386,411,9,9,9,9,9,,,,,3,0,3,0,0,6,6,46,,,,,num_4,1.1726158000528812,num_4,0.35,0.5,0.35,0.6,12.90274,22.11898,return,2.0673895000945777,,,,,,,2,23,female,left_right_width,2023_Aug_14_1018,exp1,2021.2.3,60.097056716050375,
,,,,,,,,,,,,,,,,5,9.25,9.625,10,10.375,10.75,0.375,0.275,0.1,1.6,10,match,36.05,333,347,361,374,388,9,9,9,9,9,,,,,3,0,3,0,0,7,7,19,,,,,num_4,0.9521100998390466,num_4,0.25,1.1,0.15000000000000002,0.5,5.52974,18.43248,return,3.294230400118977,,,,,,,2,23,female,left_right_width,2023_Aug_14_1018,exp1,2021.2.3,60.097056716050375,
,,,,,,,,,,,,,,,,5,9.25,9.625,10,10.375,10.75,0.375,0.125,0.25,1.75,10,match,36.05,333,347,361,374,388,9,9,9,9,9,,,,,3,0,3,0,0,8,8,21,,,,,num_4,1.2140056998468935,num_4,0.15,0.7,0.2,0.3,7.37299,11.05949,return,3.1814679000526667,,,,,,,2,23,female,left_right_width,2023_Aug_14_1018,exp1,2021.2.3,60.097056716050375,
,,,,,,,,,,,,,,,,4,9.3,9.766666666666667,10.233333333333333,10.7,0,0.4666666666666667,0.06666666666666665,0.4,1.8,10,match,36.05,335,352,369,386,0,9,9,9,9,0,,,,,3,0,3,0,0,9,9,11,,,,,num_4,1.5018033999949694,num_4,0.4,1.3,0.35000000000000003,0.5,12.90274,18.43248,return,3.712292999960482,,,,,,,2,23,female,left_right_width,2023_Aug_14_1018,exp1,2021.2.3,60.097056716050375,
,,,,,,,,,,,,,,,,4,8.65,9.55,10.45,11.35,0,0.9,0.8,0.1,2.8000000000000003,10,initial,36.05,312,344,377,409,0,9,9,9,9,0,,,,,3,0,3,0,0,10,10,30,,,,,num_3,1.4202071998734027,num_3,0.35,0.8,0.10000000000000002,0.95,3.6865,35.02171,return,5.09003149997443,,,,,,,2,23,female,left_right_width,2023_Aug_14_1018,exp1,2021.2.3,60.097056716050375,
,,,,,,,,,,,,,,,,5,8.95,9.475,10,10.525,11.05,0.525,0.42500000000000004,0.1,2.2,10,match,36.05,323,342,361,379,398,9,9,9,9,9,,,,,3,0,3,0,0,11,11,25,,,,,num_4,1.3349570999853313,num_4,0.35,0.8,0.05000000000000002,0.6,1.84325,22.11898,return,3.9213409998919815,,,,,,,2,23,female,left_right_width,2023_Aug_14_1018,exp1,2021.2.3,60.097056716050375,
,,,,,,,,,,,,,,,,4,9.5,9.833333333333334,10.166666666666666,10.5,0,0.3333333333333333,0.08333333333333333,0.25,1.25,10,match,36.05,342,354,367,379,0,9,9,9,9,0,,,,,3,0,3,0,0,12,12,3,,,,,num_4,1.0451447998639196,num_4,0.15,0.5,0.2,0.3,7.37299,11.05949,return,3.463238200172782,,,,,,,2,23,female,left_right_width,2023_Aug_14_1018,exp1,2021.2.3,60.097056716050375,
,,,,,,,,,,,,,,,,4,9.1,9.7,10.3,10.9,0,0.6000000000000001,0.20000000000000004,0.4,2.2,10,match,36.05,328,350,371,393,0,9,9,9,9,0,,,,,3,0,3,0,0,13,13,17,,,,,num_3,0.9500474000815302,num_3,0.35,0.7,0.35,0.55,12.90274,20.27573,return,3.8232634000014514,,,,,,,2,23,female,left_right_width,2023_Aug_14_1018,exp1,2021.2.3,60.097056716050375,
,,,,,,,,,,,,,,,,4,9.1,9.7,10.3,10.9,0,0.5999999999999999,0.3499999999999999,0.25,2.05,10,match,36.05,328,350,371,393,0,9,9,9,9,0,,,,,3,0,3,0,0,14,14,15,,,,,num_4,1.4909370001405478,num_4,0.3,0.3,0.3,0.5,11.05949,18.43248,return,5.635968300048262,,,,,,,2,23,female,left_right_width,2023_Aug_14_1018,exp1,2021.2.3,60.097056716050375,
,,,,,,,,,,,,,,,,3,9,10,11,0,0,0.9999999999999999,0.5999999999999999,0.4,2.4,10,match,36.05,324,361,397,0,0,9,9,9,0,0,,,,,3,0,3,0,0,15,15,41,,,,,num_3,1.0054866999853402,num_3,0.45,0.8,0.45,0.95,16.58923,35.02171,return,2.9170485001523048,,,,,,,2,23,female,left_right_width,2023_Aug_14_1018,exp1,2021.2.3,60.097056716050375,
,,,,,,,,,,,,,,,,3,9.3,10,10.7,0,0,0.7,0.44999999999999996,0.25,1.65,10,initial,36.05,335,361,386,0,0,9,9,9,0,0,,,,,3,0,3,0,0,16,16,8,,,,,num_3,0.9443814000114799,num_3,0.4,1.2,0.25000000000000006,0.8,9.21624,29.49197,return,4.169472599867731,,,,,,,2,23,female,left_right_width,2023_Aug_14_1018,exp1,2021.2.3,60.097056716050375,
,,,,,,,,,,,,,,,,4,9.425,9.808333333333334,10.191666666666666,10.575,0,0.3833333333333333,0.1333333333333333,0.25,1.4,10,match,36.05,340,354,367,381,0,9,9,9,9,0,,,,,3,0,3,0,0,17,17,5,,,,,num_3,0.8276651001069695,num_3,0.25,0.3,0.3,0.4,11.05949,14.74598,return,2.297436499968171,,,,,,,2,23,female,left_right_width,2023_Aug_14_1018,exp1,2021.2.3,60.097056716050375,
,,,,,,,,,,,,,,,,4,9.3,9.766666666666667,10.233333333333333,10.7,0,0.4666666666666667,0.3666666666666667,0.1,1.5,10,match,36.05,335,352,369,386,0,9,9,9,9,0,,,,,3,0,3,0,0,18,18,7,,,,,num_3,0.8701389001216739,num_3,0.2,0.6,0.10000000000000002,0.45,3.6865,16.58923,return,2.5141102999914438,,,,,,,2,23,female,left_right_width,2023_Aug_14_1018,exp1,2021.2.3,60.097056716050375,
,,,,,,,,,,,,,,,,5,8.6,9.3,10,10.7,11.4,0.7,0.6,0.1,2.9,10,initial,36.05,310,335,361,386,411,9,9,9,9,9,,,,,3,0,3,0,0,19,19,42,,,,,num_5,0.8862906000576913,num_5,0.2,0.5,0.10000000000000002,0.55,3.6865,20.27573,return,5.406892400002107,,,,,,,2,23,female,left_right_width,2023_Aug_14_1018,exp1,2021.2.3,60.097056716050375,
,,,,,,,,,,,,,,,,4,9.25,9.75,10.25,10.75,0,0.5,0.25,0.25,1.75,10,initial,36.05,333,351,370,388,0,9,9,9,9,0,,,,,3,0,3,0,0,20,20,20,,,,,num_3,1.2635836000554264,num_3,0.4,0.9,0.25000000000000006,0.7,9.21624,25.80547,return,3.835028100060299,,,,,,,2,23,female,left_right_width,2023_Aug_14_1018,exp1,2021.2.3,60.097056716050375,
,,,,,,,,,,,,,,,,4,8.65,9.55,10.45,11.35,0,0.9,0.65,0.25,2.95,10,initial,36.05,312,344,377,409,0,9,9,9,9,0,,,,,3,0,3,0,0,21,21,32,,,,,num_4,0.9915124999824911,num_4,0.1,0.6,0.2,0.8,7.37299,29.49197,return,3.254465399775654,,,,,,,2,23,female,left_right_width,2023_Aug_14_1018,exp1,2021.2.3,60.097056716050375,
,,,,,,,,,,,,,,,,3,8.2,10,11.8,0,0,1.8000000000000003,1.7000000000000002,0.1,3.7,10,match,36.05,296,361,425,0,0,9,9,9,0,0,,,,,3,0,3,0,0,22,22,49,,,,,num_3,1.0635451001580805,num_3,0.2,0.6,0.05000000000000002,0.7,1.84325,25.80547,return,4.796994200209156,,,,,,,2,23,female,left_right_width,2023_Aug_14_1018,exp1,2021.2.3,60.097056716050375,
,,,,,,,,,,,,,,,,4,9.25,9.75,10.25,10.75,0,0.5,0.09999999999999998,0.4,1.9,10,initial,36.05,333,351,370,388,0,9,9,9,9,0,,,,,3,0,3,0,0,23,23,22,,,,,num_3,1.0869686999358237,num_3,0.35,0.5,0.44999999999999996,0.55,16.58923,20.27573,return,3.599426200147718,,,,,,,2,23,female,left_right_width,2023_Aug_14_1018,exp1,2021.2.3,60.097056716050375,
,,,,,,,,,,,,,,,,4,9.5,9.833333333333334,10.166666666666666,10.5,0,0.33333333333333337,0.23333333333333336,0.1,1.1,10,match,36.05,342,354,367,379,0,9,9,9,9,0,,,,,3,0,3,0,0,24,24,1,,,,,num_3,1.097148000029847,num_3,0.45,0.9,0.10000000000000007,0.45,3.6865,16.58923,return,5.160841099917889,,,,,,,2,23,female,left_right_width,2023_Aug_14_1018,exp1,2021.2.3,60.097056716050375,
,,,,,,,,,,,,,,,,4,9.25,9.75,10.25,10.75,0,0.5,0.4,0.1,1.6,10,initial,36.05,333,351,370,388,0,9,9,9,9,0,,,,,3,0,3,0,0,25,25,18,,,,,num_4,1.306235000025481,num_4,0.3,0.5,0.10000000000000002,0.4,3.6865,14.74598,return,8.677028100006282,,,,,,,2,23,female,left_right_width,2023_Aug_14_1018,exp1,2021.2.3,60.097056716050375,
,,,,,,,,,,,,,,,,3,9.5,10,10.5,0,0,0.5,0.25,0.25,1.25,10,initial,36.05,342,361,379,0,0,9,9,9,0,0,,,,,3,0,3,0,0,26,26,2,,,,,num_2,1.1062771999277174,num_2,0.4,1.6,0.25000000000000006,0.5,9.21624,18.43248,return,4.645070099970326,,,,,,,2,23,female,left_right_width,2023_Aug_14_1018,exp1,2021.2.3,60.097056716050375,
,,,,,,,,,,,,,,,,3,9.1,10,10.9,0,0,0.9,0.8,0.1,1.9000000000000001,10,initial,36.05,328,361,393,0,0,9,9,9,0,0,,,,,3,0,3,0,0,27,27,12,,,,,num_2,0.865417700028047,num_2,0.1,1.6,0.05,0.5,1.84325,18.43248,return,3.3743116001132876,,,,,,,2,23,female,left_right_width,2023_Aug_14_1018,exp1,2021.2.3,60.097056716050375,
,,,,,,,,,,,,,,,,3,9.5,10,10.5,0,0,0.5,0.4,0.1,1.1,10,initial,36.05,342,361,379,0,0,9,9,9,0,0,,,,,3,0,3,0,0,28,28,0,,,,,num_2,0.943677700124681,num_2,0.4,1.6,0.10000000000000007,0.6,3.6865,22.11898,return,5.6254392000846565,,,,,,,2,23,female,left_right_width,2023_Aug_14_1018,exp1,2021.2.3,60.097056716050375,
,,,,,,,,,,,,,,,,3,9.1,10,10.9,0,0,0.9,0.5,0.4,2.2,10,initial,36.05,328,361,393,0,0,9,9,9,0,0,,,,,3,0,3,0,0,29,29,16,,,,,num_3,1.0862354999408126,num_3,0.15,1.1,0.35,0.8,12.90274,29.49197,return,4.304169700015336,,,,,,,2,23,female,left_right_width,2023_Aug_14_1018,exp1,2021.2.3,60.097056716050375,
,,,,,,,,,,,,,,,,5,8.65,9.325,10,10.675,11.35,0.675,0.42500000000000004,0.25,2.95,10,match,36.05,312,336,361,385,409,9,9,9,9,9,,,,,3,0,3,0,0,30,30,33,,,,,num_5,0.9415627000853419,num_5,0.3,0.6,0.3,0.65,11.05949,23.96222,return,6.439168700017035,,,,,,,2,23,female,left_right_width,2023_Aug_14_1018,exp1,2021.2.3,60.097056716050375,
,,,,,,,,,,,,,,,,3,9.3,10,10.7,0,0,0.7,0.6,0.1,1.5,10,initial,36.05,335,361,386,0,0,9,9,9,0,0,,,,,3,0,3,0,0,31,31,6,,,,,num_2,0.9896511998958886,num_2,0.1,1.6,0.1,0.7,3.6865,25.80547,return,2.9947925000451505,,,,,,,2,23,female,left_right_width,2023_Aug_14_1018,exp1,2021.2.3,60.097056716050375,
,,,,,,,,,,,,,,,,5,9,9.5,10,10.5,11,0.5,0.09999999999999998,0.4,2.4,10,initial,36.05,324,342,361,379,397,9,9,9,9,9,,,,,3,0,3,0,0,32,32,40,,,,,num_4,2.6617818002123386,num_4,0.35,1.2,0.39999999999999997,0.6,14.74598,22.11898,return,7.48015969991684,,,,,,,2,23,female,left_right_width,2023_Aug_14_1018,exp1,2021.2.3,60.097056716050375,
,,,,,,,,,,,,,,,,5,8.65,9.325,10,10.675,11.35,0.675,0.275,0.4,3.1,10,match,36.05,312,336,361,385,409,9,9,9,9,9,,,,,3,0,3,0,0,33,33,35,,,,,num_4,2.3757748000789434,num_4,0.1,0.9,0.39999999999999997,0.6,14.74598,22.11898,return,3.7041058000177145,,,,,,,2,23,female,left_right_width,2023_Aug_14_1018,exp1,2021.2.3,60.097056716050375,
,,,,,,,,,,,,,,,,5,8.2,9.1,10,10.9,11.8,0.9,0.5,0.4,4,10,initial,36.05,296,328,361,393,425,9,9,9,9,9,,,,,3,0,3,0,0,34,34,52,,,,,num_4,0.9285347999539226,num_4,0.25,1.2,0.35,0.8,12.90274,29.49197,return,5.130251599941403,,,,,,,2,23,female,left_right_width,2023_Aug_14_1018,exp1,2021.2.3,60.097056716050375,
,,,,,,,,,,,,,,,,3,8.2,10,11.8,0,0,1.7999999999999998,1.4,0.4,4,10,match,36.05,296,361,425,0,0,9,9,9,0,0,,,,,3,0,3,0,0,35,35,53,,,,,num_3,1.203387400135398,num_3,0.15,0.6,0.25,1.2,9.21624,44.23795,return,5.712333100149408,,,,,,,2,23,female,left_right_width,2023_Aug_14_1018,exp1,2021.2.3,60.097056716050375,
,,,,,,,,,,,,,,,,5,8.2,9.1,10,10.9,11.8,0.9,0.65,0.25,3.85,10,initial,36.05,296,328,361,393,425,9,9,9,9,9,,,,,3,0,3,0,0,36,36,50,,,,,num_4,1.440342599991709,num_4,0.1,0.8,0.2,0.8,7.37299,29.49197,return,7.061527400044724,,,,,,,2,23,female,left_right_width,2023_Aug_14_1018,exp1,2021.2.3,60.097056716050375,
,,,,,,,,,,,,,,,,5,8.95,9.475,10,10.525,11.05,0.525,0.125,0.4,2.5,10,match,36.05,323,342,361,379,398,9,9,9,9,9,,,,,3,0,3,0,0,37,37,29,,,,,num_4,1.0957269999198616,num_4,0.2,0.6,0.25,0.4,9.21624,14.74598,return,3.5327880000695586,,,,,,,2,23,female,left_right_width,2023_Aug_14_1018,exp1,2021.2.3,60.097056716050375,
,,,,,,,,,,,,,,,,3,8.6,10,11.4,0,0,1.4,1.2999999999999998,0.1,2.9,10,match,36.05,310,361,411,0,0,9,9,9,0,0,,,,,3,0,3,0,0,38,38,43,,,,,num_2,0.9985398000571877,num_2,0.35,1.6,0.15000000000000002,1.8,5.52974,66.35693,return,4.461250300053507,,,,,,,2,23,female,left_right_width,2023_Aug_14_1018,exp1,2021.2.3,60.097056716050375,
,,,,,,,,,,,,,,,,4,9.3,9.766666666666667,10.233333333333333,10.7,0,0.4666666666666667,0.21666666666666665,0.25,1.65,10,match,36.05,335,352,369,386,0,9,9,9,9,0,,,,,3,0,3,0,0,39,39,9,,,,,num_3,1.1856305999681354,num_3,0.25,1.2,0.3,0.45,11.05949,16.58923,return,5.215650800149888,,,,,,,2,23,female,left_right_width,2023_Aug_14_1018,exp1,2021.2.3,60.097056716050375,
,,,,,,,,,,,,,,,,5,8.6,9.3,10,10.7,11.4,0.7,0.44999999999999996,0.25,3.05,10,initial,36.05,310,335,361,386,411,9,9,9,9,9,,,,,3,0,3,0,0,40,40,44,,,,,num_5,0.9611128999385983,num_5,0.15,0.6,0.15,0.6,5.52974,22.11898,return,2.393606700003147,,,,,,,2,23,female,left_right_width,2023_Aug_14_1018,exp1,2021.2.3,60.097056716050375,
,,,,,,,,,,,,,,,,5,9,9.5,10,10.5,11,0.5,0.4,0.1,2.1,10,initial,36.05,324,342,361,379,397,9,9,9,9,9,,,,,3,0,3,0,0,41,41,36,,,,,num_4,1.3783889000769705,num_4,0.3,0.8,0.10000000000000002,0.6,3.6865,22.11898,return,3.320497800130397,,,,,,,2,23,female,left_right_width,2023_Aug_14_1018,exp1,2021.2.3,60.097056716050375,
,,,,,,,,,,,,,,,,4,9.1,9.7,10.3,10.9,0,0.6,0.5,0.1,1.9,10,match,36.05,328,350,371,393,0,9,9,9,9,0,,,,,3,0,3,0,0,42,42,13,,,,,num_4,1.0138557001482695,num_4,0.35,0.4,0.10000000000000002,0.4,3.6865,14.74598,return,5.853164399974048,,,,,,,2,23,female,left_right_width,2023_Aug_14_1018,exp1,2021.2.3,60.097056716050375,
,,,,,,,,,,,,,,,,5,8.65,9.325,10,10.675,11.35,0.6749999999999999,0.575,0.1,2.8,10,match,36.05,312,336,361,385,409,9,9,9,9,9,,,,,3,0,3,0,0,43,43,31,,,,,num_4,1.045105200028047,num_4,0.45,0.5,0.10000000000000007,0.5,3.6865,18.43248,return,5.033883599797264,,,,,,,2,23,female,left_right_width,2023_Aug_14_1018,exp1,2021.2.3,60.097056716050375,
,,,,,,,,,,,,,,,,5,8.2,9.1,10,10.9,11.8,0.9,0.8,0.1,3.7,10,initial,36.05,296,328,361,393,425,9,9,9,9,9,,,,,3,0,3,0,0,44,44,48,,,,,num_5,0.9216398000717163,num_5,0.35,1.0,0.15000000000000002,0.95,5.52974,35.02171,return,4.387152000097558,,,,,,,2,23,female,left_right_width,2023_Aug_14_1018,exp1,2021.2.3,60.097056716050375,
,,,,,,,,,,,,,,,,5,9,9.5,10,10.5,11,0.5,0.25,0.25,2.25,10,initial,36.05,324,342,361,379,397,9,9,9,9,9,,,,,3,0,3,0,0,45,45,38,,,,,num_5,1.2971181999891996,num_5,0.1,1.1,0.15000000000000002,0.45,5.52974,16.58923,return,5.709274299908429,,,,,,,2,23,female,left_right_width,2023_Aug_14_1018,exp1,2021.2.3,60.097056716050375,
,,,,,,,,,,,,,,,,5,9.175,9.5875,10,10.4125,10.825,0.4125,0.16249999999999998,0.25,1.9,10,match,36.05,331,346,361,375,390,9,9,9,9,9,,,,,3,0,3,0,0,46,46,23,,,,,num_5,1.7862756999675184,num_5,0.25,0.7,0.15000000000000002,0.35,5.52974,12.90274,return,4.130105300107971,,,,,,,2,23,female,left_right_width,2023_Aug_14_1018,exp1,2021.2.3,60.097056716050375,
,,,,,,,,,,,,,,,,5,8.95,9.475,10,10.525,11.05,0.525,0.275,0.25,2.35,10,match,36.05,323,342,361,379,398,9,9,9,9,9,,,,,3,0,3,0,0,47,47,27,,,,,num_5,0.9311093001160771,num_5,0.3,1.1,0.2,0.45,7.37299,16.58923,return,4.812281799968332,,,,,,,2,23,female,left_right_width,2023_Aug_14_1018,exp1,2021.2.3,60.097056716050375,
,,,,,,,,,,,,,,,,4,8.95,9.65,10.35,11.05,0,0.7,0.44999999999999996,0.25,2.3499999999999996,10,initial,36.05,323,348,373,398,0,9,9,9,9,0,,,,,3,0,3,0,0,48,48,26,,,,,num_4,1.2348531000316143,num_4,0.4,0.6,0.30000000000000004,0.5,11.05949,18.43248,return,3.5369053999893367,,,,,,,2,23,female,left_right_width,2023_Aug_14_1018,exp1,2021.2.3,60.097056716050375,
,,,,,,,,,,,,,,,,4,8.95,9.65,10.35,11.05,0,0.7,0.6,0.1,2.1999999999999997,10,initial,36.05,323,348,373,398,0,9,9,9,9,0,,,,,3,0,3,0,0,49,49,24,,,,,num_4,0.9540758000221103,num_4,0.25,0.9,0.10000000000000002,0.5,3.6865,18.43248,return,3.9389784999657422,,,,,,,2,23,female,left_right_width,2023_Aug_14_1018,exp1,2021.2.3,60.097056716050375,
,,,,,,,,,,,,,,,,3,9,10,11,0,0,1,0.9,0.1,2.1,10,match,36.05,324,361,397,0,0,9,9,9,0,0,,,,,3,0,3,0,0,50,50,37,,,,,num_2,0.8116001000162214,num_2,0.25,1.6,0.15000000000000002,1.0,5.52974,36.86496,return,3.1780336999800056,,,,,,,2,23,female,left_right_width,2023_Aug_14_1018,exp1,2021.2.3,60.097056716050375,
,,,,,,,,,,,,,,,,3,8.525,10,11.475,0,0,1.475,1.225,0.25,3.2,10,match,36.05,307,361,414,0,0,9,9,9,0,0,,,,,3,0,3,0,0,51,51,47,,,,,num_2,1.1872872000094503,num_2,0.35,1.6,0.25,1.5,9.21624,55.29744,return,5.154984900029376,,,,,,,2,23,female,left_right_width,2023_Aug_14_1018,exp1,2021.2.3,60.097056716050375,
,,,,,,,,,,,,,,,,3,9,10,11,0,0,1,0.75,0.25,2.25,10,match,36.05,324,361,397,0,0,9,9,9,0,0,,,,,3,0,3,0,0,52,52,39,,,,,num_2,1.837661099852994,num_2,0.35,1.6,0.25,1.2,9.21624,44.23795,return,3.506250699982047,,,,,,,2,23,female,left_right_width,2023_Aug_14_1018,exp1,2021.2.3,60.097056716050375,
,,,,,,,,,,,,,,,,3,8.6,10,11.4,0,0,1.4,1.15,0.25,3.05,10,match,36.05,310,361,411,0,0,9,9,9,0,0,,,,,3,0,3,0,0,53,53,45,,,,,num_2,1.0150578999891877,num_2,0.4,1.6,0.30000000000000004,1.6,11.05949,58.98394,return,2.6369455999229103,,,,,,,2,23,female,left_right_width,2023_Aug_14_1018,exp1,2021.2.3,60.097056716050375,
,,,,,,,,,,,,,,,,,,,,,,,,,,,,,,,,,,,,,,,,,,,3,0,3,0,,,,,,,,,,,,,,,,,,,,,,2020.4240619000047,None,2020.4240619000047,None,2,23,female,left_right_width,2023_Aug_14_1018,exp1,2021.2.3,60.097056716050375,
,,,,,,,,,,,,,,,,4,9.3,9.766666666666667,10.233333333333333,10.7,0,0.4666666666666667,0.06666666666666665,0.4,1.8,10,match,36.05,335,352,369,386,0,9,9,9,9,0,,,,,4,0,4,0,0,0,0,11,,,,,num_2,1.7237672000192106,num_2,0.25,1.6,0.25,0.4,9.21624,14.74598,return,6.053841299843043,,,,,,,2,23,female,left_right_width,2023_Aug_14_1018,exp1,2021.2.3,60.097056716050375,
,,,,,,,,,,,,,,,,3,9.5,10,10.5,0,0,0.5,0.4,0.1,1.1,10,initial,36.05,342,361,379,0,0,9,9,9,0,0,,,,,4,0,4,0,0,1,1,0,,,,,num_2,0.6130871998611838,num_2,0.2,1.6,0.10000000000000002,0.5,3.6865,18.43248,return,5.275037700077519,,,,,,,2,23,female,left_right_width,2023_Aug_14_1018,exp1,2021.2.3,60.097056716050375,
,,,,,,,,,,,,,,,,3,9.1,10,10.9,0,0,0.9,0.8,0.1,1.9000000000000001,10,initial,36.05,328,361,393,0,0,9,9,9,0,0,,,,,4,0,4,0,0,2,2,12,,,,,num_3,1.1049979000817984,num_3,0.15,0.8,0.09999999999999999,0.45,3.6865,16.58923,return,3.840038000140339,,,,,,,2,23,female,left_right_width,2023_Aug_14_1018,exp1,2021.2.3,60.097056716050375,
,,,,,,,,,,,,,,,,4,8.95,9.65,10.35,11.05,0,0.7,0.29999999999999993,0.4,2.5,10,initial,36.05,323,348,373,398,0,9,9,9,9,0,,,,,4,0,4,0,0,3,3,28,,,,,num_3,0.6722422000020742,num_3,0.25,0.7,0.3,0.55,11.05949,20.27573,return,3.22424460016191,,,,,,,2,23,female,left_right_width,2023_Aug_14_1018,exp1,2021.2.3,60.097056716050375,
,,,,,,,,,,,,,,,,5,9,9.5,10,10.5,11,0.5,0.09999999999999998,0.4,2.4,10,initial,36.05,324,342,361,379,397,9,9,9,9,9,,,,,4,0,4,0,0,4,4,40,,,,,num_5,1.1564046000130475,num_5,0.25,1.1,0.3,0.4,11.05949,14.74598,return,4.786432499997318,,,,,,,2,23,female,left_right_width,2023_Aug_14_1018,exp1,2021.2.3,60.097056716050375,
,,,,,,,,,,,,,,,,4,9.25,9.75,10.25,10.75,0,0.5,0.09999999999999998,0.4,1.9,10,initial,36.05,333,351,370,388,0,9,9,9,9,0,,,,,4,0,4,0,0,5,5,22,,,,,num_3,1.3681352999992669,num_3,0.45,0.6,0.4,0.5,14.74598,18.43248,return,2.7973207999020815,,,,,,,2,23,female,left_right_width,2023_Aug_14_1018,exp1,2021.2.3,60.097056716050375,
,,,,,,,,,,,,,,,,5,8.2,9.1,10,10.9,11.8,0.9,0.8,0.1,3.7,10,initial,36.05,296,328,361,393,425,9,9,9,9,9,,,,,4,0,4,0,0,6,6,48,,,,,num_5,1.1323084000032395,num_5,0.4,0.6,0.10000000000000007,0.7,3.6865,25.80547,return,4.50980280013755,,,,,,,2,23,female,left_right_width,2023_Aug_14_1018,exp1,2021.2.3,60.097056716050375,
,,,,,,,,,,,,,,,,5,8.65,9.325,10,10.675,11.35,0.675,0.42500000000000004,0.25,2.95,10,match,36.05,312,336,361,385,409,9,9,9,9,9,,,,,4,0,4,0,0,7,7,33,,,,,num_5,1.1642892002128065,num_5,0.45,0.8,0.25000000000000006,0.65,9.21624,23.96222,return,4.2700138001237065,,,,,,,2,23,female,left_right_width,2023_Aug_14_1018,exp1,2021.2.3,60.097056716050375,
,,,,,,,,,,,,,,,,5,9.25,9.625,10,10.375,10.75,0.375,0.125,0.25,1.75,10,match,36.05,333,347,361,374,388,9,9,9,9,9,,,,,4,0,4,0,0,8,8,21,,,,,num_5,1.482968700118363,num_5,0.1,1.3,0.2,0.5,7.37299,18.43248,return,5.679517000215128,,,,,,,2,23,female,left_right_width,2023_Aug_14_1018,exp1,2021.2.3,60.097056716050375,
,,,,,,,,,,,,,,,,3,9,10,11,0,0,1,0.75,0.25,2.25,10,match,36.05,324,361,397,0,0,9,9,9,0,0,,,,,4,0,4,0,0,9,9,39,,,,,num_2,1.038389999885112,num_2,0.15,1.6,0.25,1.2,9.21624,44.23795,return,3.0430031998548657,,,,,,,2,23,female,left_right_width,2023_Aug_14_1018,exp1,2021.2.3,60.097056716050375,
,,,,,,,,,,,,,,,,5,8.95,9.475,10,10.525,11.05,0.525,0.275,0.25,2.35,10,match,36.05,323,342,361,379,398,9,9,9,9,9,,,,,4,0,4,0,0,10,10,27,,,,,num_4,0.9604746999684721,num_4,0.45,0.5,0.20000000000000007,0.6,7.37299,22.11898,return,4.008580799913034,,,,,,,2,23,female,left_right_width,2023_Aug_14_1018,exp1,2021.2.3,60.097056716050375,
,,,,,,,,,,,,,,,,4,8.95,9.65,10.35,11.05,0,0.7,0.44999999999999996,0.25,2.3499999999999996,10,initial,36.05,323,348,373,398,0,9,9,9,9,0,,,,,4,0,4,0,0,11,11,26,,,,,num_4,1.6629065999295563,num_4,0.45,0.9,0.25000000000000006,0.7,9.21624,25.80547,return,3.3868619001004845,,,,,,,2,23,female,left_right_width,2023_Aug_14_1018,exp1,2021.2.3,60.097056716050375,
,,,,,,,,,,,,,,,,3,9.5,10,10.5,0,0,0.5,0.09999999999999998,0.4,1.4000000000000001,10,initial,36.05,342,361,379,0,0,9,9,9,0,0,,,,,4,0,4,0,0,12,12,4,,,,,num_2,1.1010267999954522,num_2,0.1,1.6,0.25,0.4,9.21624,14.74598,return,8.686167200095952,,,,,,,2,23,female,left_right_width,2023_Aug_14_1018,exp1,2021.2.3,60.097056716050375,
,,,,,,,,,,,,,,,,4,9.25,9.75,10.25,10.75,0,0.5,0.25,0.25,1.75,10,initial,36.05,333,351,370,388,0,9,9,9,9,0,,,,,4,0,4,0,0,13,13,20,,,,,num_3,1.611839400138706,num_3,0.25,1.2,0.2,0.45,7.37299,16.58923,return,5.306129600154236,,,,,,,2,23,female,left_right_width,2023_Aug_14_1018,exp1,2021.2.3,60.097056716050375,
,,,,,,,,,,,,,,,,4,8.65,9.55,10.45,11.35,0,0.9,0.8,0.1,2.8000000000000003,10,initial,36.05,312,344,377,409,0,9,9,9,9,0,,,,,4,0,4,0,0,14,14,30,,,,,num_3,2.5244093001820147,num_3,0.25,0.6,0.10000000000000002,0.8,3.6865,29.49197,return,4.053981700213626,,,,,,,2,23,female,left_right_width,2023_Aug_14_1018,exp1,2021.2.3,60.097056716050375,
,,,,,,,,,,,,,,,,3,9.1,10,10.9,0,0,0.9,0.65,0.25,2.05,10,initial,36.05,328,361,393,0,0,9,9,9,0,0,,,,,4,0,4,0,0,15,15,14,,,,,num_3,1.4632539998274297,num_3,0.25,1,0.10000000000000002,0.85,3.6865,31.33522,return,4.0104439000133425,,,,,,,2,23,female,left_right_width,2023_Aug_14_1018,exp1,2021.2.3,60.097056716050375,
,,,,,,,,,,,,,,,,4,9.25,9.75,10.25,10.75,0,0.5,0.4,0.1,1.6,10,initial,36.05,333,351,370,388,0,9,9,9,9,0,,,,,4,0,4,0,0,16,16,18,,,,,num_3,1.1374983999412507,num_3,0.2,0.8,0.10000000000000002,0.45,3.6865,16.58923,return,4.80362300015986,,,,,,,2,23,female,left_right_width,2023_Aug_14_1018,exp1,2021.2.3,60.097056716050375,
,,,,,,,,,,,,,,,,5,8.6,9.3,10,10.7,11.4,0.7,0.29999999999999993,0.4,3.1999999999999997,10,initial,36.05,310,335,361,386,411,9,9,9,9,9,,,,,4,0,4,0,0,17,17,46,,,,,num_5,1.1515177001710981,num_5,0.2,1.0,0.2,0.45,7.37299,16.58923,return,5.329871499910951,,,,,,,2,23,female,left_right_width,2023_Aug_14_1018,exp1,2021.2.3,60.097056716050375,
,,,,,,,,,,,,,,,,4,9.1,9.7,10.3,10.9,0,0.5999999999999999,0.3499999999999999,0.25,2.05,10,match,36.05,328,350,371,393,0,9,9,9,9,0,,,,,4,0,4,0,0,18,18,15,,,,,num_4,1.6242919000796974,num_4,0.3,0.7,0.25,0.5,9.21624,18.43248,return,3.396560200024396,,,,,,,2,23,female,left_right_width,2023_Aug_14_1018,exp1,2021.2.3,60.097056716050375,
,,,,,,,,,,,,,,,,3,8.2,10,11.8,0,0,1.8000000000000003,1.7000000000000002,0.1,3.7,10,match,36.05,296,361,425,0,0,9,9,9,0,0,,,,,4,0,4,0,0,19,19,49,,,,,num_3,1.179125800030306,num_3,0.1,0.5,0.05000000000000002,1.0,1.84325,36.86496,return,6.04171449993737,,,,,,,2,23,female,left_right_width,2023_Aug_14_1018,exp1,2021.2.3,60.097056716050375,
,,,,,,,,,,,,,,,,5,9.25,9.625,10,10.375,10.75,0.375,0.275,0.1,1.6,10,match,36.05,333,347,361,374,388,9,9,9,9,9,,,,,4,0,4,0,0,20,20,19,,,,,num_4,1.3335786999668926,num_4,0.25,1.2,0.10000000000000002,0.4,3.6865,14.74598,return,4.640512099955231,,,,,,,2,23,female,left_right_width,2023_Aug_14_1018,exp1,2021.2.3,60.097056716050375,
,,,,,,,,,,,,,,,,3,8.2,10,11.8,0,0,1.7999999999999998,1.4,0.4,4,10,match,36.05,296,361,425,0,0,9,9,9,0,0,,,,,4,0,4,0,0,21,21,53,,,,,num_3,1.4784657000564039,num_3,0.2,1,0.35,1.25,12.90274,46.0812,return,5.78539859992452,,,,,,,2,23,female,left_right_width,2023_Aug_14_1018,exp1,2021.2.3,60.097056716050375,
,,,,,,,,,,,,,,,,3,9.3,10,10.7,0,0,0.7,0.29999999999999993,0.4,1.8,10,initial,36.05,335,361,386,0,0,9,9,9,0,0,,,,,4,0,4,0,0,22,22,10,,,,,num_2,1.7215734999626875,num_2,0.25,1.6,0.3,0.5,11.05949,18.43248,return,4.067944700131193,,,,,,,2,23,female,left_right_width,2023_Aug_14_1018,exp1,2021.2.3,60.097056716050375,
,,,,,,,,,,,,,,,,5,8.95,9.475,10,10.525,11.05,0.525,0.125,0.4,2.5,10,match,36.05,323,342,361,379,398,9,9,9,9,9,,,,,4,0,4,0,0,23,23,29,,,,,num_4,1.29383229999803,num_4,0.2,1.2,0.35,0.5,12.90274,18.43248,return,5.417523100040853,,,,,,,2,23,female,left_right_width,2023_Aug_14_1018,exp1,2021.2.3,60.097056716050375,
,,,,,,,,,,,,,,,,3,9.5,10,10.5,0,0,0.5,0.25,0.25,1.25,10,initial,36.05,342,361,379,0,0,9,9,9,0,0,,,,,4,0,4,0,0,24,24,2,,,,,num_2,1.0633459000382572,num_2,0.4,1.6,0.4,0.6,14.74598,22.11898,return,4.715841599972919,,,,,,,2,23,female,left_right_width,2023_Aug_14_1018,exp1,2021.2.3,60.097056716050375,
,,,,,,,,,,,,,,,,4,9.1,9.7,10.3,10.9,0,0.6,0.5,0.1,1.9,10,match,36.05,328,350,371,393,0,9,9,9,9,0,,,,,4,0,4,0,0,25,25,13,,,,,num_3,1.1857195999473333,num_3,0.4,1.1,0.15000000000000008,0.55,5.52974,20.27573,return,6.702961199916899,,,,,,,2,23,female,left_right_width,2023_Aug_14_1018,exp1,2021.2.3,60.097056716050375,
,,,,,,,,,,,,,,,,5,8.2,9.1,10,10.9,11.8,0.9,0.5,0.4,4,10,initial,36.05,296,328,361,393,425,9,9,9,9,9,,,,,4,0,4,0,0,26,26,52,,,,,num_5,0.9258189001120627,num_5,0.35,0.6,0.25,0.65,9.21624,23.96222,return,3.8449063000734895,,,,,,,2,23,female,left_right_width,2023_Aug_14_1018,exp1,2021.2.3,60.097056716050375,
,,,,,,,,,,,,,,,,4,8.65,9.55,10.45,11.35,0,0.9,0.5,0.4,3.1,10,initial,36.05,312,344,377,409,0,9,9,9,9,0,,,,,4,0,4,0,0,27,27,34,,,,,num_4,1.0604180998634547,num_4,0.2,0.5,0.3,0.6,11.05949,22.11898,return,5.849251700099558,,,,,,,2,23,female,left_right_width,2023_Aug_14_1018,exp1,2021.2.3,60.097056716050375,
,,,,,,,,,,,,,,,,3,9.1,10,10.9,0,0,0.9,0.5,0.4,2.2,10,initial,36.05,328,361,393,0,0,9,9,9,0,0,,,,,4,0,4,0,0,28,28,16,,,,,num_3,1.0835800000932068,num_3,0.15,0.5,0.3,0.6,11.05949,22.11898,return,3.3133960000704974,,,,,,,2,23,female,left_right_width,2023_Aug_14_1018,exp1,2021.2.3,60.097056716050375,
,,,,,,,,,,,,,,,,5,8.6,9.3,10,10.7,11.4,0.7,0.6,0.1,2.9,10,initial,36.05,310,335,361,386,411,9,9,9,9,9,,,,,4,0,4,0,0,29,29,42,,,,,num_5,1.891651300014928,num_5,0.4,0.9,0.10000000000000007,0.6,3.6865,22.11898,return,4.359711499884725,,,,,,,2,23,female,left_right_width,2023_Aug_14_1018,exp1,2021.2.3,60.097056716050375,
,,,,,,,,,,,,,,,,5,8.65,9.325,10,10.675,11.35,0.675,0.275,0.4,3.1,10,match,36.05,312,336,361,385,409,9,9,9,9,9,,,,,4,0,4,0,0,30,30,35,,,,,num_4,1.1890288998838514,num_4,0.3,0.7,0.35,0.6,12.90274,22.11898,return,2.290812199935317,,,,,,,2,23,female,left_right_width,2023_Aug_14_1018,exp1,2021.2.3,60.097056716050375,
,,,,,,,,,,,,,,,,3,8.525,10,11.475,0,0,1.475,1.225,0.25,3.2,10,match,36.05,307,361,414,0,0,9,9,9,0,0,,,,,4,0,4,0,0,31,31,47,,,,,num_2,1.0650156000629067,num_2,0.25,1.6,0.2,1.8,7.37299,66.35693,return,4.539109200006351,,,,,,,2,23,female,left_right_width,2023_Aug_14_1018,exp1,2021.2.3,60.097056716050375,
,,,,,,,,,,,,,,,,3,8.6,10,11.4,0,0,1.4,1.2999999999999998,0.1,2.9,10,match,36.05,310,361,411,0,0,9,9,9,0,0,,,,,4,0,4,0,0,32,32,43,,,,,num_2,1.280514500103891,num_2,0.15,1.6,0.09999999999999999,2.1,3.6865,77.41642,return,5.1966546000912786,,,,,,,2,23,female,left_right_width,2023_Aug_14_1018,exp1,2021.2.3,60.097056716050375,
,,,,,,,,,,,,,,,,4,9.3,9.766666666666667,10.233333333333333,10.7,0,0.4666666666666667,0.3666666666666667,0.1,1.5,10,match,36.05,335,352,369,386,0,9,9,9,9,0,,,,,4,0,4,0,0,33,33,7,,,,,num_3,1.108926699962467,num_3,0.15,1.2,0.09999999999999999,0.6,3.6865,22.11898,return,4.886418600101024,,,,,,,2,23,female,left_right_width,2023_Aug_14_1018,exp1,2021.2.3,60.097056716050375,
,,,,,,,,,,,,,,,,3,9.3,10,10.7,0,0,0.7,0.6,0.1,1.5,10,initial,36.05,335,361,386,0,0,9,9,9,0,0,,,,,4,0,4,0,0,34,34,6,,,,,num_2,1.0788253000937402,num_2,0.2,1.6,0.10000000000000002,0.5,3.6865,18.43248,return,4.842544399900362,,,,,,,2,23,female,left_right_width,2023_Aug_14_1018,exp1,2021.2.3,60.097056716050375,
,,,,,,,,,,,,,,,,4,9.5,9.833333333333334,10.166666666666666,10.5,0,0.33333333333333337,0.23333333333333336,0.1,1.1,10,match,36.05,342,354,367,379,0,9,9,9,9,0,,,,,4,0,4,0,0,35,35,1,,,,,num_3,0.91385000012815,num_3,0.45,0.6,0.05000000000000007,0.3,1.84325,11.05949,return,4.845221200026572,,,,,,,2,23,female,left_right_width,2023_Aug_14_1018,exp1,2021.2.3,60.097056716050375,
,,,,,,,,,,,,,,,,3,9,10,11,0,0,0.9999999999999999,0.5999999999999999,0.4,2.4,10,match,36.05,324,361,397,0,0,9,9,9,0,0,,,,,4,0,4,0,0,36,36,41,,,,,num_3,1.875238100066781,num_3,0.35,1.2,0.35,0.85,12.90274,31.33522,return,3.718399199889973,,,,,,,2,23,female,left_right_width,2023_Aug_14_1018,exp1,2021.2.3,60.097056716050375,
,,,,,,,,,,,,,,,,5,8.65,9.325,10,10.675,11.35,0.6749999999999999,0.575,0.1,2.8,10,match,36.05,312,336,361,385,409,9,9,9,9,9,,,,,4,0,4,0,0,37,37,31,,,,,num_5,0.9271382000297308,num_5,0.35,1.2,0.10000000000000002,0.75,3.6865,27.64872,return,5.704929300118238,,,,,,,2,23,female,left_right_width,2023_Aug_14_1018,exp1,2021.2.3,60.097056716050375,
,,,,,,,,,,,,,,,,5,8.6,9.3,10,10.7,11.4,0.7,0.44999999999999996,0.25,3.05,10,initial,36.05,310,335,361,386,411,9,9,9,9,9,,,,,4,0,4,0,0,38,38,44,,,,,num_4,1.349043200025335,num_4,0.2,0.5,0.25,0.7,9.21624,25.80547,return,5.836226500105113,,,,,,,2,23,female,left_right_width,2023_Aug_14_1018,exp1,2021.2.3,60.097056716050375,
,,,,,,,,,,,,,,,,4,9.3,9.766666666666667,10.233333333333333,10.7,0,0.4666666666666667,0.21666666666666665,0.25,1.65,10,match,36.05,335,352,369,386,0,9,9,9,9,0,,,,,4,0,4,0,0,39,39,9,,,,,num_4,0.8655493999831378,num_4,0.2,0.5,0.2,0.5,7.37299,18.43248,return,2.1404887998942286,,,,,,,2,23,female,left_right_width,2023_Aug_14_1018,exp1,2021.2.3,60.097056716050375,
,,,,,,,,,,,,,,,,5,8.95,9.475,10,10.525,11.05,0.525,0.42500000000000004,0.1,2.2,10,match,36.05,323,342,361,379,398,9,9,9,9,9,,,,,4,0,4,0,0,40,40,25,,,,,num_4,1.049192599952221,num_4,0.2,1.0,0.10000000000000002,0.7,3.6865,25.80547,return,3.0868720000144094,,,,,,,2,23,female,left_right_width,2023_Aug_14_1018,exp1,2021.2.3,60.097056716050375,
,,,,,,,,,,,,,,,,5,8.2,9.1,10,10.9,11.8,0.9,0.65,0.25,3.85,10,initial,36.05,296,328,361,393,425,9,9,9,9,9,,,,,4,0,4,0,0,41,41,50,,,,,num_5,0.9877522001042962,num_5,0.25,0.7,0.15000000000000002,0.75,5.52974,27.64872,return,3.586679100058973,,,,,,,2,23,female,left_right_width,2023_Aug_14_1018,exp1,2021.2.3,60.097056716050375,
,,,,,,,,,,,,,,,,3,8.2,10,11.8,0,0,1.8,1.55,0.25,3.85,10,match,36.05,296,361,425,0,0,9,9,9,0,0,,,,,4,0,4,0,0,42,42,51,,,,,num_3,0.9284555001650006,num_3,0.1,0.7,0.2,1.1,7.37299,40.55146,return,4.5064075998961926,,,,,,,2,23,female,left_right_width,2023_Aug_14_1018,exp1,2021.2.3,60.097056716050375,
,,,,,,,,,,,,,,,,5,9,9.5,10,10.5,11,0.5,0.25,0.25,2.25,10,initial,36.05,324,342,361,379,397,9,9,9,9,9,,,,,4,0,4,0,0,43,43,38,,,,,num_5,1.38846500008367,num_5,0.2,0.3,0.15000000000000002,0.35,5.52974,12.90274,return,4.003924399847165,,,,,,,2,23,female,left_right_width,2023_Aug_14_1018,exp1,2021.2.3,60.097056716050375,
,,,,,,,,,,,,,,,,4,9.425,9.808333333333334,10.191666666666666,10.575,0,0.3833333333333333,0.1333333333333333,0.25,1.4,10,match,36.05,340,354,367,381,0,9,9,9,9,0,,,,,4,0,4,0,0,44,44,5,,,,,num_3,1.020348799880594,num_3,0.1,0.7,0.25,0.45,9.21624,16.58923,return,4.720209100050852,,,,,,,2,23,female,left_right_width,2023_Aug_14_1018,exp1,2021.2.3,60.097056716050375,
,,,,,,,,,,,,,,,,4,8.65,9.55,10.45,11.35,0,0.9,0.65,0.25,2.95,10,initial,36.05,312,344,377,409,0,9,9,9,9,0,,,,,4,0,4,0,0,45,45,32,,,,,num_5,1.2117961999028921,num_5,0.25,0.3,0.2,0.5,7.37299,18.43248,return,3.754012200050056,,,,,,,2,23,female,left_right_width,2023_Aug_14_1018,exp1,2021.2.3,60.097056716050375,
,,,,,,,,,,,,,,,,3,8.6,10,11.4,0,0,1.4,1.15,0.25,3.05,10,match,36.05,310,361,411,0,0,9,9,9,0,0,,,,,4,0,4,0,0,46,46,45,,,,,num_3,0.9390978999435902,num_3,0.4,0.5,0.20000000000000007,0.85,7.37299,31.33522,return,4.6277022999711335,,,,,,,2,23,female,left_right_width,2023_Aug_14_1018,exp1,2021.2.3,60.097056716050375,
,,,,,,,,,,,,,,,,3,9,10,11,0,0,1,0.9,0.1,2.1,10,match,36.05,324,361,397,0,0,9,9,9,0,0,,,,,4,0,4,0,0,47,47,37,,,,,num_2,0.9779076999984682,num_2,0.45,1.6,0.15000000000000008,1.5,5.52974,55.29744,return,4.663537699962035,,,,,,,2,23,female,left_right_width,2023_Aug_14_1018,exp1,2021.2.3,60.097056716050375,
,,,,,,,,,,,,,,,,4,9.1,9.7,10.3,10.9,0,0.6000000000000001,0.20000000000000004,0.4,2.2,10,match,36.05,328,350,371,393,0,9,9,9,9,0,,,,,4,0,4,0,0,48,48,17,,,,,num_3,1.5438337998930365,num_3,0.2,0.8,0.3,0.4,11.05949,14.74598,return,5.463234999915585,,,,,,,2,23,female,left_right_width,2023_Aug_14_1018,exp1,2021.2.3,60.097056716050375,
,,,,,,,,,,,,,,,,5,9,9.5,10,10.5,11,0.5,0.4,0.1,2.1,10,initial,36.05,324,342,361,379,397,9,9,9,9,9,,,,,4,0,4,0,0,49,49,36,,,,,num_4,1.6271383999846876,num_4,0.3,0.9,0.10000000000000002,0.4,3.6865,14.74598,return,5.9113767999224365,,,,,,,2,23,female,left_right_width,2023_Aug_14_1018,exp1,2021.2.3,60.097056716050375,
,,,,,,,,,,,,,,,,4,8.95,9.65,10.35,11.05,0,0.7,0.6,0.1,2.1999999999999997,10,initial,36.05,323,348,373,398,0,9,9,9,9,0,,,,,4,0,4,0,0,50,50,24,,,,,num_4,1.0970656001009047,num_4,0.15,1.0,0.04999999999999999,0.8,1.84325,29.49197,return,2.9892618998419493,,,,,,,2,23,female,left_right_width,2023_Aug_14_1018,exp1,2021.2.3,60.097056716050375,
,,,,,,,,,,,,,,,,3,9.3,10,10.7,0,0,0.7,0.44999999999999996,0.25,1.65,10,initial,36.05,335,361,386,0,0,9,9,9,0,0,,,,,4,0,4,0,0,51,51,8,,,,,num_3,2.3438055999577045,num_3,0.35,1.2,0.25,0.7,9.21624,25.80547,return,5.09760529990308,,,,,,,2,23,female,left_right_width,2023_Aug_14_1018,exp1,2021.2.3,60.097056716050375,
,,,,,,,,,,,,,,,,4,9.5,9.833333333333334,10.166666666666666,10.5,0,0.3333333333333333,0.08333333333333333,0.25,1.25,10,match,36.05,342,354,367,379,0,9,9,9,9,0,,,,,4,0,4,0,0,52,52,3,,,,,num_3,1.0235594001132995,num_3,0.25,0.4,0.3,0.4,11.05949,14.74598,return,4.036504399962723,,,,,,,2,23,female,left_right_width,2023_Aug_14_1018,exp1,2021.2.3,60.097056716050375,
,,,,,,,,,,,,,,,,5,9.175,9.5875,10,10.4125,10.825,0.4125,0.16249999999999998,0.25,1.9,10,match,36.05,331,346,361,375,390,9,9,9,9,9,,,,,4,0,4,0,0,53,53,23,,,,,num_5,1.2112129998859018,num_5,0.1,0.3,0.2,0.3,7.37299,11.05949,return,3.2891317000612617,,,,,,,2,23,female,left_right_width,2023_Aug_14_1018,exp1,2021.2.3,60.097056716050375,
,,,,,,,,,,,,,,,,,,,,,,,,,,,,,,,,,,,,,,,,,,,4,0,4,0,,,,,,,,,,,,,,,,,,,,,,2459.990552400006,None,2459.990552400006,None,2,23,female,left_right_width,2023_Aug_14_1018,exp1,2021.2.3,60.097056716050375,
,,,,,,,,,,,,,,,,5,8.95,9.475,10,10.525,11.05,0.525,0.42500000000000004,0.1,2.2,10,match,36.05,323,342,361,379,398,9,9,9,9,9,,,,,5,0,5,0,0,0,0,25,,,,,num_4,34.07921180012636,num_4,0.25,1.1,0.2,0.6,7.37299,22.11898,return,6.090061800088733,,,,,,,2,23,female,left_right_width,2023_Aug_14_1018,exp1,2021.2.3,60.097056716050375,
,,,,,,,,,,,,,,,,3,9.5,10,10.5,0,0,0.5,0.09999999999999998,0.4,1.4000000000000001,10,initial,36.05,342,361,379,0,0,9,9,9,0,0,,,,,5,0,5,0,0,1,1,4,,,,,num_2,3.2159892998170108,num_2,0.3,1.6,0.3,0.4,11.05949,14.74598,return,5.9500651999842376,,,,,,,2,23,female,left_right_width,2023_Aug_14_1018,exp1,2021.2.3,60.097056716050375,
,,,,,,,,,,,,,,,,3,9,10,11,0,0,1,0.9,0.1,2.1,10,match,36.05,324,361,397,0,0,9,9,9,0,0,,,,,5,0,5,0,0,2,2,37,,,,,num_2,1.3830959999468178,num_2,0.4,1.6,0.20000000000000007,0.8,7.37299,29.49197,return,5.038459100062028,,,,,,,2,23,female,left_right_width,2023_Aug_14_1018,exp1,2021.2.3,60.097056716050375,
,,,,,,,,,,,,,,,,3,9.3,10,10.7,0,0,0.7,0.29999999999999993,0.4,1.8,10,initial,36.05,335,361,386,0,0,9,9,9,0,0,,,,,5,0,5,0,0,3,3,10,,,,,num_2,1.233492000028491,num_2,0.2,1.6,0.25,0.6,9.21624,22.11898,return,4.541887199971825,,,,,,,2,23,female,left_right_width,2023_Aug_14_1018,exp1,2021.2.3,60.097056716050375,
,,,,,,,,,,,,,,,,4,9.1,9.7,10.3,10.9,0,0.6,0.5,0.1,1.9,10,match,36.05,328,350,371,393,0,9,9,9,9,0,,,,,5,0,5,0,0,4,4,13,,,,,num_3,0.9723897001240402,num_3,0.15,0.8,0.09999999999999999,0.55,3.6865,20.27573,return,4.051575300050899,,,,,,,2,23,female,left_right_width,2023_Aug_14_1018,exp1,2021.2.3,60.097056716050375,
,,,,,,,,,,,,,,,,5,9.175,9.5875,10,10.4125,10.825,0.4125,0.16249999999999998,0.25,1.9,10,match,36.05,331,346,361,375,390,9,9,9,9,9,,,,,5,0,5,0,0,5,5,23,,,,,num_4,0.9209748001303524,num_4,0.25,1.1,0.2,0.5,7.37299,18.43248,return,3.40965580008924,,,,,,,2,23,female,left_right_width,2023_Aug_14_1018,exp1,2021.2.3,60.097056716050375,
,,,,,,,,,,,,,,,,3,9.1,10,10.9,0,0,0.9,0.65,0.25,2.05,10,initial,36.05,328,361,393,0,0,9,9,9,0,0,,,,,5,0,5,0,0,6,6,14,,,,,num_2,1.5230783000588417,num_2,0.45,1.6,0.25000000000000006,0.9,9.21624,33.17846,return,4.193581099854782,,,,,,,2,23,female,left_right_width,2023_Aug_14_1018,exp1,2021.2.3,60.097056716050375,
,,,,,,,,,,,,,,,,5,8.2,9.1,10,10.9,11.8,0.9,0.5,0.4,4,10,initial,36.05,296,328,361,393,425,9,9,9,9,9,,,,,5,0,5,0,0,7,7,52,,,,,num_5,1.1523551000282168,num_5,0.15,1.0,0.25,0.65,9.21624,23.96222,return,3.055691699963063,,,,,,,2,23,female,left_right_width,2023_Aug_14_1018,exp1,2021.2.3,60.097056716050375,
,,,,,,,,,,,,,,,,5,9,9.5,10,10.5,11,0.5,0.25,0.25,2.25,10,initial,36.05,324,342,361,379,397,9,9,9,9,9,,,,,5,0,5,0,0,8,8,38,,,,,num_5,1.4165515000931919,num_5,0.35,1.3,0.25,0.65,9.21624,23.96222,return,4.878728300100192,,,,,,,2,23,female,left_right_width,2023_Aug_14_1018,exp1,2021.2.3,60.097056716050375,
,,,,,,,,,,,,,,,,3,8.6,10,11.4,0,0,1.4,1.2999999999999998,0.1,2.9,10,match,36.05,310,361,411,0,0,9,9,9,0,0,,,,,5,0,5,0,0,9,9,43,,,,,num_2,0.9957113999407738,num_2,0.3,1.6,0.10000000000000002,1.7,3.6865,62.67043,return,3.816958999959752,,,,,,,2,23,female,left_right_width,2023_Aug_14_1018,exp1,2021.2.3,60.097056716050375,
,,,,,,,,,,,,,,,,3,8.2,10,11.8,0,0,1.8,1.55,0.25,3.85,10,match,36.05,296,361,425,0,0,9,9,9,0,0,,,,,5,0,5,0,0,10,10,51,,,,,num_3,1.1250195000320673,num_3,0.45,0.8,0.30000000000000004,0.9,11.05949,33.17846,return,4.774554200004786,,,,,,,2,23,female,left_right_width,2023_Aug_14_1018,exp1,2021.2.3,60.097056716050375,
,,,,,,,,,,,,,,,,3,8.6,10,11.4,0,0,1.4,1.15,0.25,3.05,10,match,36.05,310,361,411,0,0,9,9,9,0,0,,,,,5,0,5,0,0,11,11,45,,,,,num_2,0.7927291998639703,num_2,0.4,1.6,0.20000000000000007,1.7,7.37299,62.67043,return,3.9254795000888407,,,,,,,2,23,female,left_right_width,2023_Aug_14_1018,exp1,2021.2.3,60.097056716050375,
,,,,,,,,,,,,,,,,3,9.5,10,10.5,0,0,0.5,0.25,0.25,1.25,10,initial,36.05,342,361,379,0,0,9,9,9,0,0,,,,,5,0,5,0,0,12,12,2,,,,,num_2,0.682952200062573,num_2,0.35,1.6,0.25,0.5,9.21624,18.43248,return,3.948539200006053,,,,,,,2,23,female,left_right_width,2023_Aug_14_1018,exp1,2021.2.3,60.097056716050375,
,,,,,,,,,,,,,,,,5,8.2,9.1,10,10.9,11.8,0.9,0.65,0.25,3.85,10,initial,36.05,296,328,361,393,425,9,9,9,9,9,,,,,5,0,5,0,0,13,13,50,,,,,num_5,0.9376452998258173,num_5,0.45,1.2,0.25000000000000006,0.9,9.21624,33.17846,return,4.16309789987281,,,,,,,2,23,female,left_right_width,2023_Aug_14_1018,exp1,2021.2.3,60.097056716050375,
,,,,,,,,,,,,,,,,3,9.3,10,10.7,0,0,0.7,0.6,0.1,1.5,10,initial,36.05,335,361,386,0,0,9,9,9,0,0,,,,,5,0,5,0,0,14,14,6,,,,,num_2,1.0328293000347912,num_2,0.4,1.6,0.10000000000000007,0.8,3.6865,29.49197,return,4.504834200022742,,,,,,,2,23,female,left_right_width,2023_Aug_14_1018,exp1,2021.2.3,60.097056716050375,
,,,,,,,,,,,,,,,,4,8.65,9.55,10.45,11.35,0,0.9,0.5,0.4,3.1,10,initial,36.05,312,344,377,409,0,9,9,9,9,0,,,,,5,0,5,0,0,15,15,34,,,,,num_4,1.021827100077644,num_4,0.1,1.2,0.3,0.9,11.05949,33.17846,return,4.5794045000802726,,,,,,,2,23,female,left_right_width,2023_Aug_14_1018,exp1,2021.2.3,60.097056716050375,
,,,,,,,,,,,,,,,,5,9.25,9.625,10,10.375,10.75,0.375,0.125,0.25,1.75,10,match,36.05,333,347,361,374,388,9,9,9,9,9,,,,,5,0,5,0,0,16,16,21,,,,,num_4,1.107106399955228,num_4,0.45,0.8,0.25000000000000006,0.4,9.21624,14.74598,return,4.104938700096682,,,,,,,2,23,female,left_right_width,2023_Aug_14_1018,exp1,2021.2.3,60.097056716050375,
,,,,,,,,,,,,,,,,4,8.65,9.55,10.45,11.35,0,0.9,0.65,0.25,2.95,10,initial,36.05,312,344,377,409,0,9,9,9,9,0,,,,,5,0,5,0,0,17,17,32,,,,,num_4,1.0764179998077452,num_4,0.1,1.1,0.2,0.8,7.37299,29.49197,return,3.750751300016418,,,,,,,2,23,female,left_right_width,2023_Aug_14_1018,exp1,2021.2.3,60.097056716050375,
,,,,,,,,,,,,,,,,3,8.2,10,11.8,0,0,1.7999999999999998,1.4,0.4,4,10,match,36.05,296,361,425,0,0,9,9,9,0,0,,,,,5,0,5,0,0,18,18,53,,,,,num_3,0.8568278001621366,num_3,0.4,1.2,0.35000000000000003,1.75,12.90274,64.51368,return,4.277880100067705,,,,,,,2,23,female,left_right_width,2023_Aug_14_1018,exp1,2021.2.3,60.097056716050375,
,,,,,,,,,,,,,,,,3,8.525,10,11.475,0,0,1.475,1.225,0.25,3.2,10,match,36.05,307,361,414,0,0,9,9,9,0,0,,,,,5,0,5,0,0,19,19,47,,,,,num_2,0.8937518000602722,num_2,0.4,1.6,0.30000000000000004,1.9,11.05949,70.04342,return,5.656961299944669,,,,,,,2,23,female,left_right_width,2023_Aug_14_1018,exp1,2021.2.3,60.097056716050375,
,,,,,,,,,,,,,,,,5,8.2,9.1,10,10.9,11.8,0.9,0.8,0.1,3.7,10,initial,36.05,296,328,361,393,425,9,9,9,9,9,,,,,5,0,5,0,0,20,20,48,,,,,num_4,1.1544325998984277,num_4,0.45,1.3,0.15000000000000008,1.4,5.52974,51.61094,return,4.243965500034392,,,,,,,2,23,female,left_right_width,2023_Aug_14_1018,exp1,2021.2.3,60.097056716050375,
,,,,,,,,,,,,,,,,5,9,9.5,10,10.5,11,0.5,0.09999999999999998,0.4,2.4,10,initial,36.05,324,342,361,379,397,9,9,9,9,9,,,,,5,0,5,0,0,21,21,40,,,,,num_4,1.0098453999962658,num_4,0.25,1.3,0.25,0.4,9.21624,14.74598,return,2.952704899944365,,,,,,,2,23,female,left_right_width,2023_Aug_14_1018,exp1,2021.2.3,60.097056716050375,
